Subject,Trial,Cond,ImageNum,CueNum,Correct,Resp,Accuracy,RT,CueRep,ImageType,Baseline,Category,Block
6,1,1,34,NaN,NaN,1,NaN,1.468323e+00,NaN,0,0,1,1
6,2,1,62,NaN,NaN,1,NaN,4.167029e-01,NaN,0,1,2,1
6,3,1,32,NaN,NaN,1,NaN,4.104027e-01,NaN,0,0,1,1
6,4,1,46,NaN,NaN,2,NaN,3.645018e-01,NaN,0,0,1,1
6,5,1,63,NaN,NaN,1,NaN,3.358443e-01,NaN,0,1,2,1
6,6,1,120,NaN,NaN,2,NaN,3.249485e-01,NaN,2,0,3,1
6,7,1,117,NaN,NaN,2,NaN,3.862832e-01,NaN,1,0,3,1
6,8,1,66,NaN,NaN,1,NaN,2.604202e-01,NaN,0,0,2,1
6,9,1,7,NaN,NaN,1,NaN,4.364803e-01,NaN,1,0,1,1
6,10,1,42,NaN,NaN,1,NaN,4.453490e-01,NaN,0,0,1,1
6,11,1,54,NaN,NaN,1,NaN,3.416006e-01,NaN,0,0,2,1
6,12,1,75,NaN,NaN,1,NaN,3.867707e-01,NaN,0,0,2,1
6,13,1,89,NaN,NaN,1,NaN,4.373672e-01,NaN,0,0,2,1
6,14,1,2,NaN,NaN,1,NaN,3.899205e-01,NaN,2,1,1,1
6,15,1,23,NaN,NaN,1,NaN,3.286986e-01,NaN,1,0,1,1
6,16,1,68,NaN,NaN,1,NaN,3.176794e-01,NaN,1,0,2,1
6,17,1,36,NaN,NaN,1,NaN,2.990290e-01,NaN,2,0,1,1
6,18,1,54,NaN,NaN,1,NaN,3.215101e-01,NaN,2,0,2,1
6,19,1,127,NaN,NaN,1,NaN,2.867133e-01,NaN,0,0,3,1
6,20,1,117,NaN,NaN,1,NaN,3.652746e-01,NaN,0,0,3,1
6,21,1,93,NaN,NaN,1,NaN,3.851455e-01,NaN,0,1,2,1
6,22,1,115,NaN,NaN,2,NaN,3.327790e-01,NaN,0,0,3,1
6,23,1,86,NaN,NaN,1,NaN,3.054391e-01,NaN,0,0,2,1
6,24,1,6,NaN,NaN,1,NaN,2.791961e-01,NaN,1,1,1,1
6,25,1,89,NaN,NaN,1,NaN,4.224091e-01,NaN,2,0,2,1
6,26,1,62,NaN,NaN,1,NaN,3.677835e-01,NaN,1,1,2,1
6,27,1,15,NaN,NaN,1,NaN,2.911976e-01,NaN,0,0,1,1
6,28,1,21,NaN,NaN,1,NaN,3.302495e-01,NaN,2,0,1,1
6,29,1,22,NaN,NaN,1,NaN,2.791137e-01,NaN,1,0,1,1
6,30,1,67,NaN,NaN,1,NaN,2.861117e-01,NaN,2,0,2,1
6,31,1,39,NaN,NaN,2,NaN,4.372860e-01,NaN,0,0,1,1
6,32,1,44,NaN,NaN,1,NaN,3.179610e-01,NaN,0,0,1,1
6,33,1,110,NaN,NaN,2,NaN,3.316199e-01,NaN,0,0,3,1
6,34,1,111,NaN,NaN,1,NaN,3.203845e-01,NaN,1,0,3,1
6,35,1,73,NaN,NaN,1,NaN,7.897087e-01,NaN,0,1,2,1
6,36,1,51,NaN,NaN,1,NaN,2.966396e-01,NaN,0,0,2,1
6,37,1,123,NaN,NaN,1,NaN,8.148120e-01,NaN,1,0,3,1
6,38,1,94,NaN,NaN,1,NaN,3.124556e-01,NaN,0,0,2,1
6,39,1,50,NaN,NaN,1,NaN,3.264336e-01,NaN,1,0,2,1
6,40,1,139,NaN,NaN,1,NaN,3.156389e-01,NaN,0,0,3,1
6,41,1,92,NaN,NaN,1,NaN,3.292625e-01,NaN,0,0,2,1
6,42,1,16,NaN,NaN,1,NaN,4.383584e-01,NaN,2,0,1,1
6,43,1,20,NaN,NaN,1,NaN,4.068515e-01,NaN,2,1,1,1
6,44,1,75,NaN,NaN,1,NaN,2.886485e-01,NaN,1,0,2,1
6,45,1,35,NaN,NaN,2,NaN,3.354444e-01,NaN,0,0,1,1
6,46,1,105,NaN,NaN,1,NaN,6.201353e-01,NaN,1,1,3,1
6,47,1,105,NaN,NaN,1,NaN,3.096698e-01,NaN,0,1,3,1
6,48,1,109,NaN,NaN,1,NaN,4.114879e-01,NaN,2,1,3,1
6,49,1,95,NaN,NaN,1,NaN,3.170871e-01,NaN,0,0,2,1
6,50,1,104,NaN,NaN,1,NaN,3.547675e-01,NaN,0,0,3,1
6,51,1,84,NaN,NaN,1,NaN,3.590842e-01,NaN,0,0,2,1
6,52,1,102,NaN,NaN,2,NaN,3.231881e-01,NaN,1,0,3,1
6,53,1,72,NaN,NaN,1,NaN,3.765969e-01,NaN,0,0,2,1
6,54,1,109,NaN,NaN,1,NaN,4.035429e-01,NaN,0,1,3,1
6,55,1,135,NaN,NaN,1,NaN,3.015486e-01,NaN,1,0,3,1
6,56,1,7,NaN,NaN,1,NaN,4.041481e-01,NaN,0,0,1,1
6,57,1,58,NaN,NaN,1,NaN,5.017303e-01,NaN,0,1,2,1
6,58,1,12,NaN,NaN,2,NaN,4.522996e-01,NaN,0,0,1,1
6,59,1,60,NaN,NaN,1,NaN,4.765414e-01,NaN,0,0,2,1
6,60,1,87,NaN,NaN,1,NaN,6.675382e-01,NaN,2,0,2,1
6,61,1,137,NaN,NaN,1,NaN,4.914886e-01,NaN,0,0,3,1
6,62,1,103,NaN,NaN,1,NaN,5.618906e-01,NaN,0,1,3,1
6,63,1,81,NaN,NaN,1,NaN,2.857568e-01,NaN,0,0,2,1
6,64,1,142,NaN,NaN,1,NaN,4.209608e-01,NaN,0,0,3,1
6,65,1,64,NaN,NaN,1,NaN,5.417657e-01,NaN,2,0,2,1
6,66,1,65,NaN,NaN,1,NaN,3.513790e-02,NaN,1,1,2,1
6,67,1,33,NaN,NaN,1,NaN,7.077007e-01,NaN,2,0,1,1
6,68,1,127,NaN,NaN,1,NaN,3.700163e-01,NaN,1,0,3,1
6,69,1,95,NaN,NaN,1,NaN,3.893998e-01,NaN,1,0,2,1
6,70,1,120,NaN,NaN,1,NaN,9.438091e-01,NaN,0,0,3,1
6,71,1,116,NaN,NaN,1,NaN,4.364936e-01,NaN,0,1,3,1
6,72,1,14,NaN,NaN,1,NaN,3.251402e-01,NaN,2,1,1,1
6,73,1,78,NaN,NaN,1,NaN,3.546486e-01,NaN,0,0,2,1
6,74,1,138,NaN,NaN,1,NaN,3.824383e-01,NaN,0,1,3,1
6,75,1,144,NaN,NaN,1,NaN,3.777669e-01,NaN,1,1,3,1
6,76,1,59,NaN,NaN,1,NaN,3.965183e-01,NaN,0,0,2,1
6,77,1,141,NaN,NaN,1,NaN,3.991628e-01,NaN,2,0,3,1
6,78,1,96,NaN,NaN,1,NaN,3.292643e-01,NaN,1,1,2,1
6,79,1,26,NaN,NaN,1,NaN,3.501945e-01,NaN,0,1,1,1
6,80,1,83,NaN,NaN,1,NaN,2.586354e-01,NaN,0,1,2,1
6,81,1,98,NaN,NaN,1,NaN,2.347190e-01,NaN,2,1,3,1
6,82,1,141,NaN,NaN,1,NaN,2.518296e-01,NaN,0,0,3,1
6,83,1,112,NaN,NaN,1,NaN,2.280608e-01,NaN,0,0,3,1
6,84,1,4,NaN,NaN,1,NaN,2.293651e-01,NaN,0,0,1,1
6,85,1,10,NaN,NaN,1,NaN,3.100794e-01,NaN,0,1,1,1
6,86,1,30,NaN,NaN,1,NaN,2.524372e-01,NaN,1,1,1,1
6,87,1,44,NaN,NaN,1,NaN,4.203236e-01,NaN,2,0,1,1
6,88,1,106,NaN,NaN,1,NaN,6.215914e-01,NaN,0,0,3,1
6,89,1,81,NaN,NaN,1,NaN,2.392971e-01,NaN,1,0,2,1
6,90,1,136,NaN,NaN,2,NaN,1.647609e+00,NaN,0,0,3,1
6,91,1,48,NaN,NaN,1,NaN,2.644580e-01,NaN,1,1,1,1
6,92,1,134,NaN,NaN,2,NaN,4.559556e-01,NaN,0,0,3,1
6,93,1,69,NaN,NaN,1,NaN,3.119189e-01,NaN,0,0,2,1
6,94,1,58,NaN,NaN,1,NaN,4.695279e-01,NaN,1,1,2,1
6,95,1,55,NaN,NaN,1,NaN,4.210209e-01,NaN,2,1,2,1
6,96,1,20,NaN,NaN,1,NaN,4.062185e-01,NaN,0,1,1,1
6,97,1,61,NaN,NaN,1,NaN,1.032701e+00,NaN,0,1,2,1
6,98,1,107,NaN,NaN,1,NaN,3.615286e-01,NaN,1,1,3,1
6,99,1,80,NaN,NaN,1,NaN,3.249919e-01,NaN,0,0,2,1
6,100,1,12,NaN,NaN,1,NaN,1.705430e-01,NaN,2,0,1,1
6,101,1,83,NaN,NaN,1,NaN,2.700501e-01,NaN,2,1,2,1
6,102,1,107,NaN,NaN,1,NaN,2.533747e-01,NaN,0,1,3,1
6,103,1,24,NaN,NaN,1,NaN,2.774816e-01,NaN,0,0,1,1
6,104,1,57,NaN,NaN,1,NaN,1.887948e-01,NaN,0,0,2,1
6,105,1,48,NaN,NaN,1,NaN,1.676011e-01,NaN,0,1,1,1
6,106,1,122,NaN,NaN,1,NaN,3.311696e-01,NaN,0,0,3,1
6,107,1,134,NaN,NaN,1,NaN,2.561994e-01,NaN,1,0,3,1
6,108,1,143,NaN,NaN,1,NaN,4.255368e-01,NaN,1,0,3,1
6,109,1,29,NaN,NaN,1,NaN,3.298840e-01,NaN,0,0,1,1
6,110,1,25,NaN,NaN,1,NaN,3.663591e-01,NaN,2,0,1,1
6,111,1,21,NaN,NaN,1,NaN,2.581714e-01,NaN,0,0,1,1
6,112,1,98,NaN,NaN,1,NaN,2.506014e-01,NaN,0,1,3,1
6,113,1,41,NaN,NaN,1,NaN,2.908843e-01,NaN,0,1,1,1
6,114,1,31,NaN,NaN,1,NaN,2.970836e-01,NaN,0,0,1,1
6,115,1,5,NaN,NaN,1,NaN,8.875867e-01,NaN,1,0,1,1
6,116,1,132,NaN,NaN,1,NaN,5.981640e-01,NaN,0,0,3,1
6,117,1,121,NaN,NaN,2,NaN,3.207990e-01,NaN,0,0,3,1
6,118,1,79,NaN,NaN,1,NaN,5.661847e-01,NaN,1,0,2,1
6,119,1,124,NaN,NaN,2,NaN,6.340608e-01,NaN,1,0,3,1
6,120,1,84,NaN,NaN,1,NaN,2.908287e-01,NaN,2,0,2,1
6,121,1,72,NaN,NaN,1,NaN,5.537120e-01,NaN,2,0,2,1
6,122,1,124,NaN,NaN,1,NaN,3.737867e-01,NaN,0,0,3,1
6,123,1,74,NaN,NaN,1,NaN,5.209964e-01,NaN,0,0,2,1
6,124,1,28,NaN,NaN,1,NaN,4.460921e-01,NaN,0,0,1,1
6,125,1,56,NaN,NaN,1,NaN,3.185556e-01,NaN,0,1,2,1
6,126,1,1,NaN,NaN,1,NaN,4.605018e-01,NaN,1,0,1,1
6,127,1,50,NaN,NaN,1,NaN,3.722732e-01,NaN,0,0,2,1
6,128,1,93,NaN,NaN,1,NaN,4.876038e-01,NaN,2,1,2,1
6,129,1,52,NaN,NaN,1,NaN,4.624209e-01,NaN,2,0,2,1
6,130,1,137,NaN,NaN,1,NaN,3.500873e-01,NaN,2,0,3,1
6,131,1,126,NaN,NaN,2,NaN,3.700712e-01,NaN,0,0,3,1
6,132,1,56,NaN,NaN,1,NaN,4.217716e-01,NaN,1,1,2,1
6,133,1,18,NaN,NaN,1,NaN,3.751284e-01,NaN,1,1,1,1
6,134,1,100,NaN,NaN,2,NaN,4.030820e-01,NaN,2,0,3,1
6,135,1,26,NaN,NaN,1,NaN,7.010727e-01,NaN,2,1,1,1
6,136,1,40,NaN,NaN,1,NaN,3.708829e-01,NaN,0,0,1,1
6,137,1,2,NaN,NaN,1,NaN,3.664515e-01,NaN,0,1,1,1
6,138,1,92,NaN,NaN,1,NaN,2.823785e-01,NaN,1,0,2,1
6,139,1,43,NaN,NaN,1,NaN,5.546873e-01,NaN,0,0,1,1
6,140,1,138,NaN,NaN,1,NaN,3.497016e-01,NaN,2,1,3,1
6,141,1,121,NaN,NaN,1,NaN,4.017028e-01,NaN,2,0,3,1
6,142,1,140,NaN,NaN,1,NaN,4.360559e-01,NaN,0,0,3,1
6,143,1,119,NaN,NaN,1,NaN,4.445421e-01,NaN,2,0,3,1
6,144,1,29,NaN,NaN,1,NaN,5.248018e-01,NaN,2,0,1,1
6,145,1,113,NaN,NaN,1,NaN,3.539266e-01,NaN,1,0,3,1
6,146,1,108,NaN,NaN,1,NaN,4.303857e-01,NaN,1,0,3,1
6,147,1,140,NaN,NaN,1,NaN,2.950887e-01,NaN,2,0,3,1
6,148,1,79,NaN,NaN,1,NaN,5.176269e-01,NaN,0,0,2,1
6,149,1,78,NaN,NaN,1,NaN,7.312775e-01,NaN,2,0,2,1
6,150,1,133,NaN,NaN,2,NaN,6.440151e-02,NaN,0,0,3,1
6,151,1,139,NaN,NaN,1,NaN,1.280064e-01,NaN,1,0,3,1
6,152,1,70,NaN,NaN,1,NaN,1.732777e-01,NaN,0,0,2,1
6,153,1,13,NaN,NaN,1,NaN,8.053170e-02,NaN,0,0,1,1
6,154,1,100,NaN,NaN,1,NaN,2.476535e-01,NaN,0,0,3,1
6,155,1,15,NaN,NaN,1,NaN,2.635591e-01,NaN,1,0,1,1
6,156,1,19,NaN,NaN,2,NaN,2.640572e-01,NaN,0,0,1,1
6,157,1,110,NaN,NaN,1,NaN,2.795191e-01,NaN,1,0,3,1
6,158,1,91,NaN,NaN,1,NaN,2.382228e-01,NaN,2,0,2,1
6,159,1,131,NaN,NaN,2,NaN,2.388130e-01,NaN,2,0,3,1
6,160,1,132,NaN,NaN,1,NaN,6.156094e-01,NaN,1,0,3,1
6,161,1,85,NaN,NaN,1,NaN,3.615890e-01,NaN,2,0,2,1
6,162,1,88,NaN,NaN,1,NaN,2.533926e-01,NaN,2,0,2,1
6,163,1,131,NaN,NaN,1,NaN,2.689335e-01,NaN,0,0,3,1
6,164,1,8,NaN,NaN,1,NaN,3.964884e-01,NaN,0,1,1,1
6,165,1,106,NaN,NaN,1,NaN,2.710435e-01,NaN,1,0,3,1
6,166,1,130,NaN,NaN,2,NaN,3.185058e-01,NaN,2,0,3,1
6,167,1,6,NaN,NaN,1,NaN,2.600082e-01,NaN,0,1,1,1
6,168,1,67,NaN,NaN,1,NaN,6.361559e-01,NaN,0,0,2,1
6,169,1,125,NaN,NaN,1,NaN,3.812432e-01,NaN,0,0,3,1
6,170,1,80,NaN,NaN,1,NaN,2.643273e-01,NaN,2,0,2,1
6,171,1,32,NaN,NaN,1,NaN,4.162610e-01,NaN,1,0,1,1
6,172,1,37,NaN,NaN,1,NaN,5.214082e-01,NaN,0,1,1,1
6,173,1,115,NaN,NaN,1,NaN,2.552728e-01,NaN,2,0,3,1
6,174,1,82,NaN,NaN,1,NaN,3.509023e-01,NaN,1,0,2,1
6,175,1,17,NaN,NaN,1,NaN,4.754792e-01,NaN,1,0,1,1
6,176,1,85,NaN,NaN,1,NaN,2.265700e-01,NaN,0,0,2,1
6,177,1,70,NaN,NaN,1,NaN,3.560996e-01,NaN,1,0,2,1
6,178,1,133,NaN,NaN,1,NaN,5.278635e-01,NaN,2,0,3,1
6,179,1,3,NaN,NaN,1,NaN,6.294386e-01,NaN,1,1,1,1
6,180,1,64,NaN,NaN,1,NaN,6.223394e-01,NaN,0,0,2,1
6,181,1,23,NaN,NaN,1,NaN,4.716943e-01,NaN,0,0,1,1
6,182,1,101,NaN,NaN,1,NaN,4.227652e-01,NaN,2,0,3,1
6,183,1,45,NaN,NaN,1,NaN,6.082132e-01,NaN,0,0,1,1
6,184,1,102,NaN,NaN,2,NaN,3.944500e-01,NaN,0,0,3,1
6,185,1,28,NaN,NaN,1,NaN,3.489832e-01,NaN,2,0,1,1
6,186,1,10,NaN,NaN,1,NaN,2.573818e-01,NaN,1,1,1,1
6,187,1,49,NaN,NaN,1,NaN,2.573003e-01,NaN,2,0,2,1
6,188,1,135,NaN,NaN,1,NaN,2.336776e-01,NaN,0,0,3,1
6,189,1,144,NaN,NaN,1,NaN,2.668052e-01,NaN,0,1,3,1
6,190,1,99,NaN,NaN,2,NaN,3.301913e-01,NaN,0,1,3,1
6,191,1,27,NaN,NaN,1,NaN,2.631266e-01,NaN,2,1,1,1
6,192,1,47,NaN,NaN,1,NaN,2.391390e-01,NaN,0,0,1,1
6,193,1,88,NaN,NaN,1,NaN,2.077500e-01,NaN,0,0,2,1
6,194,1,34,NaN,NaN,1,NaN,2.339795e-01,NaN,2,0,1,1
6,195,1,130,NaN,NaN,1,NaN,4.108624e-01,NaN,0,0,3,1
6,196,1,38,NaN,NaN,1,NaN,3.891348e-01,NaN,2,0,1,1
6,197,1,77,NaN,NaN,1,NaN,2.477930e-01,NaN,2,0,2,1
6,198,1,122,NaN,NaN,1,NaN,4.159749e-01,NaN,2,0,3,1
6,199,1,101,NaN,NaN,1,NaN,3.699176e-01,NaN,0,0,3,1
6,200,1,46,NaN,NaN,2,NaN,3.652818e-01,NaN,2,0,1,1
6,201,1,68,NaN,NaN,1,NaN,2.568593e-01,NaN,0,0,2,1
6,202,1,65,NaN,NaN,1,NaN,2.329812e-01,NaN,0,1,2,1
6,203,1,43,NaN,NaN,1,NaN,2.417101e-01,NaN,1,0,1,1
6,204,1,71,NaN,NaN,1,NaN,3.064319e-01,NaN,1,0,2,1
6,205,1,22,NaN,NaN,1,NaN,2.727540e-01,NaN,0,0,1,1
6,206,1,97,NaN,NaN,2,NaN,3.121420e-01,NaN,1,0,3,1
6,207,1,94,NaN,NaN,1,NaN,2.379222e-01,NaN,1,0,2,1
6,208,1,14,NaN,NaN,1,NaN,5.264300e-01,NaN,0,1,1,1
6,209,1,45,NaN,NaN,1,NaN,3.240949e-01,NaN,1,0,1,1
6,210,1,119,NaN,NaN,1,NaN,3.053775e-01,NaN,0,0,3,1
6,211,1,53,NaN,NaN,1,NaN,2.871721e-01,NaN,0,0,2,1
6,212,1,19,NaN,NaN,2,NaN,2.615992e-01,NaN,1,0,1,1
6,213,1,17,NaN,NaN,1,NaN,3.259241e-01,NaN,0,0,1,1
6,214,1,27,NaN,NaN,1,NaN,3.389428e-01,NaN,0,1,1,1
6,215,1,112,NaN,NaN,1,NaN,2.714537e-01,NaN,1,0,3,1
6,216,1,3,NaN,NaN,1,NaN,2.791270e-01,NaN,0,1,1,1
6,217,1,33,NaN,NaN,1,NaN,2.702638e-01,NaN,0,0,1,1
6,218,1,4,NaN,NaN,1,NaN,3.027379e-01,NaN,1,0,1,1
6,219,1,111,NaN,NaN,1,NaN,3.080643e-01,NaN,0,0,3,1
6,220,1,113,NaN,NaN,1,NaN,1.185899e+00,NaN,0,0,3,1
6,221,1,118,NaN,NaN,1,NaN,4.447555e-01,NaN,0,0,3,1
6,222,1,39,NaN,NaN,2,NaN,2.615225e-01,NaN,1,0,1,1
6,223,1,71,NaN,NaN,1,NaN,3.092493e-01,NaN,0,0,2,1
6,224,1,90,NaN,NaN,1,NaN,2.992364e-01,NaN,2,0,2,1
6,225,1,63,NaN,NaN,1,NaN,2.176428e-01,NaN,1,1,2,1
6,226,1,16,NaN,NaN,1,NaN,2.988670e-01,NaN,0,0,1,1
6,227,1,90,NaN,NaN,1,NaN,3.535861e-01,NaN,0,0,2,1
6,228,1,142,NaN,NaN,1,NaN,3.898118e-01,NaN,2,0,3,1
6,229,1,136,NaN,NaN,1,NaN,4.085011e-01,NaN,2,0,3,1
6,230,1,74,NaN,NaN,1,NaN,7.222072e-01,NaN,2,0,2,1
6,231,1,123,NaN,NaN,1,NaN,3.118881e-01,NaN,0,0,3,1
6,232,1,41,NaN,NaN,1,NaN,3.091678e-01,NaN,2,1,1,1
6,233,1,118,NaN,NaN,1,NaN,2.511417e-01,NaN,2,0,3,1
6,234,1,24,NaN,NaN,1,NaN,2.999382e-01,NaN,2,0,1,1
6,235,1,103,NaN,NaN,1,NaN,2.582747e-01,NaN,2,1,3,1
6,236,1,97,NaN,NaN,1,NaN,6.902134e-01,NaN,0,0,3,1
6,237,1,129,NaN,NaN,2,NaN,3.051348e-01,NaN,0,0,3,1
6,238,1,30,NaN,NaN,1,NaN,3.992256e-01,NaN,0,1,1,1
6,239,1,47,NaN,NaN,1,NaN,3.452261e-01,NaN,1,0,1,1
6,240,1,49,NaN,NaN,1,NaN,2.854184e-01,NaN,0,0,2,1
6,241,1,143,NaN,NaN,1,NaN,3.086022e-01,NaN,0,0,3,1
6,242,1,96,NaN,NaN,1,NaN,2.746258e-01,NaN,0,1,2,1
6,243,1,73,NaN,NaN,1,NaN,3.060636e-01,NaN,1,1,2,1
6,244,1,25,NaN,NaN,1,NaN,2.642090e-01,NaN,0,0,1,1
6,245,1,42,NaN,NaN,1,NaN,3.117891e-01,NaN,1,0,1,1
6,246,1,128,NaN,NaN,2,NaN,3.496560e-01,NaN,0,0,3,1
6,247,1,53,NaN,NaN,1,NaN,3.702016e-01,NaN,1,0,2,1
6,248,1,99,NaN,NaN,2,NaN,3.415100e-01,NaN,2,1,3,1
6,249,1,37,NaN,NaN,1,NaN,3.543018e-01,NaN,1,1,1,1
6,250,1,114,NaN,NaN,1,NaN,2.942378e-01,NaN,0,0,3,1
6,251,1,13,NaN,NaN,1,NaN,3.980807e-01,NaN,1,0,1,1
6,252,1,11,NaN,NaN,1,NaN,7.832673e-01,NaN,0,1,1,1
6,253,1,60,NaN,NaN,1,NaN,4.820909e-01,NaN,2,0,2,1
6,254,1,5,NaN,NaN,1,NaN,4.650962e-01,NaN,0,0,1,1
6,255,1,129,NaN,NaN,1,NaN,6.008158e-01,NaN,1,0,3,1
6,256,1,59,NaN,NaN,1,NaN,8.272865e-01,NaN,2,0,2,1
6,257,1,35,NaN,NaN,2,NaN,3.165450e-01,NaN,2,0,1,1
6,258,1,126,NaN,NaN,1,NaN,6.265746e-01,NaN,2,0,3,1
6,259,1,104,NaN,NaN,1,NaN,3.636373e-01,NaN,1,0,3,1
6,260,1,36,NaN,NaN,1,NaN,4.955548e-01,NaN,0,0,1,1
6,261,1,8,NaN,NaN,1,NaN,7.900208e-01,NaN,2,1,1,1
6,262,1,9,NaN,NaN,1,NaN,4.405900e-01,NaN,0,1,1,1
6,263,1,116,NaN,NaN,1,NaN,5.211437e-01,NaN,2,1,3,1
6,264,1,11,NaN,NaN,1,NaN,5.981879e-01,NaN,2,1,1,1
6,265,1,38,NaN,NaN,1,NaN,6.408409e-01,NaN,0,0,1,1
6,266,1,69,NaN,NaN,1,NaN,6.178310e-01,NaN,1,0,2,1
6,267,1,108,NaN,NaN,1,NaN,5.392604e-01,NaN,0,0,3,1
6,268,1,52,NaN,NaN,1,NaN,4.880862e-01,NaN,0,0,2,1
6,269,1,9,NaN,NaN,1,NaN,7.669910e-01,NaN,2,1,1,1
6,270,1,91,NaN,NaN,1,NaN,6.343943e-01,NaN,0,0,2,1
6,271,1,114,NaN,NaN,1,NaN,4.763935e-01,NaN,1,0,3,1
6,272,1,40,NaN,NaN,1,NaN,2.907771e-01,NaN,2,0,1,1
6,273,1,76,NaN,NaN,1,NaN,2.496083e-01,NaN,2,0,2,1
6,274,1,55,NaN,NaN,1,NaN,2.821563e-01,NaN,0,1,2,1
6,275,1,61,NaN,NaN,1,NaN,6.250500e-01,NaN,1,1,2,1
6,276,1,87,NaN,NaN,1,NaN,4.185394e-01,NaN,0,0,2,1
6,277,1,82,NaN,NaN,1,NaN,6.840179e-01,NaN,0,0,2,1
6,278,1,128,NaN,NaN,1,NaN,1.939119e+00,NaN,1,0,3,1
6,279,1,77,NaN,NaN,1,NaN,7.675524e-01,NaN,0,0,2,1
6,280,1,57,NaN,NaN,1,NaN,2.832541e-01,NaN,1,0,2,1
6,281,1,86,NaN,NaN,1,NaN,3.462068e-01,NaN,1,0,2,1
6,282,1,18,NaN,NaN,1,NaN,3.266995e-01,NaN,0,1,1,1
6,283,1,1,NaN,NaN,1,NaN,2.280973e-01,NaN,0,0,1,1
6,284,1,31,NaN,NaN,1,NaN,2.372352e-01,NaN,1,0,1,1
6,285,1,76,NaN,NaN,1,NaN,1.016819e-01,NaN,0,0,2,1
6,286,1,51,NaN,NaN,1,NaN,3.965180e-01,NaN,1,0,2,1
6,287,1,125,NaN,NaN,1,NaN,3.026072e-01,NaN,2,0,3,1
6,288,1,66,NaN,NaN,1,NaN,2.089336e-02,NaN,2,0,2,1
6,342,2,18,60,1,1,1,2.155598e+00,NaN,1,1,1,1
6,343,2,48,72,2,1,0,2.219698e+00,NaN,1,1,1,1
6,344,2,13,13,1,1,1,1.064593e+00,NaN,1,0,1,1
6,345,2,139,58,2,2,1,1.091732e+00,NaN,1,0,3,1
6,346,2,6,9,2,2,1,1.389395e+00,NaN,1,1,1,1
6,347,2,97,28,1,1,1,1.219658e+00,NaN,1,0,3,1
6,348,2,143,47,2,2,1,1.568486e+00,NaN,1,0,3,1
6,349,2,124,21,1,1,1,1.695392e+00,NaN,1,0,3,1
6,350,2,127,5,2,2,1,1.465035e+00,NaN,1,0,3,1
6,351,2,129,70,1,1,1,1.851674e+00,NaN,1,0,3,1
6,352,2,70,49,1,1,1,1.111716e+00,NaN,1,0,2,1
6,353,2,108,55,2,2,1,8.482879e-01,NaN,1,0,3,1
6,354,2,71,2,2,2,1,1.396385e+00,NaN,1,0,2,1
6,355,2,102,26,2,2,1,8.017428e-01,NaN,1,0,3,1
6,356,2,19,64,1,1,1,1.094976e+00,NaN,1,0,1,1
6,357,2,123,59,2,2,1,1.065238e+00,NaN,1,0,3,1
6,358,2,17,17,2,2,1,1.420015e+00,NaN,1,0,1,1
6,359,2,15,57,2,2,1,1.160664e+00,NaN,1,0,1,1
6,360,2,45,20,1,1,1,1.479514e+00,NaN,1,0,1,1
6,361,2,106,31,2,2,1,9.381391e-01,NaN,1,0,3,1
6,362,2,92,1,2,2,1,8.661842e-01,NaN,1,0,2,1
6,363,2,31,43,2,2,1,1.341196e+00,NaN,1,0,1,1
6,364,2,1,7,2,1,0,2.228995e+00,NaN,1,0,1,1
6,365,2,111,51,1,2,0,7.293429e-01,NaN,1,0,3,1
6,366,3,124,21,2,2,1,1.638106e+00,NaN,1,0,3,1
6,367,3,108,55,2,2,1,1.178135e+00,NaN,1,0,3,1
6,368,3,15,57,2,2,1,6.405188e-01,NaN,1,0,1,1
6,369,3,31,43,2,2,1,5.646305e-01,NaN,1,0,1,1
6,370,3,102,26,2,2,1,7.476748e-01,NaN,1,0,3,1
6,371,3,1,7,2,1,0,8.911193e-01,NaN,1,0,1,1
6,372,3,71,2,1,1,1,8.051407e-01,NaN,1,0,2,1
6,373,3,45,20,1,1,1,1.066919e+00,NaN,1,0,1,1
6,374,3,129,70,2,1,0,1.453563e+00,NaN,1,0,3,1
6,375,3,17,17,1,1,1,2.160896e+00,NaN,1,0,1,1
6,376,3,111,51,1,1,1,1.535895e+00,NaN,1,0,3,1
6,377,3,48,72,2,1,0,1.440264e+00,NaN,1,1,1,1
6,378,3,19,64,1,1,1,1.196534e+00,NaN,1,0,1,1
6,379,3,127,5,1,1,1,1.353736e+00,NaN,1,0,3,1
6,380,3,106,31,2,2,1,1.289239e+00,NaN,1,0,3,1
6,381,3,92,1,2,2,1,1.138871e+00,NaN,1,0,2,1
6,382,3,70,49,1,1,1,8.588203e-01,NaN,1,0,2,1
6,383,3,6,9,2,2,1,1.486616e+00,NaN,1,1,1,1
6,384,3,97,28,2,2,1,1.328552e+00,NaN,1,0,3,1
6,385,3,123,59,1,2,0,1.472798e+00,NaN,1,0,3,1
6,386,3,18,60,2,2,1,9.712230e-01,NaN,1,1,1,1
6,387,3,139,58,1,1,1,9.145147e-01,NaN,1,0,3,1
6,388,3,13,13,1,1,1,1.027452e+00,NaN,1,0,1,1
6,389,3,143,47,1,2,0,2.007974e+00,NaN,1,0,3,1
6,414,2,50,39,1,1,1,1.010248e+00,NaN,1,0,2,2
6,415,2,63,12,1,1,1,1.591943e+00,NaN,1,1,2,2
6,416,2,37,61,1,1,1,1.565949e+00,NaN,1,1,1,2
6,417,2,30,69,2,2,1,1.188518e+00,NaN,1,1,1,2
6,418,2,65,54,1,1,1,1.306554e+00,NaN,1,1,2,2
6,419,2,5,15,1,1,1,9.154812e-01,NaN,1,0,1,2
6,420,2,128,11,1,2,0,1.340612e+00,NaN,1,0,3,2
6,421,2,47,36,2,2,1,2.204812e+00,NaN,1,0,1,2
6,422,2,3,48,2,2,1,1.601815e+00,NaN,1,1,1,2
6,423,2,134,4,1,2,0,1.031362e+00,NaN,1,0,3,2
6,424,2,51,71,2,2,1,8.998931e-01,NaN,1,0,2,2
6,425,2,57,53,1,1,1,6.535560e-01,NaN,1,0,2,2
6,426,2,112,41,2,2,1,1.096438e+00,NaN,1,0,3,2
6,427,2,107,62,1,2,0,8.903218e-01,NaN,1,1,3,2
6,428,2,53,33,1,1,1,7.483811e-01,NaN,1,0,2,2
6,429,2,79,46,2,2,1,8.998014e-01,NaN,1,0,2,2
6,430,2,69,19,2,2,1,7.972441e-01,NaN,1,0,2,2
6,431,2,68,29,2,2,1,5.548310e-01,NaN,1,0,2,2
6,432,2,132,22,2,2,1,1.178995e+00,NaN,1,0,3,2
6,433,2,58,8,1,1,1,8.013368e-01,NaN,1,1,2,2
6,434,2,39,24,2,2,1,7.906399e-01,NaN,1,0,1,2
6,435,2,62,37,2,2,1,6.366989e-01,NaN,1,1,2,2
6,436,2,135,68,2,2,1,6.969938e-01,NaN,1,0,3,2
6,437,2,117,27,1,1,1,1.514865e+00,NaN,1,0,3,2
6,438,3,30,69,1,1,1,1.069852e+00,NaN,1,1,1,2
6,439,3,3,48,1,1,1,1.665149e+00,NaN,1,1,1,2
6,440,3,37,61,2,2,1,2.260928e+00,NaN,1,1,1,2
6,441,3,53,33,1,1,1,8.864530e-01,NaN,1,0,2,2
6,442,3,39,24,1,1,1,8.809379e-01,NaN,1,0,1,2
6,443,3,117,27,1,1,1,1.147441e+00,NaN,1,0,3,2
6,444,3,134,4,1,2,0,1.131951e+00,NaN,1,0,3,2
6,445,3,62,37,2,2,1,5.629136e-01,NaN,1,1,2,2
6,446,3,107,62,2,2,1,1.490052e+00,NaN,1,1,3,2
6,447,3,132,22,2,2,1,5.403223e-01,NaN,1,0,3,2
6,448,3,65,54,2,2,1,9.478061e-01,NaN,1,1,2,2
6,449,3,68,29,1,1,1,6.437966e-01,NaN,1,0,2,2
6,450,3,47,36,2,2,1,2.327762e+00,NaN,1,0,1,2
6,451,3,69,19,2,2,1,6.884358e-01,NaN,1,0,2,2
6,452,3,63,12,1,1,1,1.114153e+00,NaN,1,1,2,2
6,453,3,128,11,1,1,1,1.411400e+00,NaN,1,0,3,2
6,454,3,112,41,1,1,1,1.024709e+00,NaN,1,0,3,2
6,455,3,5,15,2,1,0,8.688857e-01,NaN,1,0,1,2
6,456,3,79,46,1,1,1,9.121068e-01,NaN,1,0,2,2
6,457,3,50,39,1,1,1,8.571619e-01,NaN,1,0,2,2
6,458,3,58,8,2,2,1,1.228305e+00,NaN,1,1,2,2
6,459,3,57,53,1,1,1,7.930149e-01,NaN,1,0,2,2
6,460,3,51,71,2,2,1,9.908344e-01,NaN,1,0,2,2
6,461,3,135,68,1,1,1,7.409502e-01,NaN,1,0,3,2
6,486,2,10,44,2,2,1,1.272083e+00,NaN,1,1,1,3
6,487,2,82,52,1,1,1,6.983811e-01,NaN,1,0,2,3
6,488,2,32,45,1,1,1,8.198851e-01,NaN,1,0,1,3
6,489,2,104,16,1,1,1,8.569509e-01,NaN,1,0,3,3
6,490,2,86,63,1,1,1,5.639972e-01,NaN,1,0,2,3
6,491,2,61,3,1,1,1,8.587542e-01,NaN,1,1,2,3
6,492,2,81,34,1,1,1,1.518265e+00,NaN,1,0,2,3
6,493,2,56,6,2,2,1,9.991968e-01,NaN,1,1,2,3
6,494,2,144,32,2,2,1,9.807967e-01,NaN,1,1,3,3
6,495,2,94,66,2,2,1,1.010717e+00,NaN,1,0,2,3
6,496,2,7,38,2,2,1,9.122985e-01,NaN,1,0,1,3
6,497,2,43,25,2,2,1,1.233016e+00,NaN,1,0,1,3
6,498,2,75,35,1,1,1,1.101458e+00,NaN,1,0,2,3
6,499,2,114,18,2,2,1,1.902515e+00,NaN,1,0,3,3
6,500,2,4,30,1,1,1,1.184158e+00,NaN,1,0,1,3
6,501,2,113,56,1,1,1,1.022441e+00,NaN,1,0,3,3
6,502,2,95,50,1,2,0,1.138893e+00,NaN,1,0,2,3
6,503,2,42,42,2,2,1,1.322641e+00,NaN,1,0,1,3
6,504,2,110,23,2,2,1,1.179141e+00,NaN,1,0,3,3
6,505,2,23,14,1,1,1,1.913839e+00,NaN,1,0,1,3
6,506,2,73,65,2,2,1,1.522111e+00,NaN,1,1,2,3
6,507,2,96,67,1,1,1,6.671500e-01,NaN,1,1,2,3
6,508,2,22,10,2,1,0,1.557678e+00,NaN,1,0,1,3
6,509,2,105,40,1,1,1,1.285299e+00,NaN,1,1,3,3
6,510,3,10,44,2,2,1,1.007412e+00,NaN,1,1,1,3
6,511,3,113,56,2,2,1,9.404872e-01,NaN,1,0,3,3
6,512,3,22,10,2,2,1,1.188722e+00,NaN,1,0,1,3
6,513,3,81,34,2,2,1,9.869529e-01,NaN,1,0,2,3
6,514,3,23,14,2,2,1,1.088826e+00,NaN,1,0,1,3
6,515,3,96,67,1,1,1,5.222826e-01,NaN,1,1,2,3
6,516,3,95,50,1,2,0,7.872680e-01,NaN,1,0,2,3
6,517,3,144,32,1,1,1,1.880976e+00,NaN,1,1,3,3
6,518,3,73,65,1,1,1,9.715342e-01,NaN,1,1,2,3
6,519,3,114,18,2,2,1,1.761921e+00,NaN,1,0,3,3
6,520,3,75,35,1,1,1,6.168630e-01,NaN,1,0,2,3
6,521,3,94,66,1,1,1,8.696920e-01,NaN,1,0,2,3
6,522,3,110,23,2,2,1,7.683985e-01,NaN,1,0,3,3
6,523,3,61,3,2,2,1,7.115909e-01,NaN,1,1,2,3
6,524,3,104,16,1,1,1,9.368104e-01,NaN,1,0,3,3
6,525,3,4,30,2,1,0,1.240869e+00,NaN,1,0,1,3
6,526,3,43,25,1,1,1,1.004724e+00,NaN,1,0,1,3
6,527,3,7,38,2,2,1,1.177491e+00,NaN,1,0,1,3
6,528,3,42,42,1,1,1,1.129387e+00,NaN,1,0,1,3
6,529,3,82,52,2,2,1,9.607597e-01,NaN,1,0,2,3
6,530,3,56,6,1,1,1,9.201568e-01,NaN,1,1,2,3
6,531,3,105,40,2,2,1,1.448670e+00,NaN,1,1,3,3
6,532,3,86,63,1,1,1,5.086098e-01,NaN,1,0,2,3
6,533,3,32,45,2,2,1,1.109518e+00,NaN,1,0,1,3
6,558,4,54,70,1,1,1,8.867431e-01,NaN,2,0,2,1
6,559,4,99,61,1,1,1,8.246613e-01,NaN,2,1,3,1
6,560,4,14,8,1,1,1,6.533027e-01,NaN,2,1,1,1
6,561,4,98,9,1,1,1,8.895427e-01,NaN,2,1,3,1
6,562,4,11,6,2,2,1,1.275631e+00,NaN,2,1,1,1
6,563,4,109,44,1,1,1,9.419470e-01,NaN,2,1,3,1
6,564,4,46,59,2,2,1,1.213831e+00,NaN,2,0,1,1
6,565,4,40,68,2,2,1,1.130763e+00,NaN,2,0,1,1
6,566,4,27,32,2,2,1,1.723297e+00,NaN,2,1,1,1
6,567,4,103,48,1,2,0,1.339948e+00,NaN,2,1,3,1
6,568,4,126,35,2,2,1,1.011798e+00,NaN,2,0,3,1
6,569,4,133,39,2,2,1,7.044956e-01,NaN,2,0,3,1
6,570,4,66,26,2,2,1,9.618152e-01,NaN,2,0,2,1
6,571,4,28,31,2,2,1,8.005783e-01,NaN,2,0,1,1
6,572,4,21,66,1,1,1,8.944179e-01,NaN,2,0,1,1
6,573,4,9,12,1,2,0,1.136373e+00,NaN,2,1,1,1
6,574,4,142,50,2,2,1,8.170375e-01,NaN,2,0,3,1
6,575,4,35,47,1,1,1,1.549780e+00,NaN,2,0,1,1
6,576,4,90,42,1,2,0,1.085422e+00,NaN,2,0,2,1
6,577,4,137,53,2,2,1,9.356042e-01,NaN,2,0,3,1
6,578,4,80,64,1,1,1,8.235985e-01,NaN,2,0,2,1
6,579,4,77,38,1,1,1,6.123826e-01,NaN,2,0,2,1
6,580,4,87,13,2,2,1,1.225361e+00,NaN,2,0,2,1
6,581,4,89,30,2,2,1,1.254218e+00,NaN,2,0,2,1
6,606,4,33,55,1,2,0,1.896202e+00,NaN,2,0,1,2
6,607,4,85,43,2,2,1,6.817462e-01,NaN,2,0,2,2
6,608,4,83,72,2,2,1,7.321836e-01,NaN,2,1,2,2
6,609,4,88,7,2,2,1,7.324583e-01,NaN,2,0,2,2
6,610,4,64,4,1,1,1,8.127020e-01,NaN,2,0,2,2
6,611,4,84,36,2,2,1,8.977138e-01,NaN,2,0,2,2
6,612,4,12,71,2,2,1,1.291362e+00,NaN,2,0,1,2
6,613,4,24,1,1,1,1,1.261290e+00,NaN,2,0,1,2
6,614,4,101,24,2,2,1,1.072127e+00,NaN,2,0,3,2
6,615,4,115,10,2,2,1,1.531240e+00,NaN,2,0,3,2
6,616,4,59,41,1,1,1,2.019650e+00,NaN,2,0,2,2
6,617,4,76,28,1,1,1,6.163184e-01,NaN,2,0,2,2
6,618,4,74,11,2,2,1,7.095471e-01,NaN,2,0,2,2
6,619,4,91,57,2,2,1,5.907805e-01,NaN,2,0,2,2
6,620,4,38,51,2,2,1,9.888087e-01,NaN,2,0,1,2
6,621,4,131,49,2,2,1,4.986693e-01,NaN,2,0,3,2
6,622,4,49,5,1,1,1,8.042364e-01,NaN,2,0,2,2
6,623,4,67,18,1,1,1,8.093971e-01,NaN,2,0,2,2
6,624,4,2,54,1,1,1,9.189141e-01,NaN,2,1,1,2
6,625,4,26,37,2,2,1,1.552850e+00,NaN,2,1,1,2
6,626,4,141,19,2,2,1,1.135496e+00,NaN,2,0,3,2
6,627,4,44,58,2,2,1,1.392094e+00,NaN,2,0,1,2
6,628,4,25,2,1,1,1,1.077895e+00,NaN,2,0,1,2
6,629,4,8,3,1,1,1,1.192549e+00,NaN,2,1,1,2
6,654,4,118,20,2,2,1,2.869926e+00,NaN,2,0,3,3
6,655,4,119,45,1,1,1,2.024646e+00,NaN,2,0,3,3
6,656,4,100,17,2,2,1,1.333322e+00,NaN,2,0,3,3
6,657,4,140,46,1,1,1,1.157679e+00,NaN,2,0,3,3
6,658,4,130,34,2,2,1,1.044829e+00,NaN,2,0,3,3
6,659,4,72,21,1,1,1,5.603167e-01,NaN,2,0,2,3
6,660,4,121,15,2,2,1,7.119540e-01,NaN,2,0,3,3
6,661,4,52,16,1,1,1,8.569561e-01,NaN,2,0,2,3
6,662,4,36,23,2,2,1,1.108253e+00,NaN,2,0,1,3
6,663,4,16,29,2,2,1,8.935757e-01,NaN,2,0,1,3
6,664,4,120,25,2,2,1,5.517165e-01,NaN,2,0,3,3
6,665,4,60,56,2,2,1,1.287241e+00,NaN,2,0,2,3
6,666,4,116,60,1,1,1,9.293427e-01,NaN,2,1,3,3
6,667,4,55,40,2,2,1,7.372055e-01,NaN,2,1,2,3
6,668,4,41,62,2,1,0,1.937150e+00,NaN,2,1,1,3
6,669,4,138,65,2,2,1,1.033359e+00,NaN,2,1,3,3
6,670,4,125,63,1,1,1,9.335740e-01,NaN,2,0,3,3
6,671,4,136,33,2,2,1,8.698550e-01,NaN,2,0,3,3
6,672,4,122,52,1,1,1,1.176260e+00,NaN,2,0,3,3
6,673,4,20,67,2,2,1,1.406918e+00,NaN,2,1,1,3
6,674,4,78,14,2,2,1,7.566053e-01,NaN,2,0,2,3
6,675,4,93,69,2,2,1,1.395820e-01,NaN,2,1,2,3
6,676,4,29,22,1,1,1,1.388837e+00,NaN,2,0,1,3
6,677,4,34,27,2,1,0,1.641870e+00,NaN,2,0,1,3
6,678,5,5.112000e+01,71,2,1,0,2.034968e+00,1,1,0,2.100000e+00,1
6,679,5,1.113800e+02,51,3,3,1,1.773314e+00,1,1,0,3.100000e+00,1
6,680,5,9.776000e+01,28,3,3,1,9.756547e-01,1,1,0,3.200000e+00,1
6,681,5,8.725000e+01,63,2,2,1,3.135809e-01,1,1,0,2.300000e+00,1
6,682,5,3.185000e+01,43,1,1,1,3.715373e-01,1,1,0,1.200000e+00,1
6,683,5,1.062800e+02,31,3,3,1,5.410682e-01,1,1,0,3.100000e+00,1
6,684,5,9.642000e+01,50,2,2,1,3.347580e-01,1,1,0,2.300000e+00,1
6,685,5,7.125000e+01,2,2,2,1,3.377112e-01,1,1,0,2.100000e+00,1
6,686,5,7.041000e+01,19,2,2,1,2.745017e-01,1,1,0,2.300000e+00,1
6,687,5,1.387000e+01,13,1,1,1,4.116898e-01,1,1,0,1.200000e+00,1
6,688,5,8.322000e+01,52,2,2,1,2.945765e-01,1,1,0,2.300000e+00,1
6,689,5,8.230000e+01,34,2,2,1,4.315750e-01,1,1,0,2.300000e+00,1
6,690,5,3.319000e+01,45,1,1,1,3.613834e-01,1,1,0,1.300000e+00,1
6,691,5,3.319000e+01,45,1,1,1,6.113319e-01,2,1,0,1.300000e+00,1
6,692,5,1.136000e+02,56,3,3,1,4.367813e-01,1,1,0,3.200000e+00,1
6,693,5,1.387000e+01,13,1,1,1,7.267331e-01,2,1,0,1.200000e+00,1
6,694,5,7.626000e+01,35,2,4,0,4.003195e-01,1,1,0,2.300000e+00,1
6,695,5,6.210000e+00,15,1,2,0,1.530701e+00,1,1,0,1.300000e+00,1
6,696,5,7.770000e+00,38,1,1,1,2.847821e-01,1,1,0,1.200000e+00,1
6,697,5,1.083300e+02,55,3,3,1,2.948626e-01,1,1,0,3.100000e+00,1
6,698,5,6.816000e+01,29,2,1,0,3.684621e-01,1,1,0,2.100000e+00,1
6,699,5,1.387000e+01,13,1,1,1,2.987604e-01,3,1,0,1.200000e+00,1
6,700,5,7.125000e+01,2,2,2,1,4.761285e-01,2,1,0,2.100000e+00,1
6,701,5,5.112000e+01,71,2,1,0,2.541979e-01,2,1,0,2.100000e+00,1
6,702,5,1.173400e+02,27,3,3,1,2.639820e-01,1,1,0,3.100000e+00,1
6,703,5,8.040000e+01,46,2,2,1,3.778052e-01,1,1,0,2.300000e+00,1
6,704,5,1.274900e+02,5,3,1,0,9.956042e-01,1,1,0,3.200000e+00,1
6,705,5,7.770000e+00,38,1,1,1,3.654001e-01,2,1,0,1.200000e+00,1
6,706,5,1.146700e+02,18,3,1,0,3.669743e-01,1,1,0,3.200000e+00,1
6,707,5,1.045200e+02,16,3,3,1,6.011351e-01,1,1,0,3.200000e+00,1
6,708,5,4.890000e+00,30,1,1,1,3.470021e-01,1,1,0,1.200000e+00,1
6,709,5,1.103600e+02,23,3,3,1,3.008118e-01,1,1,0,3.100000e+00,1
6,710,5,9.224000e+01,1,2,2,1,4.865646e-01,1,1,0,2.100000e+00,1
6,711,5,1.113800e+02,51,3,3,1,3.523781e-01,2,1,0,3.100000e+00,1
6,712,5,1.346400e+02,4,3,2,0,4.821693e-01,1,1,0,3.200000e+00,1
6,713,5,8.040000e+01,46,2,2,1,4.115908e-01,2,1,0,2.300000e+00,1
6,714,5,4.420000e+01,25,1,1,1,4.132359e-01,1,1,0,1.300000e+00,1
6,715,5,5.837000e+01,53,2,2,1,2.872702e-01,1,1,0,2.300000e+00,1
6,716,5,7.125000e+01,2,2,2,1,3.045058e-01,3,1,0,2.100000e+00,1
6,717,5,1.394400e+02,58,3,3,1,2.745796e-01,1,1,0,3.100000e+00,1
6,718,5,2.378000e+01,14,1,1,1,4.123080e-01,1,1,0,1.200000e+00,1
6,719,5,1.880000e+00,7,1,1,1,3.420983e-01,1,1,0,1.200000e+00,1
6,720,5,1.146700e+02,18,3,3,1,2.716565e-01,2,1,0,3.200000e+00,1
6,721,5,7.041000e+01,19,2,2,1,3.377194e-01,2,1,0,2.300000e+00,1
6,722,5,7.626000e+01,35,2,2,1,2.991878e-01,2,1,0,2.300000e+00,1
6,723,5,5.133000e+01,39,2,3,0,2.928644e-01,1,1,0,2.300000e+00,1
6,724,5,1.103600e+02,23,3,3,1,2.710670e-01,2,1,0,3.100000e+00,1
6,725,5,1.295400e+02,70,3,2,0,1.248569e+00,1,1,0,3.200000e+00,1
6,726,5,1.026600e+02,26,3,2,0,3.465192e-01,1,1,0,3.200000e+00,1
6,727,5,5.837000e+01,53,2,2,1,2.681197e-01,2,1,0,2.300000e+00,1
6,728,5,1.346400e+02,4,3,4,0,2.701856e-01,2,1,0,3.200000e+00,1
6,729,5,9.224000e+01,1,2,2,1,2.556781e-01,2,1,0,2.100000e+00,1
6,730,5,1.136000e+02,56,3,3,1,4.014937e-01,2,1,0,3.200000e+00,1
6,731,5,1.274900e+02,5,3,2,0,3.473668e-01,2,1,0,3.200000e+00,1
6,732,5,3.319000e+01,45,1,1,1,4.368456e-01,3,1,0,1.300000e+00,1
6,733,5,1.880000e+00,7,1,1,1,1.054702e+00,2,1,0,1.200000e+00,1
6,734,5,1.980000e+01,64,1,2,0,3.445756e-01,1,1,0,1.200000e+00,1
6,735,5,4.618000e+01,20,1,1,1,5.219563e-01,1,1,0,1.300000e+00,1
6,736,5,8.725000e+01,63,2,2,1,3.714531e-01,2,1,0,2.300000e+00,1
6,737,5,9.642000e+01,50,2,2,1,3.572481e-01,2,1,0,2.300000e+00,1
6,738,5,1.136000e+02,56,3,3,1,2.872425e-01,3,1,0,3.200000e+00,1
6,739,5,1.234600e+02,59,3,2,0,1.721047e+00,1,1,0,3.100000e+00,1
6,740,5,9.224000e+01,1,2,2,1,2.909962e-01,3,1,0,2.100000e+00,1
6,741,5,3.185000e+01,43,1,1,1,3.169302e-01,2,1,0,1.200000e+00,1
6,742,5,9.421000e+01,66,2,2,1,2.467757e-01,1,1,0,2.100000e+00,1
6,743,5,7.770000e+00,38,1,1,1,3.368359e-01,3,1,0,1.200000e+00,1
6,744,5,9.776000e+01,28,3,3,1,1.781517e-01,2,1,0,3.200000e+00,1
6,745,5,1.433500e+02,47,3,1,0,2.921810e-01,1,1,0,3.100000e+00,1
6,746,5,4.420000e+01,25,1,1,1,4.380825e-01,2,1,0,1.300000e+00,1
6,747,5,5.837000e+01,53,2,2,1,3.518972e-01,3,1,0,2.300000e+00,1
6,748,5,1.234600e+02,59,3,3,1,2.897460e-01,2,1,0,3.100000e+00,1
6,749,5,1.026600e+02,26,3,3,1,4.674388e-01,2,1,0,3.200000e+00,1
6,750,5,1.274900e+02,5,3,3,1,3.411496e-01,3,1,0,3.200000e+00,1
6,751,5,1.387000e+01,13,1,1,1,3.672942e-01,4,1,0,1.200000e+00,1
6,752,5,5.436000e+01,33,2,3,0,2.730752e-01,1,1,0,2.300000e+00,1
6,753,5,1.980000e+01,64,1,1,1,7.784796e-01,2,1,0,1.200000e+00,1
6,754,5,1.433500e+02,47,3,3,1,3.003741e-01,2,1,0,3.100000e+00,1
6,755,5,7.626000e+01,35,2,2,1,4.623168e-01,3,1,0,2.300000e+00,1
6,756,5,1.322900e+02,22,3,3,1,7.361849e-01,1,1,0,3.100000e+00,1
6,757,5,1.026600e+02,26,3,3,1,3.551641e-01,3,1,0,3.200000e+00,1
6,758,5,9.421000e+01,66,2,2,1,4.438068e-01,2,1,0,2.100000e+00,1
6,759,5,1.354000e+02,68,3,3,1,3.508555e-01,1,1,0,3.100000e+00,1
6,760,5,6.210000e+00,15,1,2,0,1.279825e+00,2,1,0,1.300000e+00,1
6,761,5,1.173400e+02,27,3,1,0,3.614429e-01,2,1,0,3.100000e+00,1
6,762,5,9.776000e+01,28,3,3,1,2.667823e-01,3,1,0,3.200000e+00,1
6,763,5,1.247200e+02,21,3,2,0,2.932357e-01,1,1,0,3.200000e+00,1
6,764,5,1.346400e+02,4,3,3,1,5.350098e-01,3,1,0,3.200000e+00,1
6,765,5,2.315000e+01,10,1,1,1,1.801239e+00,1,1,0,1.300000e+00,1
6,766,5,4.784000e+01,36,1,1,1,2.916093e-01,1,1,0,1.200000e+00,1
6,767,5,1.295400e+02,70,3,3,1,3.569755e-01,2,1,0,3.200000e+00,1
6,768,5,1.083300e+02,55,3,3,1,3.907029e-01,2,1,0,3.100000e+00,1
6,769,5,7.131000e+01,49,2,2,1,8.003498e-01,1,1,0,2.300000e+00,1
6,770,5,8.230000e+01,34,2,2,1,4.825738e-01,2,1,0,2.300000e+00,1
6,771,5,6.816000e+01,29,2,2,1,3.643711e-01,2,1,0,2.100000e+00,1
6,772,5,1.322900e+02,22,3,3,1,3.976472e-01,2,1,0,3.100000e+00,1
6,773,5,1.591000e+01,57,1,1,1,2.636243e-01,1,1,0,1.200000e+00,1
6,774,5,5.436000e+01,33,2,3,0,2.573540e-01,2,1,0,2.300000e+00,1
6,775,5,1.146700e+02,18,3,3,1,2.589937e-01,3,1,0,3.200000e+00,1
6,776,5,2.378000e+01,14,1,1,1,4.622322e-01,2,1,0,1.200000e+00,1
6,777,5,1.394400e+02,58,3,3,1,3.103224e-01,2,1,0,3.100000e+00,1
6,778,5,4.001000e+01,24,1,1,1,3.447651e-01,1,1,0,1.300000e+00,1
6,779,5,9.224000e+01,1,2,2,1,2.901366e-01,4,1,0,2.100000e+00,1
6,780,5,4.001000e+01,24,1,1,1,3.878208e-01,2,1,0,1.300000e+00,1
6,781,5,4.618000e+01,20,1,1,1,3.015987e-01,2,1,0,1.300000e+00,1
6,782,5,6.210000e+00,15,1,2,0,4.956544e-01,3,1,0,1.300000e+00,1
6,783,5,1.234600e+02,59,3,3,1,2.657762e-01,3,1,0,3.100000e+00,1
6,784,5,4.890000e+00,30,1,1,1,2.670177e-01,2,1,0,1.200000e+00,1
6,785,5,3.319000e+01,45,1,1,1,5.252939e-01,4,1,0,1.300000e+00,1
6,786,5,1.247200e+02,21,3,3,1,1.554521e-04,2,1,0,3.200000e+00,1
6,787,5,4.784000e+01,36,1,1,1,5.768629e-01,2,1,0,1.200000e+00,1
6,788,5,3.185000e+01,43,1,1,1,3.549580e-01,3,1,0,1.200000e+00,1
6,789,5,7.131000e+01,49,2,2,1,3.405685e-01,2,1,0,2.300000e+00,1
6,790,5,2.378000e+01,14,1,1,1,2.226888e-01,3,1,0,1.200000e+00,1
6,791,5,1.125900e+02,41,3,2,0,3.200969e-01,1,1,0,3.200000e+00,1
6,792,5,2.378000e+01,14,1,1,1,2.817494e-01,4,1,0,1.200000e+00,1
6,793,5,1.062800e+02,31,3,1,0,1.571516e+00,2,1,0,3.100000e+00,1
6,794,5,1.146700e+02,18,3,3,1,2.780430e-01,4,1,0,3.200000e+00,1
6,795,5,1.026600e+02,26,3,3,1,2.635890e-01,4,1,0,3.200000e+00,1
6,796,5,1.322900e+02,22,3,3,1,3.695013e-01,3,1,0,3.100000e+00,1
6,797,5,2.315000e+01,10,1,2,0,2.910657e-01,2,1,0,1.300000e+00,1
6,798,5,8.725000e+01,63,2,2,1,5.888140e-01,3,1,0,2.300000e+00,1
6,799,5,1.394400e+02,58,3,1,0,3.825934e-01,3,1,0,3.100000e+00,1
6,800,5,5.112000e+01,71,2,1,0,4.082445e-01,3,1,0,2.100000e+00,1
6,801,5,9.642000e+01,50,2,2,1,2.496816e-01,3,1,0,2.300000e+00,1
6,802,5,1.287400e+02,11,3,1,0,2.672842e-01,1,1,0,3.200000e+00,1
6,803,5,4.618000e+01,20,1,1,1,5.016676e-01,3,1,0,1.300000e+00,1
6,804,5,5.133000e+01,39,2,2,1,5.672430e-01,2,1,0,2.300000e+00,1
6,805,5,18,17,1,1,1,2.730142e-01,1,1,0,1.300000e+00,1
6,806,5,4.618000e+01,20,1,1,1,2.665643e-01,4,1,0,1.300000e+00,1
6,807,5,2.315000e+01,10,1,1,1,2.129095e-01,3,1,0,1.300000e+00,1
6,808,5,1.062800e+02,31,3,3,1,3.664729e-01,3,1,0,3.100000e+00,1
6,809,5,1.354000e+02,68,3,3,1,2.966354e-01,2,1,0,3.100000e+00,1
6,810,5,1.103600e+02,23,3,3,1,3.778215e-01,3,1,0,3.100000e+00,1
6,811,5,1.173400e+02,27,3,3,1,4.279960e-01,3,1,0,3.100000e+00,1
6,812,5,4.890000e+00,30,1,1,1,3.892610e-01,3,1,0,1.200000e+00,1
6,813,5,9.642000e+01,50,2,2,1,2.953631e-01,4,1,0,2.300000e+00,1
6,814,5,1.247200e+02,21,3,3,1,2.647882e-01,3,1,0,3.200000e+00,1
6,815,5,1.045200e+02,16,3,3,1,1.410604e+00,2,1,0,3.200000e+00,1
6,816,5,8.040000e+01,46,2,2,1,3.084697e-01,3,1,0,2.300000e+00,1
6,817,5,1.591000e+01,57,1,1,1,2.468228e-01,2,1,0,1.200000e+00,1
6,818,5,4.890000e+00,30,1,1,1,3.363804e-01,4,1,0,1.200000e+00,1
6,819,5,1.045200e+02,16,3,3,1,2.578880e-01,3,1,0,3.200000e+00,1
6,820,5,7.125000e+01,2,2,2,1,2.758268e-01,4,1,0,2.100000e+00,1
6,821,5,18,17,1,1,1,3.014411e-01,2,1,0,1.300000e+00,1
6,822,5,18,17,1,1,1,3.598869e-01,3,1,0,1.300000e+00,1
6,823,5,1.433500e+02,47,3,3,1,1.409720e+00,3,1,0,3.100000e+00,1
6,824,5,1.591000e+01,57,1,1,1,4.357176e-01,3,1,0,1.200000e+00,1
6,825,5,1.045200e+02,16,3,3,1,2.619445e-01,4,1,0,3.200000e+00,1
6,826,5,4.290000e+01,42,1,1,1,2.794222e-01,1,1,0,1.200000e+00,1
6,827,5,8.040000e+01,46,2,2,1,3.210193e-01,4,1,0,2.300000e+00,1
6,828,5,7.041000e+01,19,2,0,0,2.500322e+00,3,1,0,2.300000e+00,1
6,829,5,1.062800e+02,31,3,3,1,3.652930e-01,4,1,0,3.100000e+00,1
6,830,5,8.725000e+01,63,2,0,0,2.500121e+00,4,1,0,2.300000e+00,1
6,831,5,1.136000e+02,56,3,3,1,9.533574e-01,4,1,0,3.200000e+00,1
6,832,5,5.133000e+01,39,2,3,0,1.178944e+00,3,1,0,2.300000e+00,1
6,833,5,1.083300e+02,55,3,3,1,3.244097e-01,3,1,0,3.100000e+00,1
6,834,5,3.185000e+01,43,1,1,1,4.305825e-01,4,1,0,1.200000e+00,1
6,835,5,4.290000e+01,42,1,1,1,3.522975e-01,2,1,0,1.200000e+00,1
6,836,5,8.230000e+01,34,2,3,0,1.378081e+00,3,1,0,2.300000e+00,1
6,837,5,4.784000e+01,36,1,1,1,3.238265e-01,3,1,0,1.200000e+00,1
6,838,5,1.274900e+02,5,3,1,0,1.125365e+00,4,1,0,3.200000e+00,1
6,839,5,8.322000e+01,52,2,2,1,3.511486e-01,2,1,0,2.300000e+00,1
6,840,5,1.322900e+02,22,3,3,1,3.053271e-01,4,1,0,3.100000e+00,1
6,841,5,1.287400e+02,11,3,3,1,7.468812e-01,2,1,0,3.200000e+00,1
6,842,5,4.784000e+01,36,1,1,1,3.406718e-01,4,1,0,1.200000e+00,1
6,843,5,9.776000e+01,28,3,3,1,2.705596e-01,4,1,0,3.200000e+00,1
6,844,5,1.354000e+02,68,3,3,1,2.565912e-01,3,1,0,3.100000e+00,1
6,845,5,1.880000e+00,7,1,1,1,1.265989e+00,3,1,0,1.200000e+00,1
6,846,5,1.295400e+02,70,3,3,1,2.594519e-01,3,1,0,3.200000e+00,1
6,847,5,2.315000e+01,10,1,1,1,2.780494e-01,4,1,0,1.300000e+00,1
6,848,5,1.287400e+02,11,3,3,1,4.473858e-01,3,1,0,3.200000e+00,1
6,849,5,1.980000e+01,64,1,2,0,1.065170e+00,3,1,0,1.200000e+00,1
6,850,5,6.816000e+01,29,2,2,1,3.147517e-01,3,1,0,2.100000e+00,1
6,851,5,1.433500e+02,47,3,3,1,3.086954e-01,4,1,0,3.100000e+00,1
6,852,5,1.346400e+02,4,3,3,1,2.387598e-01,4,1,0,3.200000e+00,1
6,853,5,8.322000e+01,52,2,2,1,3.201077e-01,3,1,0,2.300000e+00,1
6,854,5,1.591000e+01,57,1,1,1,3.540419e-01,4,1,0,1.200000e+00,1
6,855,5,7.041000e+01,19,2,2,1,3.557687e-01,4,1,0,2.300000e+00,1
6,856,5,5.837000e+01,53,2,2,1,3.492416e-01,4,1,0,2.300000e+00,1
6,857,5,4.420000e+01,25,1,1,1,2.709949e-01,3,1,0,1.300000e+00,1
6,858,5,7.626000e+01,35,2,2,1,3.367758e-01,4,1,0,2.300000e+00,1
6,859,5,8.230000e+01,34,2,2,1,3.543446e-01,4,1,0,2.300000e+00,1
6,860,5,6.210000e+00,15,1,1,1,3.159570e-01,4,1,0,1.300000e+00,1
6,861,5,9.421000e+01,66,2,2,1,4.219282e-01,3,1,0,2.100000e+00,1
6,862,5,5.436000e+01,33,2,3,0,2.797304e-01,3,1,0,2.300000e+00,1
6,863,5,4.001000e+01,24,1,1,1,3.932517e-01,3,1,0,1.300000e+00,1
6,864,5,4.290000e+01,42,1,1,1,9.549132e-01,3,1,0,1.200000e+00,1
6,865,5,9.421000e+01,66,2,2,1,5.649951e-01,4,1,0,2.100000e+00,1
6,866,5,1.125900e+02,41,3,2,0,3.667415e-01,2,1,0,3.200000e+00,1
6,867,5,7.770000e+00,38,1,1,1,3.205189e-01,4,1,0,1.200000e+00,1
6,868,5,1.103600e+02,23,3,3,1,3.623566e-01,4,1,0,3.100000e+00,1
6,869,5,4.290000e+01,42,1,1,1,2.760617e-01,4,1,0,1.200000e+00,1
6,870,5,1.234600e+02,59,3,3,1,1.822939e-01,4,1,0,3.100000e+00,1
6,871,5,7.131000e+01,49,2,2,1,3.200163e-01,3,1,0,2.300000e+00,1
6,872,5,1.354000e+02,68,3,3,1,2.735047e-01,4,1,0,3.100000e+00,1
6,873,5,1.125900e+02,41,3,3,1,2.908752e-01,3,1,0,3.200000e+00,1
6,874,5,1.287400e+02,11,3,3,1,3.650388e-01,4,1,0,3.200000e+00,1
6,875,5,1.113800e+02,51,3,3,1,3.105527e-01,3,1,0,3.100000e+00,1
6,876,5,7.131000e+01,49,2,2,1,3.045541e-01,4,1,0,2.300000e+00,1
6,877,5,6.816000e+01,29,2,2,1,2.419951e-01,4,1,0,2.100000e+00,1
6,878,5,1.125900e+02,41,3,3,1,4.199028e-01,4,1,0,3.200000e+00,1
6,879,5,1.880000e+00,7,1,1,1,2.940833e-01,4,1,0,1.200000e+00,1
6,880,5,18,17,1,1,1,5.038982e-01,4,1,0,1.300000e+00,1
6,881,5,1.083300e+02,55,3,3,1,2.576181e-01,4,1,0,3.100000e+00,1
6,882,5,5.112000e+01,71,2,2,1,2.350414e-01,4,1,0,2.100000e+00,1
6,883,5,1.173400e+02,27,3,3,1,7.010790e-01,4,1,0,3.100000e+00,1
6,884,5,1.113800e+02,51,3,3,1,3.841627e-01,4,1,0,3.100000e+00,1
6,885,5,4.420000e+01,25,1,1,1,1.825461e+00,4,1,0,1.300000e+00,1
6,886,5,4.001000e+01,24,1,1,1,2.754239e-01,4,1,0,1.300000e+00,1
6,887,5,1.980000e+01,64,1,3,0,6.856398e-01,4,1,0,1.200000e+00,1
6,888,5,1.247200e+02,21,3,3,1,2.555130e-01,4,1,0,3.200000e+00,1
6,889,5,5.133000e+01,39,2,2,1,2.896222e-01,4,1,0,2.300000e+00,1
6,890,5,1.394400e+02,58,3,3,1,2.512524e-01,4,1,0,3.100000e+00,1
6,891,5,5.436000e+01,33,2,2,1,3.489225e-01,4,1,0,2.300000e+00,1
6,892,5,8.322000e+01,52,2,2,1,3.905121e-01,4,1,0,2.300000e+00,1
6,893,5,1.295400e+02,70,3,1,0,1.464634e+00,4,1,0,3.200000e+00,1
6,894,6,84,36,2,1,0,2.143039e+00,NaN,2,0,2,1
6,895,6,33,55,1,2,0,1.432275e+00,NaN,2,0,1,1
6,896,6,118,20,1,2,0,1.165795e+00,NaN,2,0,3,1
6,897,6,28,31,2,2,1,9.421106e-01,NaN,2,0,1,1
6,898,6,34,27,1,1,1,1.111242e+00,NaN,2,0,1,1
6,899,6,27,32,2,2,1,9.295739e-01,NaN,2,1,1,1
6,900,6,49,5,2,2,1,7.866896e-01,NaN,2,0,2,1
6,901,6,16,29,1,1,1,1.146036e+00,NaN,2,0,1,1
6,902,6,89,30,1,2,0,7.140697e-01,NaN,2,0,2,1
6,903,6,136,33,1,2,0,1.316326e+00,NaN,2,0,3,1
6,904,6,59,41,1,1,1,9.345846e-01,NaN,2,0,2,1
6,905,6,137,53,2,2,1,8.956721e-01,NaN,2,0,3,1
6,906,6,98,9,1,1,1,9.704952e-01,NaN,2,1,3,1
6,907,6,138,65,1,1,1,1.234178e+00,NaN,2,1,3,1
6,908,6,85,43,2,2,1,7.359081e-01,NaN,2,0,2,1
6,909,6,100,17,2,2,1,1.001428e+00,NaN,2,0,3,1
6,910,6,109,44,1,1,1,7.916019e-01,NaN,2,1,3,1
6,911,6,115,10,2,1,0,9.911610e-01,NaN,2,0,3,1
6,912,6,52,16,1,1,1,9.417441e-01,NaN,2,0,2,1
6,913,6,99,61,2,2,1,8.149502e-01,NaN,2,1,3,1
6,914,6,54,70,2,1,0,1.452983e+00,NaN,2,0,2,1
6,915,6,8,3,2,2,1,9.453413e-01,NaN,2,1,1,1
6,916,6,78,14,1,1,1,8.420372e-01,NaN,2,0,2,1
6,917,6,116,60,2,2,1,8.712573e-01,NaN,2,1,3,1
6,918,6,91,57,1,1,1,6.674926e-01,NaN,2,0,2,1
6,919,6,25,2,2,2,1,1.087578e+00,NaN,2,0,1,1
6,920,6,131,49,2,2,1,7.787694e-01,NaN,2,0,3,1
6,921,6,140,46,1,1,1,1.482345e+00,NaN,2,0,3,1
6,922,6,35,47,2,2,1,1.013661e+00,NaN,2,0,1,1
6,923,6,142,50,2,2,1,1.043776e+00,NaN,2,0,3,1
6,924,6,120,25,1,1,1,1.569169e+00,NaN,2,0,3,1
6,925,6,46,59,1,1,1,1.729201e+00,NaN,2,0,1,1
6,926,6,74,11,1,1,1,8.022330e-01,NaN,2,0,2,1
6,927,6,24,1,2,2,1,8.086736e-01,NaN,2,0,1,1
6,928,6,44,58,2,1,0,1.582855e+00,NaN,2,0,1,1
6,929,6,103,48,2,2,1,7.980304e-01,NaN,2,1,3,1
6,930,6,26,37,2,2,1,1.509098e+00,NaN,2,1,1,1
6,931,6,126,35,2,2,1,1.023579e+00,NaN,2,0,3,1
6,932,6,11,6,2,2,1,9.489930e-01,NaN,2,1,1,1
6,933,6,93,69,2,1,0,9.415340e-01,NaN,2,1,2,1
6,934,6,77,38,2,2,1,1.134326e+00,NaN,2,0,2,1
6,935,6,14,8,1,1,1,9.918914e-01,NaN,2,1,1,1
6,936,6,55,40,2,2,1,6.863111e-01,NaN,2,1,2,1
6,937,6,36,23,1,1,1,8.734868e-01,NaN,2,0,1,1
6,938,6,90,42,2,2,1,9.413013e-01,NaN,2,0,2,1
6,939,6,83,72,1,1,1,7.507862e-01,NaN,2,1,2,1
6,940,6,87,13,2,2,1,7.112314e-01,NaN,2,0,2,1
6,941,6,29,22,1,1,1,1.265882e+00,NaN,2,0,1,1
6,942,6,2,54,2,1,0,1.461676e+00,NaN,2,1,1,1
6,943,6,133,39,2,2,1,7.305014e-01,NaN,2,0,3,1
6,944,6,122,52,1,1,1,1.115398e+00,NaN,2,0,3,1
6,945,6,130,34,1,2,0,9.662213e-01,NaN,2,0,3,1
6,946,6,141,19,1,2,0,6.941594e-01,NaN,2,0,3,1
6,947,6,60,56,1,1,1,8.573530e-01,NaN,2,0,2,1
6,948,6,119,45,2,1,0,9.253628e-01,NaN,2,0,3,1
6,949,6,9,12,2,1,0,9.113139e-01,NaN,2,1,1,1
6,950,6,64,4,1,1,1,5.933818e-01,NaN,2,0,2,1
6,951,6,66,26,1,1,1,2.552136e+00,NaN,2,0,2,1
6,952,6,125,63,2,2,1,3.457892e+00,NaN,2,0,3,1
6,953,6,76,28,1,1,1,8.607660e-01,NaN,2,0,2,1
6,954,6,20,67,1,1,1,1.192958e+00,NaN,2,1,1,1
6,955,6,72,21,2,2,1,1.255704e+00,NaN,2,0,2,1
6,956,6,101,24,2,2,1,9.885790e-01,NaN,2,0,3,1
6,957,6,67,18,1,1,1,7.952045e-01,NaN,2,0,2,1
6,958,6,41,62,2,1,0,1.323400e+00,NaN,2,1,1,1
6,959,6,88,7,2,2,1,7.556819e-01,NaN,2,0,2,1
6,960,6,80,64,1,1,1,7.803940e-01,NaN,2,0,2,1
6,961,6,21,66,2,2,1,7.552684e-01,NaN,2,0,1,1
6,962,6,38,51,1,1,1,1.963780e+00,NaN,2,0,1,1
6,963,6,40,68,1,1,1,1.115294e+00,NaN,2,0,1,1
6,964,6,121,15,2,2,1,8.852903e-01,NaN,2,0,3,1
6,965,6,12,71,2,2,1,1.712739e+00,NaN,2,0,1,1
6,966,6,61,3,1,1,1,7.234300e-01,NaN,1,1,2,1
6,967,6,58,8,1,1,1,6.997563e-01,NaN,1,1,2,1
6,968,6,18,60,2,2,1,8.225906e-01,NaN,1,1,1,1
6,969,6,10,44,2,2,1,9.486556e-01,NaN,1,1,1,1
6,970,6,42,42,1,1,1,7.006272e-01,NaN,1,0,1,1
6,971,6,111,51,2,1,0,1.047545e+00,NaN,1,0,3,1
6,972,6,53,33,2,2,1,8.524959e-01,NaN,1,0,2,1
6,973,6,43,25,2,2,1,1.121393e+00,NaN,1,0,1,1
6,974,6,124,21,2,2,1,1.451177e+00,NaN,1,0,3,1
6,975,6,15,57,2,2,1,1.271506e+00,NaN,1,0,1,1
6,976,6,127,5,1,1,1,1.363545e+00,NaN,1,0,3,1
6,977,6,81,34,2,1,0,1.059347e+00,NaN,1,0,2,1
6,978,6,96,67,2,2,1,1.015645e+00,NaN,1,1,2,1
6,979,6,19,64,1,1,1,1.189286e+00,NaN,1,0,1,1
6,980,6,4,30,2,2,1,1.348768e+00,NaN,1,0,1,1
6,981,6,3,48,1,2,0,1.365448e+00,NaN,1,1,1,1
6,982,6,65,54,2,2,1,8.452673e-01,NaN,1,1,2,1
6,983,6,117,27,2,2,1,1.274054e+00,NaN,1,0,3,1
6,984,6,6,9,2,2,1,1.629683e+00,NaN,1,1,1,1
6,985,6,132,22,1,1,1,2.178974e+00,NaN,1,0,3,1
6,986,6,47,36,2,2,1,1.290440e+00,NaN,1,0,1,1
6,987,6,39,24,1,1,1,1.205170e+00,NaN,1,0,1,1
6,988,6,73,65,2,2,1,6.997590e-01,NaN,1,1,2,1
6,989,6,94,66,2,2,1,8.943216e-01,NaN,1,0,2,1
6,990,6,70,49,1,1,1,1.737170e+00,NaN,1,0,2,1
6,991,6,106,31,1,1,1,1.418604e+00,NaN,1,0,3,1
6,992,6,102,26,1,2,0,1.432717e+00,NaN,1,0,3,1
6,993,6,79,46,2,2,1,1.142247e+00,NaN,1,0,2,1
6,994,6,105,40,1,2,0,1.015480e+00,NaN,1,1,3,1
6,995,6,114,18,1,1,1,1.293629e+00,NaN,1,0,3,1
6,996,6,13,13,2,2,1,7.527546e-01,NaN,1,0,1,1
6,997,6,92,1,1,1,1,6.251855e-01,NaN,1,0,2,1
6,998,6,1,7,1,2,0,1.174835e+00,NaN,1,0,1,1
6,999,6,63,12,2,2,1,7.987023e-01,NaN,1,1,2,1
6,1000,6,107,62,2,2,1,1.941178e+00,NaN,1,1,3,1
6,1001,6,108,55,2,2,1,1.126092e+00,NaN,1,0,3,1
6,1002,6,95,50,1,2,0,1.135955e+00,NaN,1,0,2,1
6,1003,6,135,68,2,2,1,6.890144e-01,NaN,1,0,3,1
6,1004,6,86,63,1,1,1,8.120235e-01,NaN,1,0,2,1
6,1005,6,139,58,2,2,1,8.418947e-01,NaN,1,0,3,1
6,1006,6,22,10,2,2,1,1.079439e+00,NaN,1,0,1,1
6,1007,6,134,4,1,2,0,8.824478e-01,NaN,1,0,3,1
6,1008,6,110,23,1,1,1,1.390109e+00,NaN,1,0,3,1
6,1009,6,45,20,2,2,1,1.628928e+00,NaN,1,0,1,1
6,1010,6,17,17,2,2,1,1.618608e+00,NaN,1,0,1,1
6,1011,6,51,71,2,2,1,7.923701e-01,NaN,1,0,2,1
6,1012,6,32,45,1,1,1,8.798809e-01,NaN,1,0,1,1
6,1013,6,112,41,1,1,1,8.192319e-01,NaN,1,0,3,1
6,1014,6,68,29,2,2,1,6.172575e-01,NaN,1,0,2,1
6,1015,6,37,61,1,2,0,1.127512e+00,NaN,1,1,1,1
6,1016,6,71,2,2,2,1,8.329654e-01,NaN,1,0,2,1
6,1017,6,129,70,2,2,1,1.391329e+00,NaN,1,0,3,1
6,1018,6,30,69,1,1,1,1.349890e+00,NaN,1,1,1,1
6,1019,6,48,72,2,1,0,1.142359e+00,NaN,1,1,1,1
6,1020,6,143,47,2,1,0,1.527122e+00,NaN,1,0,3,1
6,1021,6,56,6,2,2,1,8.407776e-01,NaN,1,1,2,1
6,1022,6,123,59,1,1,1,2.030200e+00,NaN,1,0,3,1
6,1023,6,62,37,2,2,1,5.389706e-01,NaN,1,1,2,1
6,1024,6,31,43,2,2,1,9.721602e-01,NaN,1,0,1,1
6,1025,6,7,38,1,1,1,1.235937e+00,NaN,1,0,1,1
6,1026,6,128,11,2,1,0,1.169298e+00,NaN,1,0,3,1
6,1027,6,5,15,2,2,1,1.456982e+00,NaN,1,0,1,1
6,1028,6,69,19,2,2,1,8.611647e-01,NaN,1,0,2,1
6,1029,6,97,28,1,1,1,1.233597e+00,NaN,1,0,3,1
6,1030,6,104,16,1,1,1,1.055333e+00,NaN,1,0,3,1
6,1031,6,57,53,2,2,1,7.073234e-01,NaN,1,0,2,1
6,1032,6,82,52,2,2,1,7.656882e-01,NaN,1,0,2,1
6,1033,6,75,35,2,1,0,1.365314e+00,NaN,1,0,2,1
6,1034,6,144,32,2,2,1,1.413929e+00,NaN,1,1,3,1
6,1035,6,113,56,2,2,1,1.003747e+00,NaN,1,0,3,1
6,1036,6,50,39,1,1,1,1.978192e+00,NaN,1,0,2,1
6,1037,6,23,14,2,1,0,1.353535e+00,NaN,1,0,1,1
