Subject,Trial,Cond,ImageNum,CueNum,Correct,Resp,Accuracy,RT,CueRep,ImageType,Baseline,Category,Block
15,1,1,102,NaN,NaN,2,NaN,3.374334e+00,NaN,1,0,3,1
15,2,1,52,NaN,NaN,2,NaN,1.894814e+00,NaN,0,0,2,1
15,3,1,121,NaN,NaN,1,NaN,6.079232e-02,NaN,2,1,3,1
15,4,1,105,NaN,NaN,2,NaN,1.413039e+00,NaN,1,0,3,1
15,5,1,31,NaN,NaN,1,NaN,4.625339e-01,NaN,1,1,1,1
15,6,1,20,NaN,NaN,2,NaN,7.823981e-02,NaN,0,0,1,1
15,7,1,103,NaN,NaN,1,NaN,5.010121e-01,NaN,2,0,3,1
15,8,1,48,NaN,NaN,2,NaN,1.379421e+00,NaN,0,0,1,1
15,9,1,26,NaN,NaN,2,NaN,3.582003e-01,NaN,1,0,1,1
15,10,1,11,NaN,NaN,1,NaN,8.242700e-02,NaN,0,0,1,1
15,11,1,40,NaN,NaN,2,NaN,3.779122e-01,NaN,0,0,1,1
15,12,1,37,NaN,NaN,1,NaN,3.322266e-01,NaN,1,0,1,1
15,13,1,30,NaN,NaN,2,NaN,1.234543e-04,NaN,0,1,1,1
15,14,1,7,NaN,NaN,1,NaN,3.157966e-01,NaN,1,0,1,1
15,15,1,108,NaN,NaN,2,NaN,4.577261e-01,NaN,2,0,3,1
15,16,1,80,NaN,NaN,1,NaN,4.497037e-01,NaN,0,1,2,1
15,17,1,136,NaN,NaN,1,NaN,2.899210e-01,NaN,0,0,3,1
15,18,1,4,NaN,NaN,1,NaN,3.288344e-01,NaN,0,0,1,1
15,19,1,37,NaN,NaN,2,NaN,2.534024e-01,NaN,0,0,1,1
15,20,1,86,NaN,NaN,1,NaN,2.935398e-01,NaN,0,0,2,1
15,21,1,123,NaN,NaN,2,NaN,1.244147e-01,NaN,0,0,3,1
15,22,1,13,NaN,NaN,2,NaN,2.739749e-01,NaN,0,0,1,1
15,23,1,131,NaN,NaN,2,NaN,3.853273e-01,NaN,0,1,3,1
15,24,1,93,NaN,NaN,1,NaN,1.961785e-01,NaN,2,1,2,1
15,25,1,98,NaN,NaN,2,NaN,2.384095e-01,NaN,0,0,3,1
15,26,1,106,NaN,NaN,1,NaN,4.552875e-01,NaN,2,1,3,1
15,27,1,113,NaN,NaN,2,NaN,3.994409e-01,NaN,1,0,3,1
15,28,1,80,NaN,NaN,1,NaN,2.974052e-01,NaN,1,1,2,1
15,29,1,95,NaN,NaN,1,NaN,2.320445e-01,NaN,0,0,2,1
15,30,1,72,NaN,NaN,1,NaN,2.411967e-01,NaN,2,0,2,1
15,31,1,115,NaN,NaN,1,NaN,2.418750e-01,NaN,1,0,3,1
15,32,1,23,NaN,NaN,2,NaN,2.821826e-01,NaN,1,0,1,1
15,33,1,52,NaN,NaN,1,NaN,1.617389e+00,NaN,2,0,2,1
15,34,1,42,NaN,NaN,2,NaN,4.187553e-01,NaN,2,0,1,1
15,35,1,116,NaN,NaN,1,NaN,2.288308e-01,NaN,2,0,3,1
15,36,1,53,NaN,NaN,1,NaN,1.975676e-01,NaN,0,0,2,1
15,37,1,29,NaN,NaN,1,NaN,2.161132e-01,NaN,2,0,1,1
15,38,1,71,NaN,NaN,1,NaN,2.260438e-01,NaN,0,0,2,1
15,39,1,118,NaN,NaN,1,NaN,2.190803e-01,NaN,0,0,3,1
15,40,1,59,NaN,NaN,1,NaN,4.615801e-03,NaN,1,0,2,1
15,41,1,79,NaN,NaN,1,NaN,2.709383e-01,NaN,1,0,2,1
15,42,1,54,NaN,NaN,1,NaN,2.460661e-01,NaN,0,0,2,1
15,43,1,138,NaN,NaN,1,NaN,2.067521e-01,NaN,0,0,3,1
15,44,1,19,NaN,NaN,2,NaN,2.565772e-01,NaN,1,1,1,1
15,45,1,3,NaN,NaN,1,NaN,1.184838e+00,NaN,2,0,1,1
15,46,1,92,NaN,NaN,1,NaN,2.515962e-01,NaN,2,1,2,1
15,47,1,132,NaN,NaN,2,NaN,3.478612e-01,NaN,2,0,3,1
15,48,1,36,NaN,NaN,2,NaN,1.920269e-01,NaN,1,0,1,1
15,49,1,33,NaN,NaN,2,NaN,2.269219e-01,NaN,1,0,1,1
15,50,1,107,NaN,NaN,1,NaN,2.763896e-01,NaN,0,0,3,1
15,51,1,132,NaN,NaN,2,NaN,2.674955e-01,NaN,0,0,3,1
15,52,1,55,NaN,NaN,1,NaN,1.474279e-01,NaN,2,0,2,1
15,53,1,124,NaN,NaN,2,NaN,2.637925e-01,NaN,2,0,3,1
15,54,1,143,NaN,NaN,2,NaN,2.793082e-01,NaN,0,1,3,1
15,55,1,101,NaN,NaN,2,NaN,3.105028e-01,NaN,0,0,3,1
15,56,1,122,NaN,NaN,2,NaN,3.085789e-01,NaN,2,0,3,1
15,57,1,34,NaN,NaN,1,NaN,2.746700e-01,NaN,2,1,1,1
15,58,1,117,NaN,NaN,2,NaN,1.243598e-04,NaN,2,0,3,1
15,59,1,59,NaN,NaN,1,NaN,5.001681e-01,NaN,0,0,2,1
15,60,1,102,NaN,NaN,2,NaN,2.585567e-01,NaN,0,0,3,1
15,61,1,45,NaN,NaN,2,NaN,2.346862e-01,NaN,0,1,1,1
15,62,1,74,NaN,NaN,1,NaN,5.718253e-01,NaN,2,0,2,1
15,63,1,82,NaN,NaN,1,NaN,2.794678e-01,NaN,2,0,2,1
15,64,1,44,NaN,NaN,1,NaN,1.822761e-01,NaN,1,0,1,1
15,65,1,28,NaN,NaN,2,NaN,1.930049e-01,NaN,1,0,1,1
15,66,1,29,NaN,NaN,1,NaN,4.399016e-02,NaN,0,0,1,1
15,67,1,25,NaN,NaN,1,NaN,3.488570e-01,NaN,2,0,1,1
15,68,1,115,NaN,NaN,2,NaN,9.529784e-01,NaN,0,0,3,1
15,69,1,30,NaN,NaN,2,NaN,3.251912e-01,NaN,1,1,1,1
15,70,1,56,NaN,NaN,1,NaN,1.946551e-01,NaN,1,0,2,1
15,71,1,83,NaN,NaN,1,NaN,2.536092e-01,NaN,0,0,2,1
15,72,1,144,NaN,NaN,1,NaN,6.137156e-02,NaN,0,0,3,1
15,73,1,50,NaN,NaN,1,NaN,4.697187e-01,NaN,1,0,2,1
15,74,1,71,NaN,NaN,1,NaN,6.768912e-01,NaN,1,0,2,1
15,75,1,78,NaN,NaN,1,NaN,5.214056e-02,NaN,0,0,2,1
15,76,1,81,NaN,NaN,1,NaN,3.567846e-01,NaN,2,0,2,1
15,77,1,2,NaN,NaN,2,NaN,9.844795e-01,NaN,2,1,1,1
15,78,1,125,NaN,NaN,1,NaN,3.474745e-01,NaN,0,1,3,1
15,79,1,143,NaN,NaN,1,NaN,2.963397e-01,NaN,1,1,3,1
15,80,1,110,NaN,NaN,2,NaN,2.065381e-01,NaN,1,0,3,1
15,81,1,133,NaN,NaN,2,NaN,2.084213e-01,NaN,2,0,3,1
15,82,1,17,NaN,NaN,2,NaN,2.342957e-01,NaN,0,0,1,1
15,83,1,36,NaN,NaN,1,NaN,1.571572e+00,NaN,0,0,1,1
15,84,1,50,NaN,NaN,1,NaN,4.146711e-01,NaN,0,0,2,1
15,85,1,111,NaN,NaN,2,NaN,2.327146e-01,NaN,0,0,3,1
15,86,1,2,NaN,NaN,1,NaN,4.957639e-02,NaN,0,1,1,1
15,87,1,141,NaN,NaN,1,NaN,2.137988e+00,NaN,0,0,3,1
15,88,1,47,NaN,NaN,1,NaN,2.067092e-01,NaN,2,0,1,1
15,89,1,22,NaN,NaN,2,NaN,2.405378e-01,NaN,2,1,1,1
15,90,1,39,NaN,NaN,2,NaN,4.011883e-01,NaN,0,1,1,1
15,91,1,142,NaN,NaN,2,NaN,2.836559e-01,NaN,1,0,3,1
15,92,1,135,NaN,NaN,2,NaN,1.385869e-01,NaN,2,1,3,1
15,93,1,38,NaN,NaN,1,NaN,2.712094e-01,NaN,0,0,1,1
15,94,1,109,NaN,NaN,1,NaN,6.307402e-01,NaN,1,0,3,1
15,95,1,87,NaN,NaN,1,NaN,2.160377e-01,NaN,1,0,2,1
15,96,1,129,NaN,NaN,2,NaN,2.653298e-01,NaN,0,0,3,1
15,97,1,63,NaN,NaN,1,NaN,5.770916e-01,NaN,1,0,2,1
15,98,1,14,NaN,NaN,1,NaN,2.927647e-01,NaN,0,1,1,1
15,99,1,51,NaN,NaN,1,NaN,1.147072e+00,NaN,1,0,2,1
15,100,1,35,NaN,NaN,2,NaN,3.758325e-01,NaN,1,0,1,1
15,101,1,14,NaN,NaN,1,NaN,2.751165e-01,NaN,2,1,1,1
15,102,1,55,NaN,NaN,1,NaN,3.382001e-01,NaN,0,0,2,1
15,103,1,88,NaN,NaN,1,NaN,4.708998e-01,NaN,2,0,2,1
15,104,1,18,NaN,NaN,2,NaN,3.903732e-01,NaN,0,0,1,1
15,105,1,83,NaN,NaN,1,NaN,3.374165e-01,NaN,1,0,2,1
15,106,1,46,NaN,NaN,1,NaN,1.237561e-04,NaN,2,1,1,1
15,107,1,144,NaN,NaN,1,NaN,4.161501e-01,NaN,2,0,3,1
15,108,1,90,NaN,NaN,1,NaN,4.417408e-01,NaN,0,0,2,1
15,109,1,53,NaN,NaN,1,NaN,2.268670e-01,NaN,2,0,2,1
15,110,1,10,NaN,NaN,2,NaN,2.197779e-01,NaN,0,0,1,1
15,111,1,98,NaN,NaN,2,NaN,5.733723e-01,NaN,1,0,3,1
15,112,1,91,NaN,NaN,1,NaN,2.459064e-02,NaN,0,0,2,1
15,113,1,33,NaN,NaN,1,NaN,2.345824e-01,NaN,0,0,1,1
15,114,1,12,NaN,NaN,1,NaN,2.749767e-01,NaN,2,0,1,1
15,115,1,15,NaN,NaN,2,NaN,5.840926e-02,NaN,1,0,1,1
15,116,1,119,NaN,NaN,2,NaN,2.108928e-01,NaN,0,1,3,1
15,117,1,120,NaN,NaN,2,NaN,1.331223e-02,NaN,0,0,3,1
15,118,1,68,NaN,NaN,1,NaN,8.631867e-02,NaN,1,0,2,1
15,119,1,67,NaN,NaN,1,NaN,2.856526e-01,NaN,0,0,2,1
15,120,1,136,NaN,NaN,1,NaN,1.168188e-01,NaN,1,0,3,1
15,121,1,140,NaN,NaN,1,NaN,1.082090e+00,NaN,2,0,3,1
15,122,1,78,NaN,NaN,1,NaN,1.854727e-01,NaN,1,0,2,1
15,123,1,70,NaN,NaN,1,NaN,3.321571e-01,NaN,0,0,2,1
15,124,1,66,NaN,NaN,1,NaN,2.733489e-01,NaN,1,1,2,1
15,125,1,97,NaN,NaN,1,NaN,5.926305e-01,NaN,1,0,3,1
15,126,1,103,NaN,NaN,1,NaN,2.356555e-01,NaN,0,0,3,1
15,127,1,9,NaN,NaN,1,NaN,2.524637e-01,NaN,0,0,1,1
15,128,1,117,NaN,NaN,1,NaN,3.247562e-01,NaN,0,0,3,1
15,129,1,91,NaN,NaN,1,NaN,3.861239e-01,NaN,1,0,2,1
15,130,1,35,NaN,NaN,1,NaN,1.596847e+00,NaN,0,0,1,1
15,131,1,3,NaN,NaN,1,NaN,2.631755e-01,NaN,0,0,1,1
15,132,1,85,NaN,NaN,1,NaN,8.946141e-01,NaN,0,0,2,1
15,133,1,61,NaN,NaN,1,NaN,3.092167e-01,NaN,0,0,2,1
15,134,1,54,NaN,NaN,1,NaN,3.551900e-01,NaN,1,0,2,1
15,135,1,129,NaN,NaN,1,NaN,6.636548e-01,NaN,1,0,3,1
15,136,1,65,NaN,NaN,1,NaN,1.150810e+00,NaN,0,1,2,1
15,137,1,128,NaN,NaN,2,NaN,2.757494e-01,NaN,0,0,3,1
15,138,1,113,NaN,NaN,1,NaN,1.906653e+00,NaN,0,0,3,1
15,139,1,23,NaN,NaN,2,NaN,5.367534e-01,NaN,0,0,1,1
15,140,1,40,NaN,NaN,2,NaN,3.250125e-01,NaN,2,0,1,1
15,141,1,38,NaN,NaN,1,NaN,3.938334e+00,NaN,1,0,1,1
15,142,1,1,NaN,NaN,1,NaN,6.310194e-01,NaN,2,1,1,1
15,143,1,121,NaN,NaN,2,NaN,3.024192e+00,NaN,0,1,3,1
15,144,1,114,NaN,NaN,1,NaN,1.616955e+00,NaN,1,1,3,1
15,145,1,5,NaN,NaN,1,NaN,6.425073e-01,NaN,0,0,1,1
15,146,1,60,NaN,NaN,1,NaN,2.779215e+00,NaN,0,0,2,1
15,147,1,64,NaN,NaN,1,NaN,1.240579e-04,NaN,0,1,2,1
15,148,1,51,NaN,NaN,1,NaN,1.256622e+00,NaN,0,0,2,1
15,149,1,62,NaN,NaN,1,NaN,7.208334e-01,NaN,0,0,2,1
15,150,1,139,NaN,NaN,2,NaN,4.219576e-01,NaN,1,0,3,1
15,151,1,63,NaN,NaN,1,NaN,2.327019e+00,NaN,0,0,2,1
15,152,1,58,NaN,NaN,1,NaN,3.540539e+00,NaN,0,0,2,1
15,153,1,134,NaN,NaN,2,NaN,1.001098e+00,NaN,0,0,3,1
15,154,1,123,NaN,NaN,1,NaN,3.871495e-01,NaN,2,0,3,1
15,155,1,104,NaN,NaN,2,NaN,2.245711e+00,NaN,2,0,3,1
15,156,1,84,NaN,NaN,1,NaN,3.903696e-01,NaN,0,1,2,1
15,157,1,99,NaN,NaN,2,NaN,1.032913e+00,NaN,0,1,3,1
15,158,1,75,NaN,NaN,1,NaN,9.456690e-01,NaN,0,1,2,1
15,159,1,97,NaN,NaN,2,NaN,2.133896e+00,NaN,0,0,3,1
15,160,1,13,NaN,NaN,1,NaN,4.349390e-01,NaN,2,0,1,1
15,161,1,112,NaN,NaN,1,NaN,6.123714e+00,NaN,2,0,3,1
15,162,1,41,NaN,NaN,2,NaN,2.408094e-01,NaN,1,1,1,1
15,163,1,104,NaN,NaN,2,NaN,8.414229e-01,NaN,0,0,3,1
15,164,1,111,NaN,NaN,1,NaN,4.625798e+00,NaN,1,0,3,1
15,165,1,134,NaN,NaN,1,NaN,1.507279e+00,NaN,1,0,3,1
15,166,1,66,NaN,NaN,1,NaN,4.090981e-01,NaN,0,1,2,1
15,167,1,4,NaN,NaN,1,NaN,6.992929e-01,NaN,1,0,1,1
15,168,1,73,NaN,NaN,1,NaN,3.053452e-01,NaN,2,0,2,1
15,169,1,130,NaN,NaN,2,NaN,1.511258e+00,NaN,0,0,3,1
15,170,1,86,NaN,NaN,1,NaN,1.249635e-04,NaN,1,0,2,1
15,171,1,82,NaN,NaN,1,NaN,2.233306e-01,NaN,0,0,2,1
15,172,1,112,NaN,NaN,1,NaN,4.248408e-01,NaN,0,0,3,1
15,173,1,122,NaN,NaN,2,NaN,5.225221e-01,NaN,0,0,3,1
15,174,1,25,NaN,NaN,1,NaN,9.674860e-01,NaN,0,0,1,1
15,175,1,94,NaN,NaN,1,NaN,3.711488e-01,NaN,2,0,2,1
15,176,1,100,NaN,NaN,2,NaN,2.467884e-01,NaN,0,0,3,1
15,177,1,107,NaN,NaN,1,NaN,3.112544e-01,NaN,2,0,3,1
15,178,1,45,NaN,NaN,2,NaN,3.252443e-01,NaN,2,1,1,1
15,179,1,32,NaN,NaN,1,NaN,3.388318e-01,NaN,1,0,1,1
15,180,1,11,NaN,NaN,1,NaN,2.396244e-01,NaN,2,0,1,1
15,181,1,8,NaN,NaN,2,NaN,9.601059e-01,NaN,2,0,1,1
15,182,1,110,NaN,NaN,2,NaN,3.717476e-01,NaN,0,0,3,1
15,183,1,67,NaN,NaN,1,NaN,2.231926e-01,NaN,2,0,2,1
15,184,1,70,NaN,NaN,1,NaN,3.687899e-01,NaN,2,0,2,1
15,185,1,12,NaN,NaN,1,NaN,4.767571e-01,NaN,0,0,1,1
15,186,1,119,NaN,NaN,1,NaN,4.674838e-01,NaN,2,1,3,1
15,187,1,31,NaN,NaN,1,NaN,7.315033e-01,NaN,0,1,1,1
15,188,1,77,NaN,NaN,1,NaN,8.401950e-01,NaN,2,0,2,1
15,189,1,128,NaN,NaN,1,NaN,3.692650e-01,NaN,1,0,3,1
15,190,1,95,NaN,NaN,1,NaN,2.140949e+00,NaN,2,0,2,1
15,191,1,75,NaN,NaN,1,NaN,2.652703e-01,NaN,1,1,2,1
15,192,1,21,NaN,NaN,1,NaN,5.368561e-01,NaN,2,0,1,1
15,193,1,34,NaN,NaN,1,NaN,5.179169e-01,NaN,0,1,1,1
15,194,1,43,NaN,NaN,2,NaN,4.115295e-01,NaN,0,1,1,1
15,195,1,137,NaN,NaN,1,NaN,2.771533e-01,NaN,0,0,3,1
15,196,1,10,NaN,NaN,1,NaN,5.645228e-01,NaN,2,0,1,1
15,197,1,76,NaN,NaN,1,NaN,2.803860e-01,NaN,2,1,2,1
15,198,1,68,NaN,NaN,1,NaN,4.792594e-01,NaN,0,0,2,1
15,199,1,69,NaN,NaN,1,NaN,2.703346e-01,NaN,1,0,2,1
15,200,1,28,NaN,NaN,1,NaN,6.535674e-01,NaN,0,0,1,1
15,201,1,27,NaN,NaN,1,NaN,4.455337e-01,NaN,0,1,1,1
15,202,1,41,NaN,NaN,1,NaN,3.582899e-01,NaN,0,1,1,1
15,203,1,93,NaN,NaN,1,NaN,5.778311e-01,NaN,0,1,2,1
15,204,1,88,NaN,NaN,1,NaN,4.856358e-01,NaN,0,0,2,1
15,205,1,20,NaN,NaN,2,NaN,2.683081e-01,NaN,1,0,1,1
15,206,1,109,NaN,NaN,1,NaN,3.468017e+00,NaN,0,0,3,1
15,207,1,101,NaN,NaN,1,NaN,1.003556e+00,NaN,2,0,3,1
15,208,1,135,NaN,NaN,1,NaN,3.574417e-01,NaN,0,1,3,1
15,209,1,92,NaN,NaN,1,NaN,1.489582e+00,NaN,0,1,2,1
15,210,1,90,NaN,NaN,1,NaN,6.881745e-01,NaN,1,0,2,1
15,211,1,126,NaN,NaN,2,NaN,7.748285e-01,NaN,2,1,3,1
15,212,1,126,NaN,NaN,1,NaN,4.500874e-01,NaN,0,1,3,1
15,213,1,56,NaN,NaN,1,NaN,4.507919e-01,NaN,0,0,2,1
15,214,1,69,NaN,NaN,1,NaN,1.309014e-01,NaN,0,0,2,1
15,215,1,44,NaN,NaN,2,NaN,4.238945e-01,NaN,0,0,1,1
15,216,1,5,NaN,NaN,1,NaN,2.574329e-01,NaN,2,0,1,1
15,217,1,64,NaN,NaN,1,NaN,8.412082e-01,NaN,2,1,2,1
15,218,1,65,NaN,NaN,1,NaN,2.742565e-01,NaN,1,1,2,1
15,219,1,118,NaN,NaN,1,NaN,4.012801e-01,NaN,2,0,3,1
15,220,1,76,NaN,NaN,1,NaN,3.241607e-01,NaN,0,1,2,1
15,221,1,27,NaN,NaN,1,NaN,4.414392e-01,NaN,1,1,1,1
15,222,1,22,NaN,NaN,2,NaN,4.262051e-01,NaN,0,1,1,1
15,223,1,62,NaN,NaN,1,NaN,9.551671e-01,NaN,2,0,2,1
15,224,1,17,NaN,NaN,1,NaN,7.591525e-01,NaN,1,0,1,1
15,225,1,9,NaN,NaN,1,NaN,2.592488e-01,NaN,2,0,1,1
15,226,1,32,NaN,NaN,1,NaN,5.234959e-01,NaN,0,0,1,1
15,227,1,139,NaN,NaN,1,NaN,2.245244e-01,NaN,0,0,3,1
15,228,1,141,NaN,NaN,1,NaN,2.984052e-01,NaN,1,0,3,1
15,229,1,49,NaN,NaN,1,NaN,2.487295e-01,NaN,0,0,2,1
15,230,1,85,NaN,NaN,1,NaN,2.567963e-01,NaN,1,0,2,1
15,231,1,94,NaN,NaN,1,NaN,4.009888e-01,NaN,0,0,2,1
15,232,1,16,NaN,NaN,1,NaN,2.994864e-01,NaN,2,0,1,1
15,233,1,1,NaN,NaN,1,NaN,4.421253e-01,NaN,0,1,1,1
15,234,1,16,NaN,NaN,1,NaN,5.225632e-01,NaN,0,0,1,1
15,235,1,24,NaN,NaN,2,NaN,2.399628e-01,NaN,0,0,1,1
15,236,1,6,NaN,NaN,1,NaN,8.406562e-01,NaN,1,0,1,1
15,237,1,116,NaN,NaN,1,NaN,4.093942e-01,NaN,0,0,3,1
15,238,1,43,NaN,NaN,2,NaN,2.514926e-01,NaN,1,1,1,1
15,239,1,137,NaN,NaN,2,NaN,4.115902e-01,NaN,2,0,3,1
15,240,1,142,NaN,NaN,1,NaN,8.532530e-01,NaN,0,0,3,1
15,241,1,42,NaN,NaN,1,NaN,7.813148e-01,NaN,0,0,1,1
15,242,1,84,NaN,NaN,1,NaN,3.125792e-01,NaN,1,1,2,1
15,243,1,138,NaN,NaN,1,NaN,2.620511e-01,NaN,2,0,3,1
15,244,1,8,NaN,NaN,2,NaN,1.029798e+00,NaN,0,0,1,1
15,245,1,125,NaN,NaN,1,NaN,4.308092e-01,NaN,1,1,3,1
15,246,1,96,NaN,NaN,1,NaN,5.438097e-01,NaN,0,1,2,1
15,247,1,99,NaN,NaN,1,NaN,3.810100e-01,NaN,1,1,3,1
15,248,1,21,NaN,NaN,1,NaN,5.275255e-01,NaN,0,0,1,1
15,249,1,133,NaN,NaN,2,NaN,8.292878e-01,NaN,0,0,3,1
15,250,1,81,NaN,NaN,1,NaN,5.579390e-01,NaN,0,0,2,1
15,251,1,74,NaN,NaN,1,NaN,4.501882e-01,NaN,0,0,2,1
15,252,1,77,NaN,NaN,1,NaN,6.745103e-01,NaN,0,0,2,1
15,253,1,140,NaN,NaN,1,NaN,3.539346e-01,NaN,0,0,3,1
15,254,1,19,NaN,NaN,2,NaN,1.326084e+00,NaN,0,1,1,1
15,255,1,131,NaN,NaN,1,NaN,4.349674e-01,NaN,1,1,3,1
15,256,1,100,NaN,NaN,1,NaN,7.882883e-01,NaN,2,0,3,1
15,257,1,114,NaN,NaN,1,NaN,2.948501e-01,NaN,0,1,3,1
15,258,1,73,NaN,NaN,1,NaN,4.055575e-01,NaN,0,0,2,1
15,259,1,105,NaN,NaN,1,NaN,5.914035e-01,NaN,0,0,3,1
15,260,1,58,NaN,NaN,1,NaN,4.819730e-01,NaN,1,0,2,1
15,261,1,120,NaN,NaN,1,NaN,1.033110e+00,NaN,1,0,3,1
15,262,1,106,NaN,NaN,1,NaN,2.001827e+00,NaN,0,1,3,1
15,263,1,57,NaN,NaN,1,NaN,5.724172e-01,NaN,0,1,2,1
15,264,1,108,NaN,NaN,1,NaN,2.389157e-02,NaN,0,0,3,1
15,265,1,49,NaN,NaN,1,NaN,3.530888e-01,NaN,2,0,2,1
15,266,1,79,NaN,NaN,1,NaN,2.447829e-01,NaN,0,0,2,1
15,267,1,60,NaN,NaN,1,NaN,5.335717e-01,NaN,2,0,2,1
15,268,1,48,NaN,NaN,1,NaN,5.383366e-01,NaN,2,0,1,1
15,269,1,124,NaN,NaN,1,NaN,7.125152e-02,NaN,0,0,3,1
15,270,1,6,NaN,NaN,1,NaN,4.306142e-01,NaN,0,0,1,1
15,271,1,15,NaN,NaN,1,NaN,3.273219e-01,NaN,0,0,1,1
15,272,1,72,NaN,NaN,1,NaN,4.927044e-01,NaN,0,0,2,1
15,273,1,127,NaN,NaN,1,NaN,4.272187e-01,NaN,0,1,3,1
15,274,1,46,NaN,NaN,1,NaN,3.171129e-01,NaN,0,1,1,1
15,275,1,89,NaN,NaN,1,NaN,3.066782e-01,NaN,0,0,2,1
15,276,1,96,NaN,NaN,1,NaN,2.056580e+00,NaN,2,1,2,1
15,277,1,47,NaN,NaN,1,NaN,4.481700e-01,NaN,0,0,1,1
15,278,1,61,NaN,NaN,1,NaN,3.845036e-01,NaN,2,0,2,1
15,279,1,7,NaN,NaN,1,NaN,7.640364e-01,NaN,0,0,1,1
15,280,1,26,NaN,NaN,1,NaN,8.313642e-01,NaN,0,0,1,1
15,281,1,18,NaN,NaN,2,NaN,2.402254e-01,NaN,2,0,1,1
15,282,1,24,NaN,NaN,2,NaN,1.041419e+00,NaN,1,0,1,1
15,283,1,39,NaN,NaN,2,NaN,3.137649e-01,NaN,1,1,1,1
15,284,1,130,NaN,NaN,2,NaN,2.557824e-01,NaN,1,0,3,1
15,285,1,89,NaN,NaN,1,NaN,4.399297e-01,NaN,1,0,2,1
15,286,1,87,NaN,NaN,1,NaN,8.324744e-01,NaN,0,0,2,1
15,287,1,57,NaN,NaN,1,NaN,2.653536e-01,NaN,2,1,2,1
15,288,1,127,NaN,NaN,1,NaN,1.234543e-04,NaN,1,1,3,1
15,394,2,54,55,1,1,1,2.692665e+00,NaN,1,0,2,1
15,395,2,102,37,1,1,1,1.063528e+00,NaN,1,0,3,1
15,396,2,129,23,2,2,1,1.242316e+00,NaN,1,0,3,1
15,397,2,130,61,1,1,1,1.662946e+00,NaN,1,0,3,1
15,398,2,105,17,1,1,1,1.329477e+00,NaN,1,0,3,1
15,399,2,19,25,1,1,1,2.033990e+00,NaN,1,1,1,1
15,400,2,58,45,1,1,1,2.126109e+00,NaN,1,0,2,1
15,401,2,24,32,1,1,1,7.827489e-01,NaN,1,0,1,1
15,402,2,23,69,1,1,1,1.180919e+00,NaN,1,0,1,1
15,403,2,36,14,2,2,1,1.195292e+00,NaN,1,0,1,1
15,404,2,131,21,1,1,1,7.929159e-01,NaN,1,1,3,1
15,405,2,136,28,2,2,1,1.903178e+00,NaN,1,0,3,1
15,406,2,38,4,2,2,1,1.392833e+00,NaN,1,0,1,1
15,407,2,7,44,1,0,0,3.499757e+00,NaN,1,0,1,1
15,408,2,44,41,2,2,1,2.288037e+00,NaN,1,0,1,1
15,409,2,142,18,2,2,1,1.921888e+00,NaN,1,0,3,1
15,410,2,143,10,1,1,1,1.098697e+00,NaN,1,1,3,1
15,411,2,6,6,1,1,1,9.960326e-01,NaN,1,0,1,1
15,412,2,33,40,2,0,0,3.499925e+00,NaN,1,0,1,1
15,413,2,4,51,1,1,1,1.450899e+00,NaN,1,0,1,1
15,414,2,37,15,1,1,1,2.262466e+00,NaN,1,0,1,1
15,415,2,83,3,1,1,1,7.379576e-01,NaN,1,0,2,1
15,416,2,41,13,2,0,0,3.499636e+00,NaN,1,1,1,1
15,417,2,111,48,2,2,1,1.795124e+00,NaN,1,0,3,1
15,418,3,38,4,2,2,1,9.439533e-01,NaN,1,0,1,1
15,419,3,142,18,1,1,1,1.048519e+00,NaN,1,0,3,1
15,420,3,44,41,1,1,1,1.027800e+00,NaN,1,0,1,1
15,421,3,37,15,2,2,1,2.584175e+00,NaN,1,0,1,1
15,422,3,136,28,1,1,1,8.786393e-01,NaN,1,0,3,1
15,423,3,58,45,2,0,0,3.499567e+00,NaN,1,0,2,1
15,424,3,33,40,1,2,0,2.274087e+00,NaN,1,0,1,1
15,425,3,129,23,2,1,0,1.924662e+00,NaN,1,0,3,1
15,426,3,41,13,1,1,1,1.341218e+00,NaN,1,1,1,1
15,427,3,111,48,2,2,1,1.181639e+00,NaN,1,0,3,1
15,428,3,23,69,2,2,1,2.011814e+00,NaN,1,0,1,1
15,429,3,105,17,2,2,1,9.529790e-01,NaN,1,0,3,1
15,430,3,102,37,2,2,1,7.528775e-01,NaN,1,0,3,1
15,431,3,143,10,2,2,1,1.080308e+00,NaN,1,1,3,1
15,432,3,83,3,1,2,0,5.704670e-01,NaN,1,0,2,1
15,433,3,7,44,1,0,0,3.499695e+00,NaN,1,0,1,1
15,434,3,36,14,1,2,0,1.594718e+00,NaN,1,0,1,1
15,435,3,130,61,2,2,1,3.081069e+00,NaN,1,0,3,1
15,436,3,6,6,1,1,1,1.427237e+00,NaN,1,0,1,1
15,437,3,4,51,2,2,1,9.675349e-01,NaN,1,0,1,1
15,438,3,54,55,1,1,1,3.186816e-01,NaN,1,0,2,1
15,439,3,19,25,2,2,1,9.111570e-01,NaN,1,1,1,1
15,440,3,24,32,2,2,1,1.529102e+00,NaN,1,0,1,1
15,441,3,131,21,1,1,1,7.691396e-01,NaN,1,1,3,1
15,466,2,87,66,2,1,0,1.650719e+00,NaN,1,0,2,2
15,467,2,89,11,1,2,0,1.102555e+00,NaN,1,0,2,2
15,468,2,32,60,2,2,1,1.064396e+00,NaN,1,0,1,2
15,469,2,63,20,2,2,1,9.870409e-01,NaN,1,0,2,2
15,470,2,51,35,1,2,0,1.761241e+00,NaN,1,0,2,2
15,471,2,15,49,1,1,1,1.880387e+00,NaN,1,0,1,2
15,472,2,65,24,1,1,1,9.145232e-01,NaN,1,1,2,2
15,473,2,98,43,1,1,1,1.067948e+00,NaN,1,0,3,2
15,474,2,20,12,2,2,1,9.990610e-01,NaN,1,0,1,2
15,475,2,85,39,2,2,1,4.565393e-03,NaN,1,0,2,2
15,476,2,59,56,1,1,1,8.742406e-01,NaN,1,0,2,2
15,477,2,28,68,2,2,1,1.812677e+00,NaN,1,0,1,2
15,478,2,26,5,2,2,1,1.193662e+00,NaN,1,0,1,2
15,479,2,125,7,2,1,0,1.695768e+00,NaN,1,1,3,2
15,480,2,30,33,1,1,1,1.641304e+00,NaN,1,1,1,2
15,481,2,27,34,1,1,1,8.933536e-01,NaN,1,1,1,2
15,482,2,68,26,1,1,1,1.191564e+00,NaN,1,0,2,2
15,483,2,39,59,1,1,1,1.453145e+00,NaN,1,1,1,2
15,484,2,80,36,2,1,0,7.848953e-01,NaN,1,1,2,2
15,485,2,115,52,1,1,1,1.328114e-04,NaN,1,0,3,2
15,486,2,56,9,1,1,1,9.730764e-01,NaN,1,0,2,2
15,487,2,79,46,2,2,1,1.043797e+00,NaN,1,0,2,2
15,488,2,127,8,2,2,1,2.183541e+00,NaN,1,1,3,2
15,489,2,91,29,1,1,1,9.258263e-01,NaN,1,0,2,2
15,490,3,20,12,1,1,1,1.685792e+00,NaN,1,0,1,2
15,491,3,30,33,1,1,1,5.680480e-01,NaN,1,1,1,2
15,492,3,127,8,1,2,0,9.996496e-01,NaN,1,1,3,2
15,493,3,15,49,1,2,0,2.382047e+00,NaN,1,0,1,2
15,494,3,98,43,2,2,1,1.435631e+00,NaN,1,0,3,2
15,495,3,65,24,2,2,1,1.031769e+00,NaN,1,1,2,2
15,496,3,59,56,1,2,0,1.283713e+00,NaN,1,0,2,2
15,497,3,51,35,1,2,0,2.878286e+00,NaN,1,0,2,2
15,498,3,115,52,2,2,1,1.904005e+00,NaN,1,0,3,2
15,499,3,68,26,1,1,1,1.953321e+00,NaN,1,0,2,2
15,500,3,26,5,2,2,1,9.207409e-01,NaN,1,0,1,2
15,501,3,27,34,2,2,1,8.173804e-01,NaN,1,1,1,2
15,502,3,91,29,1,1,1,7.185687e-01,NaN,1,0,2,2
15,503,3,80,36,1,1,1,7.355948e-01,NaN,1,1,2,2
15,504,3,32,60,2,2,1,9.839168e-01,NaN,1,0,1,2
15,505,3,56,9,1,1,1,1.142135e+00,NaN,1,0,2,2
15,506,3,85,39,2,2,1,9.417984e-01,NaN,1,0,2,2
15,507,3,87,66,1,1,1,1.421971e+00,NaN,1,0,2,2
15,508,3,89,11,1,1,1,1.194613e+00,NaN,1,0,2,2
15,509,3,28,68,1,1,1,9.044186e-01,NaN,1,0,1,2
15,510,3,39,59,1,1,1,1.833849e+00,NaN,1,1,1,2
15,511,3,79,46,1,1,1,8.460085e-01,NaN,1,0,2,2
15,512,3,63,20,2,2,1,7.942404e-01,NaN,1,0,2,2
15,513,3,125,7,1,1,1,1.143856e+00,NaN,1,1,3,2
15,538,2,66,70,2,2,1,7.767881e-01,NaN,1,1,2,3
15,539,2,86,54,1,1,1,1.231408e+00,NaN,1,0,2,3
15,540,2,71,64,2,2,1,1.107437e+00,NaN,1,0,2,3
15,541,2,97,67,1,2,0,2.093023e+00,NaN,1,0,3,3
15,542,2,75,57,2,2,1,3.230704e+00,NaN,1,1,2,3
15,543,2,109,27,2,0,0,3.499866e+00,NaN,1,0,3,3
15,544,2,50,72,1,1,1,3.028348e+00,NaN,1,0,2,3
15,545,2,90,63,2,1,0,8.968390e-01,NaN,1,0,2,3
15,546,2,43,65,2,2,1,9.705660e-01,NaN,1,1,1,3
15,547,2,110,38,1,1,1,2.217219e+00,NaN,1,0,3,3
15,548,2,99,31,2,2,1,9.421507e-01,NaN,1,1,3,3
15,549,2,17,42,2,2,1,1.782437e+00,NaN,1,0,1,3
15,550,2,69,16,1,1,1,6.044441e-01,NaN,1,0,2,3
15,551,2,31,50,1,1,1,1.033973e+00,NaN,1,1,1,3
15,552,2,120,2,1,1,1,1.750000e+00,NaN,1,0,3,3
15,553,2,134,47,1,2,0,3.421355e+00,NaN,1,0,3,3
15,554,2,113,62,2,2,1,1.570221e+00,NaN,1,0,3,3
15,555,2,84,1,1,1,1,1.360928e+00,NaN,1,1,2,3
15,556,2,139,19,1,1,1,1.008114e+00,NaN,1,0,3,3
15,557,2,128,22,1,1,1,7.973817e-01,NaN,1,0,3,3
15,558,2,78,58,1,1,1,1.274717e+00,NaN,1,0,2,3
15,559,2,35,53,2,2,1,1.309580e+00,NaN,1,0,1,3
15,560,2,141,71,2,2,1,1.287334e+00,NaN,1,0,3,3
15,561,2,114,30,2,0,0,3.499614e+00,NaN,1,1,3,3
15,562,3,139,19,1,1,1,2.227606e+00,NaN,1,0,3,3
15,563,3,35,53,2,2,1,9.282698e-01,NaN,1,0,1,3
15,564,3,31,50,1,2,0,1.409267e+00,NaN,1,1,1,3
15,565,3,97,67,2,2,1,1.006770e+00,NaN,1,0,3,3
15,566,3,86,54,2,2,1,9.798510e-01,NaN,1,0,2,3
15,567,3,113,62,1,1,1,1.202575e+00,NaN,1,0,3,3
15,568,3,114,30,2,1,0,1.232766e+00,NaN,1,1,3,3
15,569,3,84,1,1,1,1,7.812249e-01,NaN,1,1,2,3
15,570,3,17,42,2,2,1,1.099211e+00,NaN,1,0,1,3
15,571,3,50,72,1,1,1,1.156985e+00,NaN,1,0,2,3
15,572,3,43,65,1,1,1,1.508070e+00,NaN,1,1,1,3
15,573,3,99,31,1,1,1,1.653944e+00,NaN,1,1,3,3
15,574,3,90,63,1,2,0,2.008805e+00,NaN,1,0,2,3
15,575,3,78,58,2,1,0,7.581099e-01,NaN,1,0,2,3
15,576,3,66,70,2,2,1,1.365693e+00,NaN,1,1,2,3
15,577,3,75,57,1,1,1,7.644532e-01,NaN,1,1,2,3
15,578,3,71,64,2,2,1,1.227528e+00,NaN,1,0,2,3
15,579,3,120,2,1,1,1,8.483641e-01,NaN,1,0,3,3
15,580,3,110,38,1,1,1,1.708368e+00,NaN,1,0,3,3
15,581,3,128,22,2,2,1,2.525219e+00,NaN,1,0,3,3
15,582,3,134,47,1,1,1,2.110077e+00,NaN,1,0,3,3
15,583,3,69,16,2,2,1,9.025572e-01,NaN,1,0,2,3
15,584,3,141,71,1,1,1,1.288728e+00,NaN,1,0,3,3
15,585,3,109,27,2,2,1,1.058225e+00,NaN,1,0,3,3
15,610,4,53,47,2,1,0,2.447612e+00,NaN,2,0,2,1
15,611,4,137,69,1,1,1,1.219169e+00,NaN,2,0,3,1
15,612,4,64,7,1,1,1,7.198633e-01,NaN,2,1,2,1
15,613,4,1,24,2,2,1,1.184988e+00,NaN,2,1,1,1
15,614,4,74,60,2,2,1,1.007541e+00,NaN,2,0,2,1
15,615,4,133,49,2,2,1,1.500621e+00,NaN,2,0,3,1
15,616,4,11,56,1,1,1,1.078275e+00,NaN,2,0,1,1
15,617,4,93,25,1,1,1,7.128868e-01,NaN,2,1,2,1
15,618,4,122,4,2,2,1,1.234113e+00,NaN,2,0,3,1
15,619,4,88,53,1,1,1,8.465279e-01,NaN,2,0,2,1
15,620,4,106,70,2,2,1,9.465087e-01,NaN,2,1,3,1
15,621,4,49,43,1,1,1,9.859739e-01,NaN,2,0,2,1
15,622,4,46,30,2,1,0,7.601498e-01,NaN,2,1,1,1
15,623,4,57,31,1,1,1,6.799067e-01,NaN,2,1,2,1
15,624,4,81,42,2,2,1,5.142262e-01,NaN,2,0,2,1
15,625,4,107,72,2,1,0,1.067295e+00,NaN,2,0,3,1
15,626,4,22,8,1,1,1,8.701551e-01,NaN,2,1,1,1
15,627,4,124,32,1,1,1,7.211307e-01,NaN,2,0,3,1
15,628,4,40,61,1,1,1,8.741084e-01,NaN,2,0,1,1
15,629,4,118,55,1,1,1,1.724460e+00,NaN,2,0,3,1
15,630,4,70,37,2,1,0,5.813283e-01,NaN,2,0,2,1
15,631,4,72,17,1,1,1,9.633271e-01,NaN,2,0,2,1
15,632,4,29,18,1,1,1,1.474711e+00,NaN,2,0,1,1
15,633,4,55,67,2,2,1,1.781261e+00,NaN,2,0,2,1
15,658,4,117,20,1,1,1,7.238642e-01,NaN,2,0,3,2
15,659,4,52,19,1,1,1,1.533104e+00,NaN,2,0,2,2
15,660,4,116,39,2,2,1,1.356688e+00,NaN,2,0,3,2
15,661,4,82,5,1,1,1,6.921941e-01,NaN,2,0,2,2
15,662,4,76,33,1,1,1,7.104898e-01,NaN,2,1,2,2
15,663,4,103,26,1,2,0,8.636437e-01,NaN,2,0,3,2
15,664,4,104,46,2,2,1,7.628311e-01,NaN,2,0,3,2
15,665,4,60,22,1,1,1,7.618404e-01,NaN,2,0,2,2
15,666,4,144,51,1,1,1,1.433079e+00,NaN,2,0,3,2
15,667,4,14,36,1,1,1,7.093081e-01,NaN,2,1,1,2
15,668,4,5,66,1,1,1,8.146786e-01,NaN,2,0,1,2
15,669,4,8,11,1,1,1,1.195871e+00,NaN,2,0,1,2
15,670,4,101,16,1,1,1,9.220641e-01,NaN,2,0,3,2
15,671,4,3,9,1,1,1,1.090287e+00,NaN,2,0,1,2
15,672,4,42,48,1,1,1,1.548303e+00,NaN,2,0,1,2
15,673,4,25,23,2,2,1,1.252100e+00,NaN,2,0,1,2
15,674,4,108,29,2,2,1,1.423748e+00,NaN,2,0,3,2
15,675,4,16,45,1,1,1,9.481770e-01,NaN,2,0,1,2
15,676,4,126,65,2,2,1,1.139968e+00,NaN,2,1,3,2
15,677,4,135,59,1,1,1,1.412141e+00,NaN,2,1,3,2
15,678,4,123,12,2,2,1,1.152952e+00,NaN,2,0,3,2
15,679,4,61,71,2,2,1,8.412774e-01,NaN,2,0,2,2
15,680,4,9,64,1,1,1,1.756431e+00,NaN,2,0,1,2
15,681,4,94,41,1,1,1,1.043733e+00,NaN,2,0,2,2
15,706,4,34,10,2,2,1,1.290366e+00,NaN,2,1,1,3
15,707,4,67,52,1,1,1,1.588025e+00,NaN,2,0,2,3
15,708,4,100,63,1,1,1,1.017874e+00,NaN,2,0,3,3
15,709,4,73,44,1,1,1,1.223360e+00,NaN,2,0,2,3
15,710,4,119,57,1,1,1,1.427505e+00,NaN,2,1,3,3
15,711,4,2,1,1,1,1,1.048005e+00,NaN,2,1,1,3
15,712,4,96,13,1,1,1,7.475128e-01,NaN,2,1,2,3
15,713,4,10,35,2,1,0,1.170994e+00,NaN,2,0,1,3
15,714,4,77,6,1,1,1,7.456601e-01,NaN,2,0,2,3
15,715,4,21,27,1,1,1,1.793387e+00,NaN,2,0,1,3
15,716,4,13,3,1,1,1,9.110719e-01,NaN,2,0,1,3
15,717,4,95,68,2,2,1,1.280653e+00,NaN,2,0,2,3
15,718,4,62,2,2,2,1,1.074441e+00,NaN,2,0,2,3
15,719,4,112,58,2,2,1,1.861112e+00,NaN,2,0,3,3
15,720,4,138,40,1,1,1,8.085140e-01,NaN,2,0,3,3
15,721,4,48,62,1,1,1,1.565787e+00,NaN,2,0,1,3
15,722,4,121,34,1,1,1,1.492725e+00,NaN,2,1,3,3
15,723,4,18,38,2,2,1,1.119002e+00,NaN,2,0,1,3
15,724,4,132,14,2,2,1,1.999459e+00,NaN,2,0,3,3
15,725,4,92,50,2,2,1,1.100786e+00,NaN,2,1,2,3
15,726,4,47,28,2,2,1,2.622325e+00,NaN,2,0,1,3
15,727,4,45,21,2,2,1,1.130800e+00,NaN,2,1,1,3
15,728,4,140,15,2,1,0,1.098983e+00,NaN,2,0,3,3
15,729,4,12,54,2,2,1,1.212723e+00,NaN,2,0,1,3
15,730,5,8.612000e+01,54,2,0,0,2.500417e+00,1,1,0,2.100000e+00,1
15,731,5,1.101800e+02,38,3,0,0,2.500005e+00,1,1,0,3.100000e+00,1
15,732,5,5.911000e+01,56,2,1,0,7.256862e-01,1,1,0,2.100000e+00,1
15,733,5,1.206200e+02,2,3,2,0,9.032605e-01,1,1,0,3.200000e+00,1
15,734,5,5.816000e+01,45,2,3,0,3.049791e-01,1,1,0,2.100000e+00,1
15,735,5,1.304000e+02,61,3,2,0,2.425354e-01,1,1,0,3.100000e+00,1
15,736,5,1.781000e+01,42,1,3,0,2.686446e-01,1,1,0,1.200000e+00,1
15,737,5,3.922000e+01,4,1,2,0,4.065922e-01,1,1,0,1.300000e+00,1
15,738,5,6.903000e+01,26,2,4,0,3.281734e-01,1,1,0,2.300000e+00,1
15,739,5,8.616000e+01,39,2,1,0,1.074088e+00,1,1,0,2.300000e+00,1
15,740,5,7.001000e+01,16,2,3,0,4.917524e-01,1,1,0,2.300000e+00,1
15,741,5,8.313000e+01,3,2,2,1,1.765902e+00,1,1,0,2.100000e+00,1
15,742,5,3.588000e+01,53,1,2,0,2.320952e-01,1,1,0,1.200000e+00,1
15,743,5,1.057200e+02,17,3,3,1,3.137365e-01,1,1,0,3.200000e+00,1
15,744,5,5.110000e+01,35,2,1,0,3.634288e-01,1,1,0,2.100000e+00,1
15,745,5,6.417000e+01,20,2,3,0,5.980870e-01,1,1,0,2.300000e+00,1
15,746,5,1.292500e+02,23,3,3,1,4.632743e-01,1,1,0,3.100000e+00,1
15,747,5,2.123000e+01,12,1,3,0,1.136380e+00,1,1,0,1.300000e+00,1
15,748,5,8.004000e+01,46,2,2,1,3.302033e-01,1,1,0,2.300000e+00,1
15,749,5,1.304000e+02,61,3,3,1,2.279530e-01,2,1,0,3.100000e+00,1
15,750,5,1.416100e+02,71,3,2,0,6.454587e-01,1,1,0,3.200000e+00,1
15,751,5,8.616000e+01,39,2,1,0,4.473040e-01,2,1,0,2.300000e+00,1
15,752,5,4.494000e+01,41,1,1,1,5.713215e-02,1,1,0,1.200000e+00,1
15,753,5,1.395200e+02,19,3,3,1,2.590656e-01,1,1,0,3.200000e+00,1
15,754,5,9.208000e+01,29,2,3,0,1.251733e-01,1,1,0,2.300000e+00,1
15,755,5,91,63,2,3,0,5.346816e-01,1,1,0,2.300000e+00,1
15,756,5,1.364700e+02,28,3,2,0,1.736685e+00,1,1,0,3.100000e+00,1
15,757,5,1.114200e+02,48,3,1,0,3.470710e-01,1,1,0,3.100000e+00,1
15,758,5,1.292500e+02,23,3,3,1,2.291694e-01,2,1,0,3.100000e+00,1
15,759,5,8.313000e+01,3,2,2,1,3.024294e-01,2,1,0,2.100000e+00,1
15,760,5,1.416100e+02,71,3,2,0,1.104663e+00,2,1,0,3.200000e+00,1
15,761,5,5.518000e+01,55,2,2,1,4.263881e-01,1,1,0,2.300000e+00,1
15,762,5,1.286000e+02,22,3,2,0,3.968221e-01,1,1,0,3.200000e+00,1
15,763,5,3.274000e+01,60,1,2,0,3.342100e-01,1,1,0,1.200000e+00,1
15,764,5,3.922000e+01,4,1,1,1,4.639969e-01,2,1,0,1.300000e+00,1
15,765,5,3.840000e+01,15,1,1,1,4.976927e-01,1,1,0,1.300000e+00,1
15,766,5,9.755000e+01,67,3,3,1,3.395904e-01,1,1,0,3.200000e+00,1
15,767,5,3.732000e+01,14,1,2,0,1.084987e+00,1,1,0,1.300000e+00,1
15,768,5,8.313000e+01,3,2,1,0,1.119336e+00,3,1,0,2.100000e+00,1
15,769,5,1.292500e+02,23,3,2,0,8.649166e-01,3,1,0,3.100000e+00,1
15,770,5,1.027000e+02,37,3,1,0,8.745611e-01,1,1,0,3.200000e+00,1
15,771,5,2.682000e+01,5,1,0,0,2.500227e+00,1,1,0,1.200000e+00,1
15,772,5,3.438000e+01,40,1,3,0,3.666244e-01,1,1,0,1.300000e+00,1
15,773,5,8.612000e+01,54,2,1,0,1.444683e-01,2,1,0,2.100000e+00,1
15,774,5,2.524000e+01,32,1,1,1,4.348137e-01,1,1,0,1.300000e+00,1
15,775,5,1.057200e+02,17,3,3,1,1.020679e+00,2,1,0,3.200000e+00,1
15,776,5,1.101800e+02,38,3,3,1,9.432569e-02,2,1,0,3.100000e+00,1
15,777,5,3.274000e+01,60,1,3,0,7.604200e-01,2,1,0,1.200000e+00,1
15,778,5,1.057200e+02,17,3,3,1,1.186280e+00,3,1,0,3.200000e+00,1
15,779,5,1.134800e+02,62,3,1,0,3.000756e-01,1,1,0,3.100000e+00,1
15,780,5,1.292500e+02,23,3,2,0,5.499724e-01,4,1,0,3.100000e+00,1
15,781,5,1.092100e+02,27,3,3,1,5.683967e-01,1,1,0,3.100000e+00,1
15,782,5,5.816000e+01,45,2,2,1,5.059931e-01,2,1,0,2.100000e+00,1
15,783,5,1.633000e+01,49,1,3,0,6.682081e-01,1,1,0,1.300000e+00,1
15,784,5,1.092100e+02,27,3,2,0,3.823596e-01,2,1,0,3.100000e+00,1
15,785,5,9.755000e+01,67,3,0,0,2.500277e+00,2,1,0,3.200000e+00,1
15,786,5,5.107000e+01,72,2,1,0,2.182255e-01,1,1,0,2.300000e+00,1
15,787,5,7.001000e+01,16,2,2,1,1.291752e+00,2,1,0,2.300000e+00,1
15,788,5,1.304000e+02,61,3,3,1,3.339250e-01,3,1,0,3.100000e+00,1
15,789,5,5.107000e+01,72,2,2,1,4.958708e-01,2,1,0,2.300000e+00,1
15,790,5,1.114200e+02,48,3,1,0,5.457061e-01,2,1,0,3.100000e+00,1
15,791,5,3.274000e+01,60,1,1,1,1.163462e+00,3,1,0,1.200000e+00,1
15,792,5,1.781000e+01,42,1,1,1,1.557850e+00,2,1,0,1.200000e+00,1
15,793,5,8.705000e+01,66,2,1,0,5.512377e-01,1,1,0,2.100000e+00,1
15,794,5,3.274000e+01,60,1,2,0,3.211987e-01,4,1,0,1.200000e+00,1
15,795,5,5.110000e+01,35,2,1,0,4.191604e-01,2,1,0,2.100000e+00,1
15,796,5,6.770000e+00,6,1,3,0,5.729581e-01,1,1,0,1.200000e+00,1
15,797,5,5.603000e+01,9,2,1,0,4.068394e-01,1,1,0,2.100000e+00,1
15,798,5,8.612000e+01,54,2,3,0,6.964435e-01,3,1,0,2.100000e+00,1
15,799,5,8.313000e+01,3,2,2,1,3.143209e-01,4,1,0,2.100000e+00,1
15,800,5,2.123000e+01,12,1,3,0,2.597957e-01,2,1,0,1.300000e+00,1
15,801,5,5.440000e+00,51,1,2,0,6.540881e-01,1,1,0,1.300000e+00,1
15,802,5,5.107000e+01,72,2,1,0,4.317968e-01,3,1,0,2.300000e+00,1
15,803,5,2.895000e+01,68,1,2,0,3.134908e-01,1,1,0,1.200000e+00,1
15,804,5,1.286000e+02,22,3,3,1,4.033661e-01,2,1,0,3.200000e+00,1
15,805,5,5.518000e+01,55,2,2,1,4.125702e-01,2,1,0,2.300000e+00,1
15,806,5,8.705000e+01,66,2,2,1,7.905256e-01,2,1,0,2.100000e+00,1
15,807,5,1.416100e+02,71,3,3,1,3.120966e-01,3,1,0,3.200000e+00,1
15,808,5,8.908000e+01,11,2,3,0,1.258009e+00,1,1,0,2.100000e+00,1
15,809,5,7.912000e+01,58,2,2,1,3.954469e-01,1,1,0,2.300000e+00,1
15,810,5,6.417000e+01,20,2,3,0,3.093906e-01,2,1,0,2.300000e+00,1
15,811,5,1.156700e+02,52,3,1,0,3.514610e-01,1,1,0,3.200000e+00,1
15,812,5,1.101800e+02,38,3,3,1,5.372258e-01,3,1,0,3.100000e+00,1
15,813,5,3.438000e+01,40,1,1,1,8.190900e-01,2,1,0,1.300000e+00,1
15,814,5,6.903000e+01,26,2,0,0,2.500583e+00,2,1,0,2.300000e+00,1
15,815,5,1.114200e+02,48,3,1,0,6.872363e-01,3,1,0,3.100000e+00,1
15,816,5,5.107000e+01,72,2,0,0,2.500585e+00,4,1,0,2.300000e+00,1
15,817,5,6.770000e+00,6,1,1,1,6.514029e-01,2,1,0,1.200000e+00,1
15,818,5,9.849000e+01,43,3,1,0,1.693611e+00,1,1,0,3.200000e+00,1
15,819,5,7.109000e+01,64,2,2,1,3.756961e-01,1,1,0,2.100000e+00,1
15,820,5,2.682000e+01,5,1,0,0,2.500091e+00,2,1,0,1.200000e+00,1
15,821,5,3.588000e+01,53,1,0,0,2.500010e+00,2,1,0,1.200000e+00,1
15,822,5,9.755000e+01,67,3,2,0,8.947213e-01,3,1,0,3.200000e+00,1
15,823,5,1.345300e+02,47,3,3,1,1.624198e+00,1,1,0,3.200000e+00,1
15,824,5,1.422900e+02,18,3,1,0,5.148655e-01,1,1,0,3.100000e+00,1
15,825,5,9.755000e+01,67,3,3,1,5.644646e-01,4,1,0,3.200000e+00,1
15,826,5,1.395200e+02,19,3,1,0,5.581198e-01,2,1,0,3.200000e+00,1
15,827,5,7.730000e+00,44,1,2,0,7.117162e-01,1,1,0,1.200000e+00,1
15,828,5,1.345300e+02,47,3,1,0,6.011356e-01,2,1,0,3.200000e+00,1
15,829,5,1.092100e+02,27,3,3,1,7.955954e-01,3,1,0,3.100000e+00,1
15,830,5,1.027000e+02,37,3,3,1,5.094284e-01,2,1,0,3.200000e+00,1
15,831,5,9.208000e+01,29,2,2,1,9.669342e-01,2,1,0,2.300000e+00,1
15,832,5,1.156700e+02,52,3,0,0,2.500518e+00,2,1,0,3.200000e+00,1
15,833,5,7.912000e+01,58,2,3,0,2.354931e-01,2,1,0,2.300000e+00,1
15,834,5,7.001000e+01,16,2,1,0,1.454889e-04,3,1,0,2.300000e+00,1
15,835,5,7.109000e+01,64,2,2,1,5.114076e-01,2,1,0,2.100000e+00,1
15,836,5,8.004000e+01,46,2,3,0,1.289129e+00,2,1,0,2.300000e+00,1
15,837,5,1.422900e+02,18,3,3,1,6.827500e-01,2,1,0,3.100000e+00,1
15,838,5,6.903000e+01,26,2,2,1,3.647026e-01,3,1,0,2.300000e+00,1
15,839,5,7.912000e+01,58,2,0,0,2.500066e+00,3,1,0,2.300000e+00,1
15,840,5,1.781000e+01,42,1,2,0,2.570106e-01,3,1,0,1.200000e+00,1
15,841,5,2.524000e+01,32,1,1,1,3.388741e-01,2,1,0,1.300000e+00,1
15,842,5,1.206200e+02,2,3,3,1,8.923904e-01,2,1,0,3.200000e+00,1
15,843,5,91,63,2,2,1,5.020208e-01,2,1,0,2.300000e+00,1
15,844,5,4.494000e+01,41,1,2,0,5.044745e-01,2,1,0,1.200000e+00,1
15,845,5,7.730000e+00,44,1,1,1,5.543102e-01,2,1,0,1.200000e+00,1
15,846,5,1.422900e+02,18,3,3,1,1.083426e+00,3,1,0,3.100000e+00,1
15,847,5,91,63,2,2,1,1.257860e-01,3,1,0,2.300000e+00,1
15,848,5,4.494000e+01,41,1,1,1,4.876854e-01,3,1,0,1.200000e+00,1
15,849,5,5.110000e+01,35,2,3,0,5.291974e-01,3,1,0,2.100000e+00,1
15,850,5,1.364700e+02,28,3,1,0,5.629940e-01,2,1,0,3.100000e+00,1
15,851,5,7.109000e+01,64,2,3,0,7.810863e-01,3,1,0,2.100000e+00,1
15,852,5,3.922000e+01,4,1,2,0,7.344339e-01,3,1,0,1.300000e+00,1
15,853,5,3.438000e+01,40,1,0,0,2.500219e+00,3,1,0,1.300000e+00,1
15,854,5,6.417000e+01,20,2,1,0,6.989660e-01,3,1,0,2.300000e+00,1
15,855,5,3.438000e+01,40,1,1,1,3.804462e-01,4,1,0,1.300000e+00,1
15,856,5,7.730000e+00,44,1,1,1,2.701620e-01,3,1,0,1.200000e+00,1
15,857,5,8.908000e+01,11,2,2,1,5.121598e-01,2,1,0,2.100000e+00,1
15,858,5,8.616000e+01,39,2,2,1,2.897894e-01,3,1,0,2.300000e+00,1
15,859,5,1.633000e+01,49,1,3,0,4.194954e-01,2,1,0,1.300000e+00,1
15,860,5,4.494000e+01,41,1,1,1,9.810973e-01,4,1,0,1.200000e+00,1
15,861,5,2.437000e+01,69,1,1,1,3.354648e-01,1,1,0,1.300000e+00,1
15,862,5,2.437000e+01,69,1,1,1,5.053321e-01,2,1,0,1.300000e+00,1
15,863,5,2.895000e+01,68,1,2,0,1.138559e+00,2,1,0,1.200000e+00,1
15,864,5,9.849000e+01,43,3,3,1,1.415649e-04,2,1,0,3.200000e+00,1
15,865,5,9.208000e+01,29,2,3,0,5.823072e-01,3,1,0,2.300000e+00,1
15,866,5,6.417000e+01,20,2,1,0,6.964812e-01,4,1,0,2.300000e+00,1
15,867,5,5.816000e+01,45,2,0,0,2.500042e+00,3,1,0,2.100000e+00,1
15,868,5,1.416100e+02,71,3,2,0,4.443919e-01,4,1,0,3.200000e+00,1
15,869,5,2.437000e+01,69,1,1,1,1.424704e-04,3,1,0,1.300000e+00,1
15,870,5,9.208000e+01,29,2,2,1,4.002577e-01,4,1,0,2.300000e+00,1
15,871,5,1.304000e+02,61,3,3,1,1.224120e-01,4,1,0,3.100000e+00,1
15,872,5,1.633000e+01,49,1,2,0,6.279104e-01,3,1,0,1.300000e+00,1
15,873,5,3.840000e+01,15,1,2,0,5.255716e-01,2,1,0,1.300000e+00,1
15,874,5,1.345300e+02,47,3,3,1,1.599373e-01,3,1,0,3.200000e+00,1
15,875,5,1.057200e+02,17,3,3,1,2.179131e-01,4,1,0,3.200000e+00,1
15,876,5,3.732000e+01,14,1,1,1,9.198851e-02,2,1,0,1.300000e+00,1
15,877,5,5.603000e+01,9,2,1,0,5.659889e-01,2,1,0,2.100000e+00,1
15,878,5,7.730000e+00,44,1,1,1,1.518276e-04,4,1,0,1.200000e+00,1
15,879,5,8.004000e+01,46,2,3,0,2.017976e-01,3,1,0,2.300000e+00,1
15,880,5,3.922000e+01,4,1,1,1,5.870860e-01,4,1,0,1.300000e+00,1
15,881,5,1.027000e+02,37,3,3,1,4.373930e-01,3,1,0,3.200000e+00,1
15,882,5,8.705000e+01,66,2,2,1,3.749143e-01,3,1,0,2.100000e+00,1
15,883,5,8.705000e+01,66,2,3,0,1.504438e+00,4,1,0,2.100000e+00,1
15,884,5,8.908000e+01,11,2,2,1,4.266854e-01,3,1,0,2.100000e+00,1
15,885,5,91,63,2,1,0,1.403575e-04,4,1,0,2.300000e+00,1
15,886,5,2.682000e+01,5,1,1,1,3.188642e-01,3,1,0,1.200000e+00,1
15,887,5,1.134800e+02,62,3,3,1,2.971215e-01,2,1,0,3.100000e+00,1
15,888,5,5.518000e+01,55,2,2,1,4.430308e-01,3,1,0,2.300000e+00,1
15,889,5,1.286000e+02,22,3,1,0,6.448197e-01,3,1,0,3.200000e+00,1
15,890,5,6.770000e+00,6,1,1,1,8.701916e-01,3,1,0,1.200000e+00,1
15,891,5,5.440000e+00,51,1,2,0,1.127883e+00,2,1,0,1.300000e+00,1
15,892,5,5.816000e+01,45,2,2,1,6.096117e-01,4,1,0,2.100000e+00,1
15,893,5,1.395200e+02,19,3,1,0,6.037478e-01,3,1,0,3.200000e+00,1
15,894,5,1.395200e+02,19,3,3,1,2.377581e-01,4,1,0,3.200000e+00,1
15,895,5,6.903000e+01,26,2,2,1,3.749097e-01,4,1,0,2.300000e+00,1
15,896,5,2.524000e+01,32,1,1,1,9.525709e-01,3,1,0,1.300000e+00,1
15,897,5,1.364700e+02,28,3,3,1,8.351270e-01,3,1,0,3.100000e+00,1
15,898,5,9.849000e+01,43,3,3,1,4.937008e-01,3,1,0,3.200000e+00,1
15,899,5,3.732000e+01,14,1,1,1,5.672445e-01,3,1,0,1.300000e+00,1
15,900,5,1.286000e+02,22,3,1,0,2.811162e-01,4,1,0,3.200000e+00,1
15,901,5,2.895000e+01,68,1,1,1,2.907562e-01,3,1,0,1.200000e+00,1
15,902,5,3.840000e+01,15,1,0,0,2.500036e+00,3,1,0,1.300000e+00,1
15,903,5,1.781000e+01,42,1,3,0,8.388720e-01,4,1,0,1.200000e+00,1
15,904,5,1.364700e+02,28,3,1,0,5.687737e-01,4,1,0,3.100000e+00,1
15,905,5,1.633000e+01,49,1,1,1,6.983173e-01,4,1,0,1.300000e+00,1
15,906,5,5.518000e+01,55,2,1,0,1.179978e+00,4,1,0,2.300000e+00,1
15,907,5,7.912000e+01,58,2,2,1,4.939387e-01,4,1,0,2.300000e+00,1
15,908,5,3.732000e+01,14,1,0,0,2.500347e+00,4,1,0,1.300000e+00,1
15,909,5,8.616000e+01,39,2,2,1,4.664186e-01,4,1,0,2.300000e+00,1
15,910,5,5.110000e+01,35,2,3,0,1.043813e+00,4,1,0,2.100000e+00,1
15,911,5,5.603000e+01,9,2,2,1,5.581086e-01,3,1,0,2.100000e+00,1
15,912,5,1.156700e+02,52,3,0,0,2.500294e+00,3,1,0,3.200000e+00,1
15,913,5,1.422900e+02,18,3,1,0,6.659947e-01,4,1,0,3.100000e+00,1
15,914,5,2.123000e+01,12,1,1,1,1.595789e+00,3,1,0,1.300000e+00,1
15,915,5,8.908000e+01,11,2,2,1,6.062473e-01,4,1,0,2.100000e+00,1
15,916,5,1.134800e+02,62,3,0,0,2.500101e+00,3,1,0,3.100000e+00,1
15,917,5,1.206200e+02,2,3,1,0,4.422210e-01,3,1,0,3.200000e+00,1
15,918,5,3.588000e+01,53,1,2,0,1.469981e-04,3,1,0,1.200000e+00,1
15,919,5,2.895000e+01,68,1,1,1,5.821164e-01,4,1,0,1.200000e+00,1
15,920,5,8.004000e+01,46,2,3,0,6.880254e-01,4,1,0,2.300000e+00,1
15,921,5,2.437000e+01,69,1,0,0,2.500322e+00,4,1,0,1.300000e+00,1
15,922,5,1.114200e+02,48,3,1,0,1.164236e+00,4,1,0,3.100000e+00,1
15,923,5,1.101800e+02,38,3,3,1,1.053649e+00,4,1,0,3.100000e+00,1
15,924,5,5.911000e+01,56,2,1,0,5.195504e-01,2,1,0,2.100000e+00,1
15,925,5,2.682000e+01,5,1,2,0,4.657842e-01,4,1,0,1.200000e+00,1
15,926,5,2.123000e+01,12,1,1,1,6.911688e-01,4,1,0,1.300000e+00,1
15,927,5,1.027000e+02,37,3,3,1,4.286582e-01,4,1,0,3.200000e+00,1
15,928,5,5.440000e+00,51,1,1,1,8.387760e-01,3,1,0,1.300000e+00,1
15,929,5,5.603000e+01,9,2,1,0,4.643721e-01,4,1,0,2.100000e+00,1
15,930,5,1.206200e+02,2,3,2,0,4.098902e-01,4,1,0,3.200000e+00,1
15,931,5,8.612000e+01,54,2,1,0,8.837631e-01,4,1,0,2.100000e+00,1
15,932,5,7.109000e+01,64,2,2,1,3.662589e-01,4,1,0,2.100000e+00,1
15,933,5,3.840000e+01,15,1,3,0,1.687665e+00,4,1,0,1.300000e+00,1
15,934,5,2.524000e+01,32,1,1,1,3.060108e-01,4,1,0,1.300000e+00,1
15,935,5,3.588000e+01,53,1,2,0,1.707861e+00,4,1,0,1.200000e+00,1
15,936,5,1.134800e+02,62,3,2,0,4.541598e-01,4,1,0,3.100000e+00,1
15,937,5,5.440000e+00,51,1,1,1,1.460926e-04,4,1,0,1.300000e+00,1
15,938,5,5.911000e+01,56,2,2,1,5.136847e-01,3,1,0,2.100000e+00,1
15,939,5,9.849000e+01,43,3,1,0,1.011318e+00,4,1,0,3.200000e+00,1
15,940,5,1.345300e+02,47,3,1,0,4.292172e-01,4,1,0,3.200000e+00,1
15,941,5,7.001000e+01,16,2,1,0,4.066318e-01,4,1,0,2.300000e+00,1
15,942,5,6.770000e+00,6,1,1,1,4.489044e-01,4,1,0,1.200000e+00,1
15,943,5,1.156700e+02,52,3,2,0,5.942336e-01,4,1,0,3.200000e+00,1
15,944,5,1.092100e+02,27,3,3,1,9.245978e-01,4,1,0,3.100000e+00,1
15,945,5,5.911000e+01,56,2,3,0,7.177848e-01,4,1,0,2.100000e+00,1
15,946,6,42,48,1,1,1,1.182454e+00,NaN,2,0,1,1
15,947,6,16,45,1,1,1,8.546943e-01,NaN,2,0,1,1
15,948,6,93,25,2,2,1,8.829762e-01,NaN,2,1,2,1
15,949,6,70,37,2,2,1,8.860357e-01,NaN,2,0,2,1
15,950,6,18,38,2,2,1,1.377330e+00,NaN,2,0,1,1
15,951,6,118,55,1,1,1,1.097041e+00,NaN,2,0,3,1
15,952,6,5,66,2,2,1,1.124836e+00,NaN,2,0,1,1
15,953,6,9,64,1,1,1,1.349596e+00,NaN,2,0,1,1
15,954,6,11,56,2,2,1,1.453964e+00,NaN,2,0,1,1
15,955,6,117,20,2,1,0,1.690552e+00,NaN,2,0,3,1
15,956,6,48,62,2,2,1,1.317104e+00,NaN,2,0,1,1
15,957,6,137,69,2,2,1,1.239516e+00,NaN,2,0,3,1
15,958,6,1,24,1,1,1,1.108545e+00,NaN,2,1,1,1
15,959,6,107,72,1,1,1,1.398770e+00,NaN,2,0,3,1
15,960,6,123,12,2,2,1,8.934741e-01,NaN,2,0,3,1
15,961,6,77,6,1,1,1,7.687237e-01,NaN,2,0,2,1
15,962,6,72,17,2,2,1,7.285706e-01,NaN,2,0,2,1
15,963,6,124,32,1,1,1,9.943800e-01,NaN,2,0,3,1
15,964,6,62,2,1,1,1,7.855340e-01,NaN,2,0,2,1
15,965,6,47,28,1,1,1,1.560272e+00,NaN,2,0,1,1
15,966,6,52,19,1,1,1,1.128778e+00,NaN,2,0,2,1
15,967,6,104,46,1,1,1,1.610876e+00,NaN,2,0,3,1
15,968,6,88,53,1,1,1,1.064894e+00,NaN,2,0,2,1
15,969,6,60,22,1,1,1,9.245984e-01,NaN,2,0,2,1
15,970,6,116,39,2,2,1,1.046527e+00,NaN,2,0,3,1
15,971,6,13,3,1,1,1,1.026828e+00,NaN,2,0,1,1
15,972,6,133,49,2,2,1,1.344513e+00,NaN,2,0,3,1
15,973,6,103,26,1,1,1,1.137453e+00,NaN,2,0,3,1
15,974,6,67,52,2,1,0,1.945843e+00,NaN,2,0,2,1
15,975,6,57,31,2,2,1,8.663657e-01,NaN,2,1,2,1
15,976,6,92,50,2,2,1,8.464709e-01,NaN,2,1,2,1
15,977,6,121,34,1,1,1,1.162758e+00,NaN,2,1,3,1
15,978,6,106,70,2,1,0,1.211253e+00,NaN,2,1,3,1
15,979,6,101,16,1,1,1,1.121237e+00,NaN,2,0,3,1
15,980,6,95,68,2,2,1,8.431959e-01,NaN,2,0,2,1
15,981,6,45,21,2,2,1,1.607823e+00,NaN,2,1,1,1
15,982,6,25,23,1,1,1,8.943847e-01,NaN,2,0,1,1
15,983,6,73,44,2,1,0,1.496984e+00,NaN,2,0,2,1
15,984,6,40,61,2,2,1,1.827546e+00,NaN,2,0,1,1
15,985,6,140,15,2,2,1,1.025002e+00,NaN,2,0,3,1
15,986,6,96,13,2,2,1,7.344143e-01,NaN,2,1,2,1
15,987,6,21,27,1,1,1,1.032082e+00,NaN,2,0,1,1
15,988,6,12,54,2,2,1,1.597211e+00,NaN,2,0,1,1
15,989,6,112,58,1,1,1,9.242160e-01,NaN,2,0,3,1
15,990,6,135,59,1,1,1,7.503190e-01,NaN,2,1,3,1
15,991,6,8,11,1,1,1,8.467767e-01,NaN,2,0,1,1
15,992,6,122,4,2,2,1,1.147839e+00,NaN,2,0,3,1
15,993,6,82,5,1,1,1,6.760252e-01,NaN,2,0,2,1
15,994,6,144,51,2,1,0,9.843053e-01,NaN,2,0,3,1
15,995,6,49,43,2,2,1,9.032215e-01,NaN,2,0,2,1
15,996,6,55,67,2,2,1,1.473471e+00,NaN,2,0,2,1
15,997,6,81,42,2,2,1,7.975872e-01,NaN,2,0,2,1
15,998,6,46,30,2,2,1,2.364269e+00,NaN,2,1,1,1
15,999,6,126,65,1,2,0,1.572289e+00,NaN,2,1,3,1
15,1000,6,108,29,2,2,1,1.499968e+00,NaN,2,0,3,1
15,1001,6,94,41,1,1,1,1.078559e+00,NaN,2,0,2,1
15,1002,6,74,60,1,1,1,1.538310e+00,NaN,2,0,2,1
15,1003,6,3,9,1,1,1,1.387035e+00,NaN,2,0,1,1
15,1004,6,100,63,2,2,1,1.042499e+00,NaN,2,0,3,1
15,1005,6,14,36,2,2,1,9.197647e-01,NaN,2,1,1,1
15,1006,6,22,8,2,1,0,8.738436e-01,NaN,2,1,1,1
15,1007,6,119,57,1,1,1,1.029365e+00,NaN,2,1,3,1
15,1008,6,76,33,1,1,1,7.627427e-01,NaN,2,1,2,1
15,1009,6,53,47,1,1,1,1.082901e+00,NaN,2,0,2,1
15,1010,6,64,7,2,2,1,6.302995e-01,NaN,2,1,2,1
15,1011,6,34,10,2,2,1,1.219863e+00,NaN,2,1,1,1
15,1012,6,2,1,2,1,0,8.260348e-01,NaN,2,1,1,1
15,1013,6,138,40,1,1,1,8.802937e-01,NaN,2,0,3,1
15,1014,6,10,35,1,2,0,1.139636e+00,NaN,2,0,1,1
15,1015,6,29,18,2,2,1,1.452710e+00,NaN,2,0,1,1
15,1016,6,132,14,2,2,1,1.969117e+00,NaN,2,0,3,1
15,1017,6,61,71,2,1,0,9.210496e-01,NaN,2,0,2,1
15,1018,6,87,66,1,1,1,1.274713e+00,NaN,1,0,2,1
15,1019,6,30,33,2,2,1,1.462406e+00,NaN,1,1,1,1
15,1020,6,23,69,1,1,1,1.466230e+00,NaN,1,0,1,1
15,1021,6,109,27,1,1,1,1.310102e+00,NaN,1,0,3,1
15,1022,6,36,14,1,1,1,1.984200e+00,NaN,1,0,1,1
15,1023,6,128,22,1,2,0,3.135233e+00,NaN,1,0,3,1
15,1024,6,69,16,2,2,1,6.966632e-01,NaN,1,0,2,1
15,1025,6,127,8,2,2,1,2.251222e+00,NaN,1,1,3,1
15,1026,6,50,72,2,2,1,1.511827e+00,NaN,1,0,2,1
15,1027,6,83,3,2,2,1,9.939689e-01,NaN,1,0,2,1
15,1028,6,43,65,1,2,0,1.369084e+00,NaN,1,1,1,1
15,1029,6,24,32,2,2,1,1.200541e+00,NaN,1,0,1,1
15,1030,6,68,26,2,2,1,1.398959e+00,NaN,1,0,2,1
15,1031,6,71,64,2,1,0,7.976126e-01,NaN,1,0,2,1
15,1032,6,19,25,1,2,0,1.604150e+00,NaN,1,1,1,1
15,1033,6,31,50,2,2,1,2.002258e+00,NaN,1,1,1,1
15,1034,6,114,30,2,1,0,1.409414e+00,NaN,1,1,3,1
15,1035,6,113,62,1,1,1,1.055786e+00,NaN,1,0,3,1
15,1036,6,17,42,2,2,1,1.579933e+00,NaN,1,0,1,1
15,1037,6,84,1,1,1,1,6.833492e-01,NaN,1,1,2,1
15,1038,6,99,31,1,1,1,1.855032e+00,NaN,1,1,3,1
15,1039,6,131,21,2,2,1,8.834815e-01,NaN,1,1,3,1
15,1040,6,102,37,1,1,1,8.071569e-01,NaN,1,0,3,1
15,1041,6,35,53,1,2,0,1.125182e+00,NaN,1,0,1,1
15,1042,6,38,4,1,1,1,6.950363e-01,NaN,1,0,1,1
15,1043,6,85,39,2,2,1,6.981891e-01,NaN,1,0,2,1
15,1044,6,142,18,2,2,1,1.068794e+00,NaN,1,0,3,1
15,1045,6,4,51,1,1,1,8.971768e-01,NaN,1,0,1,1
15,1046,6,90,63,2,1,0,1.092010e+00,NaN,1,0,2,1
15,1047,6,6,6,1,1,1,2.526256e+00,NaN,1,0,1,1
15,1048,6,105,17,1,1,1,1.368072e+00,NaN,1,0,3,1
15,1049,6,98,43,2,1,0,2.176277e+00,NaN,1,0,3,1
15,1050,6,86,54,2,2,1,1.167588e+00,NaN,1,0,2,1
15,1051,6,78,58,2,2,1,1.192212e+00,NaN,1,0,2,1
15,1052,6,37,15,2,1,0,2.263094e+00,NaN,1,0,1,1
15,1053,6,32,60,2,2,1,1.498637e+00,NaN,1,0,1,1
15,1054,6,120,2,2,2,1,1.389537e+00,NaN,1,0,3,1
15,1055,6,143,10,1,1,1,9.647730e-01,NaN,1,1,3,1
15,1056,6,20,12,1,1,1,1.237109e+00,NaN,1,0,1,1
15,1057,6,63,20,2,2,1,9.858375e-01,NaN,1,0,2,1
15,1058,6,41,13,1,1,1,1.121636e+00,NaN,1,1,1,1
15,1059,6,79,46,2,2,1,7.555838e-01,NaN,1,0,2,1
15,1060,6,15,49,1,2,0,2.651707e+00,NaN,1,0,1,1
15,1061,6,130,61,2,2,1,2.744189e+00,NaN,1,0,3,1
15,1062,6,26,5,1,1,1,1.233633e+00,NaN,1,0,1,1
15,1063,6,75,57,1,1,1,5.990399e-01,NaN,1,1,2,1
15,1064,6,136,28,2,2,1,1.029969e+00,NaN,1,0,3,1
15,1065,6,28,68,2,2,1,1.035156e+00,NaN,1,0,1,1
15,1066,6,80,36,1,2,0,1.240445e+00,NaN,1,1,2,1
15,1067,6,66,70,1,2,0,6.615147e-01,NaN,1,1,2,1
15,1068,6,33,40,2,2,1,1.698336e+00,NaN,1,0,1,1
15,1069,6,44,41,1,1,1,1.388741e+00,NaN,1,0,1,1
15,1070,6,89,11,2,2,1,1.692292e+00,NaN,1,0,2,1
15,1071,6,141,71,1,1,1,1.726876e+00,NaN,1,0,3,1
15,1072,6,7,44,1,1,1,1.744655e+00,NaN,1,0,1,1
15,1073,6,65,24,2,2,1,7.936101e-01,NaN,1,1,2,1
15,1074,6,115,52,2,1,0,2.456815e+00,NaN,1,0,3,1
15,1075,6,139,19,2,2,1,9.809244e-01,NaN,1,0,3,1
15,1076,6,97,67,1,2,0,1.916364e+00,NaN,1,0,3,1
15,1077,6,39,59,1,1,1,1.998356e+00,NaN,1,1,1,1
15,1078,6,111,48,1,2,0,3.476923e+00,NaN,1,0,3,1
15,1079,6,59,56,2,1,0,1.096120e+00,NaN,1,0,2,1
15,1080,6,91,29,1,1,1,8.510167e-01,NaN,1,0,2,1
15,1081,6,58,45,2,2,1,9.433496e-01,NaN,1,0,2,1
15,1082,6,129,23,2,1,0,2.256442e+00,NaN,1,0,3,1
15,1083,6,134,47,1,1,1,1.436574e+00,NaN,1,0,3,1
15,1084,6,54,55,1,1,1,1.393752e+00,NaN,1,0,2,1
15,1085,6,27,34,2,1,0,1.385031e+00,NaN,1,1,1,1
15,1086,6,56,9,2,2,1,7.439936e-01,NaN,1,0,2,1
15,1087,6,110,38,1,1,1,1.969177e+00,NaN,1,0,3,1
15,1088,6,125,7,1,1,1,1.489319e+00,NaN,1,1,3,1
15,1089,6,51,35,1,2,0,9.960715e-01,NaN,1,0,2,1
