Trial,Cond,ImageNum,Cue,Block,Correct,Response,RT,Accuracy,CueRep,fName,ImageType,Baseline,Category
1,1,96,NA,NA,NA,1,1.6634,NA,NA,O_Image_96.bmp,1,0,2
2,1,143,NA,NA,NA,2,0.78359,NA,NA,S_Lure_143.bmp,0,0,3
3,1,123,NA,NA,NA,2,0.4592,NA,NA,S_Image_123.bmp,1,1,3
4,1,114,NA,NA,NA,1,0.35567,NA,NA,S_Lure_114.bmp,0,0,3
5,1,127,NA,NA,NA,1,0.24917,NA,NA,S_Lure_127.bmp,0,1,3
6,1,142,NA,NA,NA,2,0.082359,NA,NA,S_Image_142.bmp,1,0,3
7,1,6,NA,NA,NA,1,0.22465,NA,NA,F_Image_6.bmp,2,0,1
8,1,132,NA,NA,NA,2,0.00012134,NA,NA,S_Image_132.bmp,2,1,3
9,1,1,NA,NA,NA,1,1.5953,NA,NA,F_Lure_1.bmp,0,0,1
10,1,93,NA,NA,NA,1,0.44807,NA,NA,O_Lure_93.bmp,0,1,2
11,1,73,NA,NA,NA,1,0.29739,NA,NA,O_Lure_73.bmp,0,0,2
12,1,93,NA,NA,NA,1,0.29608,NA,NA,O_Image_93.bmp,1,1,2
13,1,134,NA,NA,NA,2,0.27157,NA,NA,S_Lure_134.bmp,0,1,3
14,1,3,NA,NA,NA,2,0.23958,NA,NA,F_Image_3.bmp,1,0,1
15,1,5,NA,NA,NA,1,0.24088,NA,NA,F_Lure_5.bmp,0,1,1
16,1,122,NA,NA,NA,2,0.39425,NA,NA,S_Image_122.bmp,1,1,3
17,1,110,NA,NA,NA,1,0.26754,NA,NA,S_Image_110.bmp,2,1,3
18,1,33,NA,NA,NA,1,0.25182,NA,NA,F_Lure_33.bmp,0,0,1
19,1,82,NA,NA,NA,1,0.22911,NA,NA,O_Lure_82.bmp,0,1,2
20,1,49,NA,NA,NA,1,0.063566,NA,NA,O_Image_49.bmp,2,1,2
21,1,30,NA,NA,NA,2,0.21853,NA,NA,F_Image_30.bmp,2,1,1
22,1,86,NA,NA,NA,1,0.47038,NA,NA,O_Lure_86.bmp,0,0,2
23,1,20,NA,NA,NA,1,0.27984,NA,NA,F_Image_20.bmp,1,0,1
24,1,76,NA,NA,NA,1,0.17658,NA,NA,O_Lure_76.bmp,0,0,2
25,1,100,NA,NA,NA,2,0.15847,NA,NA,S_Lure_100.bmp,0,0,3
26,1,34,NA,NA,NA,1,0.24996,NA,NA,F_Image_34.bmp,2,0,1
27,1,97,NA,NA,NA,2,0.22199,NA,NA,S_Image_97.bmp,1,1,3
28,1,79,NA,NA,NA,1,0.026751,NA,NA,O_Image_79.bmp,1,1,2
29,1,99,NA,NA,NA,2,0.00012315,NA,NA,S_Image_99.bmp,2,0,3
30,1,53,NA,NA,NA,1,0.00012617,NA,NA,O_Image_53.bmp,1,0,2
31,1,112,NA,NA,NA,1,0.19359,NA,NA,S_Lure_112.bmp,0,0,3
32,1,39,NA,NA,NA,2,0.24613,NA,NA,F_Image_39.bmp,1,0,1
33,1,65,NA,NA,NA,1,0.51888,NA,NA,O_Lure_65.bmp,0,1,2
34,1,111,NA,NA,NA,1,0.30217,NA,NA,S_Lure_111.bmp,0,0,3
35,1,40,NA,NA,NA,1,0.23023,NA,NA,F_Lure_40.bmp,0,0,1
36,1,38,NA,NA,NA,1,0.96155,NA,NA,F_Lure_38.bmp,0,1,1
37,1,77,NA,NA,NA,1,0.24984,NA,NA,O_Lure_77.bmp,0,0,2
38,1,31,NA,NA,NA,1,0.25242,NA,NA,F_Lure_31.bmp,0,0,1
39,1,47,NA,NA,NA,1,0.25653,NA,NA,F_Image_47.bmp,2,1,1
40,1,19,NA,NA,NA,1,0.26773,NA,NA,F_Lure_19.bmp,0,0,1
41,1,48,NA,NA,NA,1,0.24649,NA,NA,F_Image_48.bmp,1,1,1
42,1,28,NA,NA,NA,2,0.26588,NA,NA,F_Image_28.bmp,1,0,1
43,1,29,NA,NA,NA,1,0.22786,NA,NA,F_Image_29.bmp,1,0,1
44,1,62,NA,NA,NA,1,0.25606,NA,NA,O_Image_62.bmp,2,0,2
45,1,18,NA,NA,NA,1,0.19473,NA,NA,F_Lure_18.bmp,0,1,1
46,1,99,NA,NA,NA,2,0.29476,NA,NA,S_Lure_99.bmp,0,0,3
47,1,37,NA,NA,NA,1,0.22348,NA,NA,F_Lure_37.bmp,0,1,1
48,1,8,NA,NA,NA,1,0.20271,NA,NA,F_Lure_8.bmp,0,1,1
49,1,131,NA,NA,NA,2,0.084952,NA,NA,S_Image_131.bmp,1,0,3
50,1,80,NA,NA,NA,1,0.00012678,NA,NA,O_Image_80.bmp,1,0,2
51,1,129,NA,NA,NA,2,0.021575,NA,NA,S_Lure_129.bmp,0,1,3
52,1,41,NA,NA,NA,2,0.048223,NA,NA,F_Image_41.bmp,2,1,1
53,1,143,NA,NA,NA,2,0.13045,NA,NA,S_Image_143.bmp,1,0,3
54,1,109,NA,NA,NA,1,0.2177,NA,NA,S_Image_109.bmp,2,0,3
55,1,30,NA,NA,NA,1,0.12542,NA,NA,F_Lure_30.bmp,0,1,1
56,1,44,NA,NA,NA,1,0.2184,NA,NA,F_Lure_44.bmp,0,1,1
57,1,138,NA,NA,NA,1,0.83769,NA,NA,S_Lure_138.bmp,0,1,3
58,1,53,NA,NA,NA,1,0.50455,NA,NA,O_Lure_53.bmp,0,0,2
59,1,118,NA,NA,NA,1,0.00012406,NA,NA,S_Lure_118.bmp,0,0,3
60,1,42,NA,NA,NA,2,0.11924,NA,NA,F_Lure_42.bmp,0,1,1
61,1,136,NA,NA,NA,1,0.022541,NA,NA,S_Lure_136.bmp,0,1,3
62,1,106,NA,NA,NA,1,0.1446,NA,NA,S_Lure_106.bmp,0,1,3
63,1,29,NA,NA,NA,1,0.00012255,NA,NA,F_Lure_29.bmp,0,0,1
64,1,104,NA,NA,NA,2,0.40412,NA,NA,S_Image_104.bmp,1,0,3
65,1,13,NA,NA,NA,1,0.00012225,NA,NA,F_Lure_13.bmp,0,1,1
66,1,55,NA,NA,NA,1,0.00012164,NA,NA,O_Image_55.bmp,1,1,2
67,1,141,NA,NA,NA,1,0.54164,NA,NA,S_Image_141.bmp,2,0,3
68,1,105,NA,NA,NA,2,0.52553,NA,NA,S_Lure_105.bmp,0,0,3
69,1,67,NA,NA,NA,1,0.33297,NA,NA,O_Lure_67.bmp,0,1,2
70,1,23,NA,NA,NA,1,0.30893,NA,NA,F_Image_23.bmp,1,0,1
71,1,39,NA,NA,NA,2,0.22096,NA,NA,F_Lure_39.bmp,0,0,1
72,1,16,NA,NA,NA,1,0.66492,NA,NA,F_Lure_16.bmp,0,1,1
73,1,68,NA,NA,NA,1,0.24311,NA,NA,O_Lure_68.bmp,0,1,2
74,1,25,NA,NA,NA,1,0.32734,NA,NA,F_Lure_25.bmp,0,1,1
75,1,144,NA,NA,NA,1,0.22194,NA,NA,S_Lure_144.bmp,0,1,3
76,1,36,NA,NA,NA,2,0.22589,NA,NA,F_Lure_36.bmp,0,0,1
77,1,11,NA,NA,NA,1,0.23733,NA,NA,F_Image_11.bmp,1,0,1
78,1,49,NA,NA,NA,1,0.2733,NA,NA,O_Lure_49.bmp,0,1,2
79,1,137,NA,NA,NA,1,0.25145,NA,NA,S_Lure_137.bmp,0,0,3
80,1,110,NA,NA,NA,1,0.33395,NA,NA,S_Lure_110.bmp,0,1,3
81,1,50,NA,NA,NA,1,0.27075,NA,NA,O_Lure_50.bmp,0,1,2
82,1,52,NA,NA,NA,1,0.12802,NA,NA,O_Lure_52.bmp,0,1,2
83,1,98,NA,NA,NA,1,0.2115,NA,NA,S_Image_98.bmp,1,1,3
84,1,97,NA,NA,NA,2,0.24822,NA,NA,S_Lure_97.bmp,0,1,3
85,1,77,NA,NA,NA,1,0.25143,NA,NA,O_Image_77.bmp,1,0,2
86,1,76,NA,NA,NA,1,0.25499,NA,NA,O_Image_76.bmp,2,0,2
87,1,70,NA,NA,NA,1,0.10682,NA,NA,O_Image_70.bmp,2,0,2
88,1,124,NA,NA,NA,2,0.072978,NA,NA,S_Lure_124.bmp,0,0,3
89,1,107,NA,NA,NA,2,0.27093,NA,NA,S_Image_107.bmp,2,1,3
90,1,83,NA,NA,NA,1,0.22978,NA,NA,O_Image_83.bmp,1,1,2
91,1,130,NA,NA,NA,2,0.24105,NA,NA,S_Image_130.bmp,2,1,3
92,1,89,NA,NA,NA,1,0.21242,NA,NA,O_Image_89.bmp,1,0,2
93,1,95,NA,NA,NA,1,0.30567,NA,NA,O_Image_95.bmp,2,0,2
94,1,92,NA,NA,NA,1,0.2579,NA,NA,O_Image_92.bmp,2,0,2
95,1,11,NA,NA,NA,1,0.21204,NA,NA,F_Lure_11.bmp,0,0,1
96,1,88,NA,NA,NA,1,0.24785,NA,NA,O_Lure_88.bmp,0,1,2
97,1,26,NA,NA,NA,1,0.13173,NA,NA,F_Lure_26.bmp,0,1,1
98,1,133,NA,NA,NA,2,0.22488,NA,NA,S_Image_133.bmp,2,0,3
99,1,94,NA,NA,NA,1,0.084718,NA,NA,O_Lure_94.bmp,0,1,2
100,1,59,NA,NA,NA,1,0.51017,NA,NA,O_Image_59.bmp,2,1,2
101,1,32,NA,NA,NA,1,0.25271,NA,NA,F_Image_32.bmp,2,1,1
102,1,104,NA,NA,NA,2,0.23887,NA,NA,S_Lure_104.bmp,0,0,3
103,1,42,NA,NA,NA,2,0.24699,NA,NA,F_Image_42.bmp,2,1,1
104,1,43,NA,NA,NA,1,0.24101,NA,NA,F_Lure_43.bmp,0,1,1
105,1,90,NA,NA,NA,1,0.2442,NA,NA,O_Image_90.bmp,1,0,2
106,1,35,NA,NA,NA,2,0.3109,NA,NA,F_Image_35.bmp,2,1,1
107,1,55,NA,NA,NA,1,0.23828,NA,NA,O_Lure_55.bmp,0,1,2
108,1,66,NA,NA,NA,1,0.19234,NA,NA,O_Image_66.bmp,2,0,2
109,1,74,NA,NA,NA,1,0.34116,NA,NA,O_Lure_74.bmp,0,0,2
110,1,14,NA,NA,NA,1,0.23445,NA,NA,F_Lure_14.bmp,0,1,1
111,1,31,NA,NA,NA,1,0.12586,NA,NA,F_Image_31.bmp,1,0,1
112,1,141,NA,NA,NA,1,0.2286,NA,NA,S_Lure_141.bmp,0,0,3
113,1,22,NA,NA,NA,2,0.030583,NA,NA,F_Image_22.bmp,1,1,1
114,1,60,NA,NA,NA,1,0.00013643,NA,NA,O_Lure_60.bmp,0,1,2
115,1,7,NA,NA,NA,1,0.65068,NA,NA,F_Lure_7.bmp,0,0,1
116,1,17,NA,NA,NA,1,0.59467,NA,NA,F_Image_17.bmp,1,1,1
117,1,84,NA,NA,NA,1,0.00012738,NA,NA,O_Image_84.bmp,2,1,2
118,1,54,NA,NA,NA,1,0.53488,NA,NA,O_Lure_54.bmp,0,1,2
119,1,65,NA,NA,NA,1,0.54165,NA,NA,O_Image_65.bmp,1,1,2
120,1,24,NA,NA,NA,1,0.00012195,NA,NA,F_Lure_24.bmp,0,1,1
121,1,46,NA,NA,NA,2,0.68812,NA,NA,F_Image_46.bmp,2,0,1
122,1,124,NA,NA,NA,1,2.009,NA,NA,S_Image_124.bmp,1,0,3
123,1,47,NA,NA,NA,1,0.3831,NA,NA,F_Lure_47.bmp,0,1,1
124,1,51,NA,NA,NA,1,0.24642,NA,NA,O_Lure_51.bmp,0,0,2
125,1,74,NA,NA,NA,1,0.9369,NA,NA,O_Image_74.bmp,2,0,2
126,1,54,NA,NA,NA,1,1.545,NA,NA,O_Image_54.bmp,1,1,2
127,1,22,NA,NA,NA,2,0.44111,NA,NA,F_Lure_22.bmp,0,1,1
128,1,66,NA,NA,NA,1,0.25256,NA,NA,O_Lure_66.bmp,0,0,2
129,1,15,NA,NA,NA,2,0.60869,NA,NA,F_Lure_15.bmp,0,0,1
130,1,115,NA,NA,NA,2,0.28404,NA,NA,S_Image_115.bmp,1,0,3
131,1,115,NA,NA,NA,2,0.2127,NA,NA,S_Lure_115.bmp,0,0,3
132,1,81,NA,NA,NA,1,0.24066,NA,NA,O_Image_81.bmp,1,1,2
133,1,52,NA,NA,NA,1,0.30068,NA,NA,O_Image_52.bmp,2,1,2
134,1,38,NA,NA,NA,1,0.25494,NA,NA,F_Image_38.bmp,2,1,1
135,1,4,NA,NA,NA,1,0.2495,NA,NA,F_Lure_4.bmp,0,0,1
136,1,19,NA,NA,NA,1,0.23613,NA,NA,F_Image_19.bmp,2,0,1
137,1,1,NA,NA,NA,1,0.23236,NA,NA,F_Image_1.bmp,1,0,1
138,1,13,NA,NA,NA,1,0.31685,NA,NA,F_Image_13.bmp,2,1,1
139,1,85,NA,NA,NA,1,0.23027,NA,NA,O_Image_85.bmp,2,1,2
140,1,90,NA,NA,NA,1,0.2264,NA,NA,O_Lure_90.bmp,0,0,2
141,1,96,NA,NA,NA,1,0.26377,NA,NA,O_Lure_96.bmp,0,0,2
142,1,103,NA,NA,NA,1,0.27515,NA,NA,S_Image_103.bmp,2,0,3
143,1,62,NA,NA,NA,1,0.013191,NA,NA,O_Lure_62.bmp,0,0,2
144,1,20,NA,NA,NA,1,0.00012376,NA,NA,F_Lure_20.bmp,0,0,1
145,1,10,NA,NA,NA,1,0.2898,NA,NA,F_Image_10.bmp,1,1,1
146,1,28,NA,NA,NA,2,0.00012436,NA,NA,F_Lure_28.bmp,0,0,1
147,1,78,NA,NA,NA,1,0.7219,NA,NA,O_Image_78.bmp,1,1,2
148,1,102,NA,NA,NA,2,0.21998,NA,NA,S_Lure_102.bmp,0,0,3
149,1,128,NA,NA,NA,1,0.25529,NA,NA,S_Lure_128.bmp,0,0,3
150,1,48,NA,NA,NA,1,0.21937,NA,NA,F_Lure_48.bmp,0,1,1
151,1,63,NA,NA,NA,1,0.22664,NA,NA,O_Image_63.bmp,1,1,2
152,1,94,NA,NA,NA,1,0.2394,NA,NA,O_Image_94.bmp,2,1,2
153,1,44,NA,NA,NA,1,0.29286,NA,NA,F_Image_44.bmp,1,1,1
154,1,113,NA,NA,NA,1,0.67885,NA,NA,S_Lure_113.bmp,0,0,3
155,1,88,NA,NA,NA,1,0.29493,NA,NA,O_Image_88.bmp,2,1,2
156,1,43,NA,NA,NA,1,0.33691,NA,NA,F_Image_43.bmp,2,1,1
157,1,123,NA,NA,NA,2,0.54558,NA,NA,S_Lure_123.bmp,0,1,3
158,1,135,NA,NA,NA,2,0.40838,NA,NA,S_Image_135.bmp,1,0,3
159,1,12,NA,NA,NA,1,0.58179,NA,NA,F_Image_12.bmp,2,0,1
160,1,18,NA,NA,NA,1,0.30846,NA,NA,F_Image_18.bmp,1,1,1
161,1,125,NA,NA,NA,1,0.24598,NA,NA,S_Lure_125.bmp,0,1,3
162,1,27,NA,NA,NA,1,0.33724,NA,NA,F_Lure_27.bmp,0,1,1
163,1,134,NA,NA,NA,2,0.25725,NA,NA,S_Image_134.bmp,1,1,3
164,1,136,NA,NA,NA,1,0.042643,NA,NA,S_Image_136.bmp,2,1,3
165,1,69,NA,NA,NA,1,0.25013,NA,NA,O_Image_69.bmp,2,1,2
166,1,7,NA,NA,NA,1,0.1654,NA,NA,F_Image_7.bmp,1,0,1
167,1,32,NA,NA,NA,1,0.21798,NA,NA,F_Lure_32.bmp,0,1,1
168,1,135,NA,NA,NA,2,0.21408,NA,NA,S_Lure_135.bmp,0,0,3
169,1,73,NA,NA,NA,1,0.35474,NA,NA,O_Image_73.bmp,1,0,2
170,1,87,NA,NA,NA,1,0.22613,NA,NA,O_Lure_87.bmp,0,0,2
171,1,2,NA,NA,NA,1,0.23828,NA,NA,F_Image_2.bmp,2,0,1
172,1,92,NA,NA,NA,1,0.30704,NA,NA,O_Lure_92.bmp,0,0,2
173,1,80,NA,NA,NA,1,0.24487,NA,NA,O_Lure_80.bmp,0,0,2
174,1,103,NA,NA,NA,1,0.00012315,NA,NA,S_Lure_103.bmp,0,0,3
175,1,63,NA,NA,NA,1,0.58627,NA,NA,O_Lure_63.bmp,0,1,2
176,1,108,NA,NA,NA,2,0.24037,NA,NA,S_Lure_108.bmp,0,0,3
177,1,3,NA,NA,NA,2,0.29244,NA,NA,F_Lure_3.bmp,0,0,1
178,1,119,NA,NA,NA,1,0.71717,NA,NA,S_Lure_119.bmp,0,0,3
179,1,45,NA,NA,NA,2,0.24587,NA,NA,F_Lure_45.bmp,0,1,1
180,1,17,NA,NA,NA,1,0.16064,NA,NA,F_Lure_17.bmp,0,1,1
181,1,40,NA,NA,NA,1,0.2319,NA,NA,F_Image_40.bmp,1,0,1
182,1,119,NA,NA,NA,1,0.23521,NA,NA,S_Image_119.bmp,2,0,3
183,1,58,NA,NA,NA,1,0.21586,NA,NA,O_Lure_58.bmp,0,0,2
184,1,57,NA,NA,NA,1,0.020076,NA,NA,O_Image_57.bmp,1,1,2
185,1,117,NA,NA,NA,2,0.34204,NA,NA,S_Image_117.bmp,2,0,3
186,1,10,NA,NA,NA,1,0.46752,NA,NA,F_Lure_10.bmp,0,1,1
187,1,61,NA,NA,NA,1,0.57543,NA,NA,O_Image_61.bmp,2,0,2
188,1,71,NA,NA,NA,1,2.7334,NA,NA,O_Lure_71.bmp,0,1,2
189,1,139,NA,NA,NA,1,17.2199,NA,NA,S_Lure_139.bmp,0,0,3
190,1,106,NA,NA,NA,1,0.75187,NA,NA,S_Image_106.bmp,2,1,3
191,1,108,NA,NA,NA,2,0.32665,NA,NA,S_Image_108.bmp,2,0,3
192,1,118,NA,NA,NA,1,0.65396,NA,NA,S_Image_118.bmp,1,0,3
193,1,83,NA,NA,NA,1,0.23935,NA,NA,O_Lure_83.bmp,0,1,2
194,1,121,NA,NA,NA,1,0.24937,NA,NA,S_Lure_121.bmp,0,1,3
195,1,85,NA,NA,NA,1,0.2434,NA,NA,O_Lure_85.bmp,0,1,2
196,1,87,NA,NA,NA,1,0.21748,NA,NA,O_Image_87.bmp,1,0,2
197,1,138,NA,NA,NA,1,0.59624,NA,NA,S_Image_138.bmp,1,1,3
198,1,24,NA,NA,NA,1,0.2009,NA,NA,F_Image_24.bmp,1,1,1
199,1,101,NA,NA,NA,2,0.23692,NA,NA,S_Image_101.bmp,1,1,3
200,1,72,NA,NA,NA,1,0.2703,NA,NA,O_Image_72.bmp,2,0,2
201,1,27,NA,NA,NA,1,0.55369,NA,NA,F_Image_27.bmp,2,1,1
202,1,116,NA,NA,NA,1,0.24967,NA,NA,S_Image_116.bmp,2,0,3
203,1,70,NA,NA,NA,1,0.35652,NA,NA,O_Lure_70.bmp,0,0,2
204,1,9,NA,NA,NA,1,0.60968,NA,NA,F_Image_9.bmp,1,1,1
205,1,6,NA,NA,NA,1,0.25588,NA,NA,F_Lure_6.bmp,0,0,1
206,1,89,NA,NA,NA,1,1.0345,NA,NA,O_Lure_89.bmp,0,0,2
207,1,140,NA,NA,NA,1,0.31783,NA,NA,S_Lure_140.bmp,0,1,3
208,1,101,NA,NA,NA,1,0.29662,NA,NA,S_Lure_101.bmp,0,1,3
209,1,116,NA,NA,NA,1,0.35467,NA,NA,S_Lure_116.bmp,0,0,3
210,1,51,NA,NA,NA,1,0.46533,NA,NA,O_Image_51.bmp,1,0,2
211,1,25,NA,NA,NA,1,0.39536,NA,NA,F_Image_25.bmp,2,1,1
212,1,105,NA,NA,NA,2,0.14413,NA,NA,S_Image_105.bmp,1,0,3
213,1,56,NA,NA,NA,1,0.24672,NA,NA,O_Lure_56.bmp,0,1,2
214,1,100,NA,NA,NA,2,0.32212,NA,NA,S_Image_100.bmp,1,0,3
215,1,130,NA,NA,NA,2,0.3703,NA,NA,S_Lure_130.bmp,0,1,3
216,1,37,NA,NA,NA,1,0.31973,NA,NA,F_Image_37.bmp,1,1,1
217,1,4,NA,NA,NA,1,0.23966,NA,NA,F_Image_4.bmp,2,0,1
218,1,61,NA,NA,NA,1,0.34643,NA,NA,O_Lure_61.bmp,0,0,2
219,1,75,NA,NA,NA,1,0.25776,NA,NA,O_Lure_75.bmp,0,0,2
220,1,64,NA,NA,NA,1,0.24367,NA,NA,O_Lure_64.bmp,0,1,2
221,1,142,NA,NA,NA,1,0.08577,NA,NA,S_Lure_142.bmp,0,0,3
222,1,5,NA,NA,NA,1,0.18188,NA,NA,F_Image_5.bmp,2,1,1
223,1,114,NA,NA,NA,1,0.097891,NA,NA,S_Image_114.bmp,1,0,3
224,1,72,NA,NA,NA,1,0.17798,NA,NA,O_Lure_72.bmp,0,0,2
225,1,75,NA,NA,NA,1,0.02324,NA,NA,O_Image_75.bmp,2,0,2
226,1,111,NA,NA,NA,1,0.00012315,NA,NA,S_Image_111.bmp,2,0,3
227,1,60,NA,NA,NA,1,0.00012164,NA,NA,O_Image_60.bmp,2,1,2
228,1,84,NA,NA,NA,1,0.2247,NA,NA,O_Lure_84.bmp,0,1,2
229,1,112,NA,NA,NA,1,0.00012436,NA,NA,S_Image_112.bmp,1,0,3
230,1,41,NA,NA,NA,1,0.76414,NA,NA,F_Lure_41.bmp,0,1,1
231,1,98,NA,NA,NA,1,0.21021,NA,NA,S_Lure_98.bmp,0,1,3
232,1,12,NA,NA,NA,1,0.39766,NA,NA,F_Lure_12.bmp,0,0,1
233,1,46,NA,NA,NA,2,0.00012345,NA,NA,F_Lure_46.bmp,0,0,1
234,1,81,NA,NA,NA,1,0.00012406,NA,NA,O_Lure_81.bmp,0,1,2
235,1,140,NA,NA,NA,1,0.13289,NA,NA,S_Image_140.bmp,1,1,3
236,1,79,NA,NA,NA,1,0.23702,NA,NA,O_Lure_79.bmp,0,1,2
237,1,120,NA,NA,NA,2,0.39906,NA,NA,S_Lure_120.bmp,0,0,3
238,1,133,NA,NA,NA,2,0.00012466,NA,NA,S_Lure_133.bmp,0,0,3
239,1,26,NA,NA,NA,1,0.86249,NA,NA,F_Image_26.bmp,2,1,1
240,1,45,NA,NA,NA,2,0.00012436,NA,NA,F_Image_45.bmp,2,1,1
241,1,121,NA,NA,NA,1,0.00012285,NA,NA,S_Image_121.bmp,2,1,3
242,1,59,NA,NA,NA,1,0.32584,NA,NA,O_Lure_59.bmp,0,1,2
243,1,107,NA,NA,NA,1,0.22602,NA,NA,S_Lure_107.bmp,0,1,3
244,1,33,NA,NA,NA,1,0.1473,NA,NA,F_Image_33.bmp,1,0,1
245,1,2,NA,NA,NA,1,0.095962,NA,NA,F_Lure_2.bmp,0,0,1
246,1,69,NA,NA,NA,1,0.1674,NA,NA,O_Lure_69.bmp,0,1,2
247,1,57,NA,NA,NA,1,0.035495,NA,NA,O_Lure_57.bmp,0,1,2
248,1,131,NA,NA,NA,1,0.58766,NA,NA,S_Lure_131.bmp,0,0,3
249,1,139,NA,NA,NA,1,0.0041597,NA,NA,S_Image_139.bmp,2,0,3
250,1,126,NA,NA,NA,2,0.18095,NA,NA,S_Lure_126.bmp,0,0,3
251,1,128,NA,NA,NA,1,0.21839,NA,NA,S_Image_128.bmp,2,0,3
252,1,102,NA,NA,NA,2,0.32616,NA,NA,S_Image_102.bmp,2,0,3
253,1,8,NA,NA,NA,1,0.00012044,NA,NA,F_Image_8.bmp,1,1,1
254,1,23,NA,NA,NA,1,0.185,NA,NA,F_Lure_23.bmp,0,0,1
255,1,56,NA,NA,NA,1,0.077088,NA,NA,O_Image_56.bmp,1,1,2
256,1,127,NA,NA,NA,1,0.00012466,NA,NA,S_Image_127.bmp,1,1,3
257,1,9,NA,NA,NA,1,0.00012557,NA,NA,F_Lure_9.bmp,0,1,1
258,1,91,NA,NA,NA,1,20.4919,NA,NA,O_Image_91.bmp,2,1,2
259,1,16,NA,NA,NA,1,0.3181,NA,NA,F_Image_16.bmp,1,1,1
260,1,126,NA,NA,NA,2,1.3748,NA,NA,S_Image_126.bmp,1,0,3
261,1,71,NA,NA,NA,1,0.28417,NA,NA,O_Image_71.bmp,2,1,2
262,1,82,NA,NA,NA,1,0.24672,NA,NA,O_Image_82.bmp,1,1,2
263,1,125,NA,NA,NA,1,0.27508,NA,NA,S_Image_125.bmp,1,1,3
264,1,109,NA,NA,NA,1,0.32452,NA,NA,S_Lure_109.bmp,0,0,3
265,1,58,NA,NA,NA,1,0.12374,NA,NA,O_Image_58.bmp,1,0,2
266,1,144,NA,NA,NA,1,0.22704,NA,NA,S_Image_144.bmp,2,1,3
267,1,91,NA,NA,NA,1,0.00012406,NA,NA,O_Lure_91.bmp,0,1,2
268,1,86,NA,NA,NA,1,14.5644,NA,NA,O_Image_86.bmp,2,0,2
269,1,117,NA,NA,NA,2,0.25813,NA,NA,S_Lure_117.bmp,0,0,3
270,1,21,NA,NA,NA,1,0.12481,NA,NA,F_Lure_21.bmp,0,0,1
271,1,122,NA,NA,NA,2,0.20476,NA,NA,S_Lure_122.bmp,0,1,3
272,1,35,NA,NA,NA,2,0.23091,NA,NA,F_Lure_35.bmp,0,1,1
273,1,113,NA,NA,NA,1,1.0095,NA,NA,S_Image_113.bmp,2,0,3
274,1,137,NA,NA,NA,1,0.00012496,NA,NA,S_Image_137.bmp,1,0,3
275,1,68,NA,NA,NA,1,0.12695,NA,NA,O_Image_68.bmp,2,1,2
276,1,129,NA,NA,NA,2,0.053787,NA,NA,S_Image_129.bmp,2,1,3
277,1,64,NA,NA,NA,1,2.2443,NA,NA,O_Image_64.bmp,1,1,2
278,1,36,NA,NA,NA,2,2.5742,NA,NA,F_Image_36.bmp,2,0,1
279,1,132,NA,NA,NA,2,1.2271,NA,NA,S_Lure_132.bmp,0,1,3
280,1,14,NA,NA,NA,1,0.82058,NA,NA,F_Image_14.bmp,1,1,1
281,1,67,NA,NA,NA,1,0.28061,NA,NA,O_Image_67.bmp,2,1,2
282,1,78,NA,NA,NA,1,0.16937,NA,NA,O_Lure_78.bmp,0,1,2
283,1,95,NA,NA,NA,1,0.21196,NA,NA,O_Lure_95.bmp,0,0,2
284,1,21,NA,NA,NA,1,0.22337,NA,NA,F_Image_21.bmp,2,0,1
285,1,34,NA,NA,NA,1,0.21984,NA,NA,F_Lure_34.bmp,0,0,1
286,1,50,NA,NA,NA,1,0.0054392,NA,NA,O_Image_50.bmp,1,1,2
287,1,15,NA,NA,NA,1,0.00012466,NA,NA,F_Image_15.bmp,2,0,1
288,1,120,NA,NA,NA,2,0.086211,NA,NA,S_Image_120.bmp,2,0,3
289,2,100,giant,1,1,0,3.4998,0,NA,S_Image_100.bmp-S_Lure_100.bmp,1,0,3
290,2,16,corner,1,2,0,3.5001,0,NA,F_Image_16.bmp-F_Lure_16.bmp,1,1,1
291,2,83,tube,1,2,1,2.082,0,NA,O_Image_83.bmp-O_Lure_83.bmp,1,1,2
292,2,78,antique,1,1,0,3.4996,0,NA,O_Image_78.bmp-O_Lure_78.bmp,1,1,2
293,2,18,paper,1,1,0,3.4999,0,NA,F_Image_18.bmp-F_Lure_18.bmp,1,1,1
294,2,105,stem,1,2,0,3.4998,0,NA,S_Image_105.bmp-S_Lure_105.bmp,1,0,3
295,2,9,witch,1,1,0,3.4997,0,NA,F_Image_9.bmp-F_Lure_9.bmp,1,1,1
296,2,37,orchestra,1,1,0,3.4996,0,NA,F_Image_37.bmp-F_Lure_37.bmp,1,1,1
297,2,101,lever,1,1,0,3.4997,0,NA,S_Image_101.bmp-S_Lure_101.bmp,1,1,3
298,2,39,quake,1,2,0,3.4997,0,NA,F_Image_39.bmp-F_Lure_39.bmp,1,0,1
299,2,11,hurricane,1,1,0,3.4998,0,NA,F_Image_11.bmp-F_Lure_11.bmp,1,0,1
300,2,80,harem,1,2,0,3.5001,0,NA,O_Image_80.bmp-O_Lure_80.bmp,1,0,2
301,2,124,fuel,1,2,0,3.4998,0,NA,S_Image_124.bmp-S_Lure_124.bmp,1,0,3
302,2,126,sweat,1,1,0,3.5,0,NA,S_Image_126.bmp-S_Lure_126.bmp,1,0,3
303,2,44,wound,1,2,0,3.5001,0,NA,F_Image_44.bmp-F_Lure_44.bmp,1,1,1
304,2,40,hostage,1,2,0,3.4998,0,NA,F_Image_40.bmp-F_Lure_40.bmp,1,0,1
305,2,3,laundry,1,2,0,3.4995,0,NA,F_Image_3.bmp-F_Lure_3.bmp,1,0,1
306,2,23,corpse,1,2,0,3.5001,0,NA,F_Image_23.bmp-F_Lure_23.bmp,1,0,1
307,2,56,animal,1,2,0,3.4997,0,NA,O_Image_56.bmp-O_Lure_56.bmp,1,1,2
308,2,48,alien,1,2,0,3.4998,0,NA,F_Image_48.bmp-F_Lure_48.bmp,1,1,1
309,2,123,bubble,1,1,0,3.5001,0,NA,S_Image_123.bmp-S_Lure_123.bmp,1,1,3
310,2,24,rust,1,2,0,3.4997,0,NA,F_Image_24.bmp-F_Lure_24.bmp,1,1,1
311,2,55,cone,1,2,0,3.5,0,NA,O_Image_55.bmp-O_Lure_55.bmp,1,1,2
312,2,96,yellow,1,2,0,3.4997,0,NA,O_Image_96.bmp-O_Lure_96.bmp,1,0,2
313,3,83,tube,1,1,0,3.5,0,NA,O_Image_83.bmp-O_Lure_83.bmp,1,1,2
314,3,9,witch,1,1,0,3.4998,0,NA,F_Image_9.bmp-F_Lure_9.bmp,1,1,1
315,3,126,sweat,1,2,0,3.4996,0,NA,S_Image_126.bmp-S_Lure_126.bmp,1,0,3
316,3,80,harem,1,2,0,3.4999,0,NA,O_Image_80.bmp-O_Lure_80.bmp,1,0,2
317,3,39,quake,1,2,0,3.5001,0,NA,F_Image_39.bmp-F_Lure_39.bmp,1,0,1
318,3,40,hostage,1,2,0,3.4999,0,NA,F_Image_40.bmp-F_Lure_40.bmp,1,0,1
319,3,96,yellow,1,1,0,3.4996,0,NA,O_Image_96.bmp-O_Lure_96.bmp,1,0,2
320,3,24,rust,1,1,0,3.4997,0,NA,F_Image_24.bmp-F_Lure_24.bmp,1,1,1
321,3,100,giant,1,2,0,3.5,0,NA,S_Image_100.bmp-S_Lure_100.bmp,1,0,3
322,3,55,cone,1,1,0,3.4997,0,NA,O_Image_55.bmp-O_Lure_55.bmp,1,1,2
323,3,11,hurricane,1,1,0,3.4997,0,NA,F_Image_11.bmp-F_Lure_11.bmp,1,0,1
324,3,123,bubble,1,2,0,3.4996,0,NA,S_Image_123.bmp-S_Lure_123.bmp,1,1,3
325,3,48,alien,1,1,0,3.4997,0,NA,F_Image_48.bmp-F_Lure_48.bmp,1,1,1
326,3,18,paper,1,1,0,3.5001,0,NA,F_Image_18.bmp-F_Lure_18.bmp,1,1,1
327,3,44,wound,1,1,0,3.4998,0,NA,F_Image_44.bmp-F_Lure_44.bmp,1,1,1
328,3,16,corner,1,2,0,3.4998,0,NA,F_Image_16.bmp-F_Lure_16.bmp,1,1,1
329,3,105,stem,1,2,0,3.4998,0,NA,S_Image_105.bmp-S_Lure_105.bmp,1,0,3
330,3,3,laundry,1,1,0,3.5,0,NA,F_Image_3.bmp-F_Lure_3.bmp,1,0,1
331,3,37,orchestra,1,2,0,3.4996,0,NA,F_Image_37.bmp-F_Lure_37.bmp,1,1,1
332,3,23,corpse,1,1,0,3.5,0,NA,F_Image_23.bmp-F_Lure_23.bmp,1,0,1
333,3,101,lever,1,1,0,3.5,0,NA,S_Image_101.bmp-S_Lure_101.bmp,1,1,3
334,3,78,antique,1,2,0,3.4996,0,NA,O_Image_78.bmp-O_Lure_78.bmp,1,1,2
335,3,124,fuel,1,2,0,3.5,0,NA,S_Image_124.bmp-S_Lure_124.bmp,1,0,3
336,3,56,animal,1,1,0,3.4995,0,NA,O_Image_56.bmp-O_Lure_56.bmp,1,1,2
337,2,143,shadow,2,2,0,3.4999,0,NA,S_Image_143.bmp-S_Lure_143.bmp,1,0,3
338,2,125,marble,2,2,0,3.4997,0,NA,S_Image_125.bmp-S_Lure_125.bmp,1,1,3
339,2,22,fire,2,2,0,3.5,0,NA,F_Image_22.bmp-F_Lure_22.bmp,1,1,1
340,2,127,money,2,1,0,3.4997,0,NA,S_Image_127.bmp-S_Lure_127.bmp,1,1,3
341,2,73,snow,2,2,0,3.4996,0,NA,O_Image_73.bmp-O_Lure_73.bmp,1,0,2
342,2,10,shell,2,2,0,3.5001,0,NA,F_Image_10.bmp-F_Lure_10.bmp,1,1,1
343,2,1,triangle,2,2,0,3.4996,0,NA,F_Image_1.bmp-F_Lure_1.bmp,1,0,1
344,2,87,stripe,2,2,0,3.4997,0,NA,O_Image_87.bmp-O_Lure_87.bmp,1,0,2
345,2,142,tear,2,2,0,3.4996,0,NA,S_Image_142.bmp-S_Lure_142.bmp,1,0,3
346,2,135,costume,2,2,0,3.4996,0,NA,S_Image_135.bmp-S_Lure_135.bmp,1,0,3
347,2,28,sand,2,2,0,3.4998,0,NA,F_Image_28.bmp-F_Lure_28.bmp,1,0,1
348,2,93,spike,2,2,0,3.4998,0,NA,O_Image_93.bmp-O_Lure_93.bmp,1,1,2
349,2,50,water,2,1,0,3.4997,0,NA,O_Image_50.bmp-O_Lure_50.bmp,1,1,2
350,2,57,seed,2,2,0,3.4996,0,NA,O_Image_57.bmp-O_Lure_57.bmp,1,1,2
351,2,134,crumb,2,1,0,3.4999,0,NA,S_Image_134.bmp-S_Lure_134.bmp,1,1,3
352,2,29,breakfast,2,1,0,3.4998,0,NA,F_Image_29.bmp-F_Lure_29.bmp,1,0,1
353,2,65,poison,2,1,0,3.4999,0,NA,O_Image_65.bmp-O_Lure_65.bmp,1,1,2
354,2,14,alcohol,2,2,0,3.4999,0,NA,F_Image_14.bmp-F_Lure_14.bmp,1,1,1
355,2,137,asphalt,2,1,0,3.5001,0,NA,S_Image_137.bmp-S_Lure_137.bmp,1,0,3
356,2,112,slope,2,1,0,3.5,0,NA,S_Image_112.bmp-S_Lure_112.bmp,1,0,3
357,2,82,arch,2,1,0,3.4998,0,NA,O_Image_82.bmp-O_Lure_82.bmp,1,1,2
358,2,81,measles,2,2,0,3.5001,0,NA,O_Image_81.bmp-O_Lure_81.bmp,1,1,2
359,2,114,menu,2,1,0,3.4997,0,NA,S_Image_114.bmp-S_Lure_114.bmp,1,0,3
360,2,104,signal,2,2,0,3.5001,0,NA,S_Image_104.bmp-S_Lure_104.bmp,1,0,3
361,3,112,slope,2,1,0,3.5,0,NA,S_Image_112.bmp-S_Lure_112.bmp,1,0,3
362,3,81,measles,2,1,0,3.4997,0,NA,O_Image_81.bmp-O_Lure_81.bmp,1,1,2
363,3,104,signal,2,2,0,3.4997,0,NA,S_Image_104.bmp-S_Lure_104.bmp,1,0,3
364,3,10,shell,2,1,0,3.4999,0,NA,F_Image_10.bmp-F_Lure_10.bmp,1,1,1
365,3,65,poison,2,2,0,3.5,0,NA,O_Image_65.bmp-O_Lure_65.bmp,1,1,2
366,3,22,fire,2,1,0,3.5,0,NA,F_Image_22.bmp-F_Lure_22.bmp,1,1,1
367,3,114,menu,2,1,0,3.4998,0,NA,S_Image_114.bmp-S_Lure_114.bmp,1,0,3
368,3,29,breakfast,2,1,0,3.5,0,NA,F_Image_29.bmp-F_Lure_29.bmp,1,0,1
369,3,142,tear,2,2,0,3.4999,0,NA,S_Image_142.bmp-S_Lure_142.bmp,1,0,3
370,3,143,shadow,2,2,0,3.4998,0,NA,S_Image_143.bmp-S_Lure_143.bmp,1,0,3
371,3,28,sand,2,1,0,3.4996,0,NA,F_Image_28.bmp-F_Lure_28.bmp,1,0,1
372,3,14,alcohol,2,1,0,3.4996,0,NA,F_Image_14.bmp-F_Lure_14.bmp,1,1,1
373,3,127,money,2,1,0,3.4997,0,NA,S_Image_127.bmp-S_Lure_127.bmp,1,1,3
374,3,73,snow,2,2,0,3.4997,0,NA,O_Image_73.bmp-O_Lure_73.bmp,1,0,2
375,3,125,marble,2,2,0,3.4995,0,NA,S_Image_125.bmp-S_Lure_125.bmp,1,1,3
376,3,50,water,2,1,0,3.4996,0,NA,O_Image_50.bmp-O_Lure_50.bmp,1,1,2
377,3,135,costume,2,1,0,3.4997,0,NA,S_Image_135.bmp-S_Lure_135.bmp,1,0,3
378,3,87,stripe,2,1,0,3.4997,0,NA,O_Image_87.bmp-O_Lure_87.bmp,1,0,2
379,3,93,spike,2,1,0,3.5,0,NA,O_Image_93.bmp-O_Lure_93.bmp,1,1,2
380,3,82,arch,2,2,0,3.4999,0,NA,O_Image_82.bmp-O_Lure_82.bmp,1,1,2
381,3,134,crumb,2,1,0,3.4999,0,NA,S_Image_134.bmp-S_Lure_134.bmp,1,1,3
382,3,1,triangle,2,2,0,3.5,0,NA,F_Image_1.bmp-F_Lure_1.bmp,1,0,1
383,3,137,asphalt,2,1,0,3.4999,0,NA,S_Image_137.bmp-S_Lure_137.bmp,1,0,3
384,3,57,seed,2,2,0,3.4997,0,NA,O_Image_57.bmp-O_Lure_57.bmp,1,1,2
385,2,8,board,3,1,0,3.4997,0,NA,F_Image_8.bmp-F_Lure_8.bmp,1,1,1
386,2,31,angel,3,1,0,3.4997,0,NA,F_Image_31.bmp-F_Lure_31.bmp,1,0,1
387,2,115,cloud,3,2,0,3.4998,0,NA,S_Image_115.bmp-S_Lure_115.bmp,1,0,3
388,2,64,tourist,3,2,0,3.5,0,NA,O_Image_64.bmp-O_Lure_64.bmp,1,1,2
389,2,98,tail,3,1,0,3.5001,0,NA,S_Image_98.bmp-S_Lure_98.bmp,1,1,3
390,2,51,scar,3,2,0,3.4996,0,NA,O_Image_51.bmp-O_Lure_51.bmp,1,0,2
391,2,53,spray,3,2,0,3.4999,0,NA,O_Image_53.bmp-O_Lure_53.bmp,1,0,2
392,2,54,rock,3,2,0,3.4996,0,NA,O_Image_54.bmp-O_Lure_54.bmp,1,1,2
393,2,79,attack,3,2,0,3.5,0,NA,O_Image_79.bmp-O_Lure_79.bmp,1,1,2
394,2,7,galaxy,3,1,0,3.5001,0,NA,F_Image_7.bmp-F_Lure_7.bmp,1,0,1
395,2,97,honeymoon,3,2,0,3.4999,0,NA,S_Image_97.bmp-S_Lure_97.bmp,1,1,3
396,2,140,kiss,3,2,0,3.4996,0,NA,S_Image_140.bmp-S_Lure_140.bmp,1,1,3
397,2,90,wreck,3,1,0,3.4998,0,NA,O_Image_90.bmp-O_Lure_90.bmp,1,0,2
398,2,131,army,3,1,0,3.4998,0,NA,S_Image_131.bmp-S_Lure_131.bmp,1,0,3
399,2,89,black,3,2,0,3.4999,0,NA,O_Image_89.bmp-O_Lure_89.bmp,1,0,2
400,2,33,sunshine,3,1,0,3.5,0,NA,F_Image_33.bmp-F_Lure_33.bmp,1,0,1
401,2,63,ghost,3,2,0,3.4999,0,NA,O_Image_63.bmp-O_Lure_63.bmp,1,1,2
402,2,138,magnet,3,1,0,3.4996,0,NA,S_Image_138.bmp-S_Lure_138.bmp,1,1,3
403,2,20,arrow,3,1,0,3.4995,0,NA,F_Image_20.bmp-F_Lure_20.bmp,1,0,1
404,2,118,vegetable,3,2,0,3.4998,0,NA,S_Image_118.bmp-S_Lure_118.bmp,1,0,3
405,2,122,steam,3,2,0,3.4997,0,NA,S_Image_122.bmp-S_Lure_122.bmp,1,1,3
406,2,58,drizzle,3,2,0,3.4999,0,NA,O_Image_58.bmp-O_Lure_58.bmp,1,0,2
407,2,77,wool,3,1,0,3.4998,0,NA,O_Image_77.bmp-O_Lure_77.bmp,1,0,2
408,2,17,flood,3,2,0,3.4995,0,NA,F_Image_17.bmp-F_Lure_17.bmp,1,1,1
409,3,89,black,3,2,0,3.4998,0,NA,O_Image_89.bmp-O_Lure_89.bmp,1,0,2
410,3,64,tourist,3,1,0,3.4997,0,NA,O_Image_64.bmp-O_Lure_64.bmp,1,1,2
411,3,77,wool,3,2,0,3.4997,0,NA,O_Image_77.bmp-O_Lure_77.bmp,1,0,2
412,3,140,kiss,3,1,0,3.4998,0,NA,S_Image_140.bmp-S_Lure_140.bmp,1,1,3
413,3,63,ghost,3,2,0,3.5,0,NA,O_Image_63.bmp-O_Lure_63.bmp,1,1,2
414,3,33,sunshine,3,2,0,3.4998,0,NA,F_Image_33.bmp-F_Lure_33.bmp,1,0,1
415,3,122,steam,3,1,0,3.4996,0,NA,S_Image_122.bmp-S_Lure_122.bmp,1,1,3
416,3,90,wreck,3,2,0,3.4996,0,NA,O_Image_90.bmp-O_Lure_90.bmp,1,0,2
417,3,53,spray,3,1,0,3.4998,0,NA,O_Image_53.bmp-O_Lure_53.bmp,1,0,2
418,3,31,angel,3,2,0,3.5,0,NA,F_Image_31.bmp-F_Lure_31.bmp,1,0,1
419,3,51,scar,3,1,0,3.4998,0,NA,O_Image_51.bmp-O_Lure_51.bmp,1,0,2
420,3,98,tail,3,1,0,3.4998,0,NA,S_Image_98.bmp-S_Lure_98.bmp,1,1,3
421,3,58,drizzle,3,2,0,3.4997,0,NA,O_Image_58.bmp-O_Lure_58.bmp,1,0,2
422,3,118,vegetable,3,2,0,3.4997,0,NA,S_Image_118.bmp-S_Lure_118.bmp,1,0,3
423,3,97,honeymoon,3,1,0,3.4996,0,NA,S_Image_97.bmp-S_Lure_97.bmp,1,1,3
424,3,7,galaxy,3,1,0,3.5,0,NA,F_Image_7.bmp-F_Lure_7.bmp,1,0,1
425,3,138,magnet,3,1,0,3.4999,0,NA,S_Image_138.bmp-S_Lure_138.bmp,1,1,3
426,3,115,cloud,3,1,0,3.4997,0,NA,S_Image_115.bmp-S_Lure_115.bmp,1,0,3
427,3,20,arrow,3,1,0,3.4995,0,NA,F_Image_20.bmp-F_Lure_20.bmp,1,0,1
428,3,17,flood,3,1,0,3.4997,0,NA,F_Image_17.bmp-F_Lure_17.bmp,1,1,1
429,3,8,board,3,1,0,3.5,0,NA,F_Image_8.bmp-F_Lure_8.bmp,1,1,1
430,3,54,rock,3,2,0,3.4999,0,NA,O_Image_54.bmp-O_Lure_54.bmp,1,1,2
431,3,79,attack,3,1,0,3.4998,0,NA,O_Image_79.bmp-O_Lure_79.bmp,1,1,2
432,3,131,army,3,1,0,3.5001,0,NA,S_Image_131.bmp-S_Lure_131.bmp,1,0,3
433,4,70,shadow,1,1,0,3.4996,0,NA,O_Image_70.bmp-O_Lure_70.bmp,2,0,2
434,4,136,antique,1,2,0,3.4997,0,NA,S_Image_136.bmp-S_Lure_136.bmp,2,1,3
435,4,113,breakfast,1,2,0,3.4996,0,NA,S_Image_113.bmp-S_Lure_113.bmp,2,0,3
436,4,27,water,1,1,0,3.5001,0,NA,F_Image_27.bmp-F_Lure_27.bmp,2,1,1
437,4,91,honeymoon,1,1,0,3.4999,0,NA,O_Image_91.bmp-O_Lure_91.bmp,2,1,2
438,4,49,fire,1,1,0,3.4998,0,NA,O_Image_49.bmp-O_Lure_49.bmp,2,1,2
439,4,109,drizzle,1,2,0,3.4995,0,NA,S_Image_109.bmp-S_Lure_109.bmp,2,0,3
440,4,32,spike,1,1,0,3.4997,0,NA,F_Image_32.bmp-F_Lure_32.bmp,2,1,1
441,4,103,scar,1,2,0,3.4997,0,NA,S_Image_103.bmp-S_Lure_103.bmp,2,0,3
442,4,35,kiss,1,2,0,3.4995,0,NA,F_Image_35.bmp-F_Lure_35.bmp,2,1,1
443,4,60,alcohol,1,2,0,3.5001,0,NA,O_Image_60.bmp-O_Lure_60.bmp,2,1,2
444,4,45,tube,1,1,0,3.4996,0,NA,F_Image_45.bmp-F_Lure_45.bmp,2,1,1
445,4,94,witch,1,1,0,3.4995,0,NA,O_Image_94.bmp-O_Lure_94.bmp,2,1,2
446,4,110,wound,1,1,0,3.5,0,NA,S_Image_110.bmp-S_Lure_110.bmp,2,1,3
447,4,62,sand,1,1,0,3.5,0,NA,O_Image_62.bmp-O_Lure_62.bmp,2,0,2
448,4,133,corpse,1,2,0,3.4998,0,NA,S_Image_133.bmp-S_Lure_133.bmp,2,0,3
449,4,26,crumb,1,1,0,3.5,0,NA,F_Image_26.bmp-F_Lure_26.bmp,2,1,1
450,4,88,tail,1,2,0,3.4997,0,NA,O_Image_88.bmp-O_Lure_88.bmp,2,1,2
451,4,74,galaxy,1,1,0,3.4996,0,NA,O_Image_74.bmp-O_Lure_74.bmp,2,0,2
452,4,52,orchestra,1,1,0,3.4997,0,NA,O_Image_52.bmp-O_Lure_52.bmp,2,1,2
453,4,144,poison,1,2,0,3.4997,0,NA,S_Image_144.bmp-S_Lure_144.bmp,2,1,3
454,4,120,sunshine,1,1,0,3.4995,0,NA,S_Image_120.bmp-S_Lure_120.bmp,2,0,3
455,4,36,wool,1,2,0,3.4995,0,NA,F_Image_36.bmp-F_Lure_36.bmp,2,0,1
456,4,132,attack,1,1,0,3.5,0,NA,S_Image_132.bmp-S_Lure_132.bmp,2,1,3
457,4,42,animal,2,1,0,3.4999,0,NA,F_Image_42.bmp-F_Lure_42.bmp,2,1,1
458,4,25,bubble,2,1,0,3.4999,0,NA,F_Image_25.bmp-F_Lure_25.bmp,2,1,1
459,4,99,hostage,2,2,0,3.5,0,NA,S_Image_99.bmp-S_Lure_99.bmp,2,0,3
460,4,47,ghost,2,1,0,3.4998,0,NA,F_Image_47.bmp-F_Lure_47.bmp,2,1,1
461,4,116,stripe,2,1,0,3.4999,0,NA,S_Image_116.bmp-S_Lure_116.bmp,2,0,3
462,4,92,tear,2,2,0,3.4998,0,NA,O_Image_92.bmp-O_Lure_92.bmp,2,0,2
463,4,46,fuel,2,2,0,3.4999,0,NA,F_Image_46.bmp-F_Lure_46.bmp,2,0,1
464,4,69,alien,2,1,0,3.4997,0,NA,O_Image_69.bmp-O_Lure_69.bmp,2,1,2
465,4,139,harem,2,2,0,3.5001,0,NA,S_Image_139.bmp-S_Lure_139.bmp,2,0,3
466,4,107,shell,2,1,0,3.4996,0,NA,S_Image_107.bmp-S_Lure_107.bmp,2,1,3
467,4,38,rock,2,2,0,3.4999,0,NA,F_Image_38.bmp-F_Lure_38.bmp,2,1,1
468,4,68,lever,2,1,0,3.5,0,NA,O_Image_68.bmp-O_Lure_68.bmp,2,1,2
469,4,12,army,2,2,0,3.4995,0,NA,F_Image_12.bmp-F_Lure_12.bmp,2,0,1
470,4,85,rust,2,1,0,3.4999,0,NA,O_Image_85.bmp-O_Lure_85.bmp,2,1,2
471,4,19,vegetable,2,1,0,3.4997,0,NA,F_Image_19.bmp-F_Lure_19.bmp,2,0,1
472,4,108,spray,2,2,0,3.5001,0,NA,S_Image_108.bmp-S_Lure_108.bmp,2,0,3
473,4,4,cloud,2,1,0,3.5,0,NA,F_Image_4.bmp-F_Lure_4.bmp,2,0,1
474,4,72,costume,2,2,0,3.4995,0,NA,O_Image_72.bmp-O_Lure_72.bmp,2,0,2
475,4,119,hurricane,2,1,0,3.4998,0,NA,S_Image_119.bmp-S_Lure_119.bmp,2,0,3
476,4,128,snow,2,1,0,3.4996,0,NA,S_Image_128.bmp-S_Lure_128.bmp,2,0,3
477,4,2,giant,2,2,0,3.4996,0,NA,F_Image_2.bmp-F_Lure_2.bmp,2,0,1
478,4,6,yellow,2,2,0,3.5001,0,NA,F_Image_6.bmp-F_Lure_6.bmp,2,0,1
479,4,15,black,2,1,0,3.4995,0,NA,F_Image_15.bmp-F_Lure_15.bmp,2,0,1
480,4,86,stem,2,1,0,3.5,0,NA,O_Image_86.bmp-O_Lure_86.bmp,2,0,2
481,4,75,signal,3,2,0,3.4997,0,NA,O_Image_75.bmp-O_Lure_75.bmp,2,0,2
482,4,61,quake,3,2,0,3.4998,0,NA,O_Image_61.bmp-O_Lure_61.bmp,2,0,2
483,4,34,menu,3,2,0,3.4996,0,NA,F_Image_34.bmp-F_Lure_34.bmp,2,0,1
484,4,76,sweat,3,1,0,3.4997,0,NA,O_Image_76.bmp-O_Lure_76.bmp,2,0,2
485,4,5,cone,3,2,0,3.4997,0,NA,F_Image_5.bmp-F_Lure_5.bmp,2,1,1
486,4,111,arrow,3,1,0,3.5001,0,NA,S_Image_111.bmp-S_Lure_111.bmp,2,0,3
487,4,59,corner,3,1,0,3.4999,0,NA,O_Image_59.bmp-O_Lure_59.bmp,2,1,2
488,4,84,paper,3,1,0,3.4998,0,NA,O_Image_84.bmp-O_Lure_84.bmp,2,1,2
489,4,130,flood,3,2,0,3.4995,0,NA,S_Image_130.bmp-S_Lure_130.bmp,2,1,3
490,4,121,seed,3,2,0,3.4997,0,NA,S_Image_121.bmp-S_Lure_121.bmp,2,1,3
491,4,66,angel,3,2,0,3.4997,0,NA,O_Image_66.bmp-O_Lure_66.bmp,2,0,2
492,4,129,board,3,2,0,3.5001,0,NA,S_Image_129.bmp-S_Lure_129.bmp,2,1,3
493,4,30,arch,3,1,0,3.4999,0,NA,F_Image_30.bmp-F_Lure_30.bmp,2,1,1
494,4,102,wreck,3,2,0,3.4995,0,NA,S_Image_102.bmp-S_Lure_102.bmp,2,0,3
495,4,41,measles,3,2,0,3.4999,0,NA,F_Image_41.bmp-F_Lure_41.bmp,2,1,1
496,4,95,asphalt,3,1,0,3.4999,0,NA,O_Image_95.bmp-O_Lure_95.bmp,2,0,2
497,4,106,tourist,3,2,0,3.4996,0,NA,S_Image_106.bmp-S_Lure_106.bmp,2,1,3
498,4,117,triangle,3,2,0,3.4998,0,NA,S_Image_117.bmp-S_Lure_117.bmp,2,0,3
499,4,71,marble,3,1,0,3.5,0,NA,O_Image_71.bmp-O_Lure_71.bmp,2,1,2
500,4,67,money,3,2,0,3.4996,0,NA,O_Image_67.bmp-O_Lure_67.bmp,2,1,2
501,4,21,slope,3,1,0,3.4995,0,NA,F_Image_21.bmp-F_Lure_21.bmp,2,0,1
502,4,141,laundry,3,1,0,3.5001,0,NA,S_Image_141.bmp-S_Lure_141.bmp,2,0,3
503,4,13,magnet,3,1,0,3.4998,0,NA,F_Image_13.bmp-F_Lure_13.bmp,2,1,1
504,4,43,steam,3,1,0,3.4996,0,NA,F_Image_43.bmp-F_Lure_43.bmp,2,1,1
