Subject,Trial,Cond,ImageNum,CueNum,Correct,Resp,Accuracy,RT,CueRep,ImageType,Baseline,Category,Block
12,1,1,3,NaN,NaN,1,NaN,2.433641e+00,NaN,0,0,1,1
12,2,1,81,NaN,NaN,1,NaN,7.586438e-01,NaN,1,0,2,1
12,3,1,94,NaN,NaN,1,NaN,5.303153e-01,NaN,1,0,2,1
12,4,1,32,NaN,NaN,2,NaN,8.217888e-01,NaN,2,0,1,1
12,5,1,121,NaN,NaN,1,NaN,6.867464e-01,NaN,2,0,3,1
12,6,1,76,NaN,NaN,1,NaN,6.606299e-01,NaN,1,0,2,1
12,7,1,119,NaN,NaN,1,NaN,6.359351e-01,NaN,0,0,3,1
12,8,1,44,NaN,NaN,1,NaN,3.401479e-01,NaN,1,0,1,1
12,9,1,58,NaN,NaN,1,NaN,4.482170e-01,NaN,0,0,2,1
12,10,1,97,NaN,NaN,1,NaN,3.437831e-01,NaN,0,0,3,1
12,11,1,126,NaN,NaN,2,NaN,7.397128e-01,NaN,1,0,3,1
12,12,1,111,NaN,NaN,1,NaN,9.520385e-01,NaN,2,0,3,1
12,13,1,41,NaN,NaN,2,NaN,2.283789e+00,NaN,1,1,1,1
12,14,1,33,NaN,NaN,1,NaN,3.863427e-01,NaN,0,0,1,1
12,15,1,26,NaN,NaN,2,NaN,2.740261e+00,NaN,2,1,1,1
12,16,1,60,NaN,NaN,1,NaN,4.646269e-01,NaN,1,0,2,1
12,17,1,28,NaN,NaN,1,NaN,4.234676e-01,NaN,1,0,1,1
12,18,1,4,NaN,NaN,1,NaN,4.723666e-01,NaN,0,0,1,1
12,19,1,52,NaN,NaN,1,NaN,4.153150e-01,NaN,2,0,2,1
12,20,1,62,NaN,NaN,1,NaN,4.801579e-01,NaN,0,0,2,1
12,21,1,35,NaN,NaN,2,NaN,1.870985e+00,NaN,2,0,1,1
12,22,1,38,NaN,NaN,1,NaN,4.138682e-01,NaN,0,1,1,1
12,23,1,91,NaN,NaN,1,NaN,4.793870e-01,NaN,0,0,2,1
12,24,1,123,NaN,NaN,1,NaN,7.335491e-01,NaN,2,0,3,1
12,25,1,72,NaN,NaN,1,NaN,5.622602e-01,NaN,0,0,2,1
12,26,1,136,NaN,NaN,2,NaN,1.397290e+00,NaN,0,0,3,1
12,27,1,10,NaN,NaN,1,NaN,4.392424e-01,NaN,0,1,1,1
12,28,1,2,NaN,NaN,2,NaN,6.789530e-01,NaN,2,0,1,1
12,29,1,140,NaN,NaN,1,NaN,7.892418e-01,NaN,0,0,3,1
12,30,1,137,NaN,NaN,1,NaN,5.356143e-01,NaN,0,1,3,1
12,31,1,93,NaN,NaN,1,NaN,5.239041e-01,NaN,2,0,2,1
12,32,1,125,NaN,NaN,1,NaN,4.086807e-01,NaN,1,0,3,1
12,33,1,124,NaN,NaN,2,NaN,5.786330e-01,NaN,0,1,3,1
12,34,1,36,NaN,NaN,2,NaN,8.376144e-01,NaN,1,0,1,1
12,35,1,50,NaN,NaN,1,NaN,2.783965e-01,NaN,0,0,2,1
12,36,1,15,NaN,NaN,1,NaN,3.255283e-01,NaN,0,0,1,1
12,37,1,61,NaN,NaN,1,NaN,3.066395e-01,NaN,1,1,2,1
12,38,1,49,NaN,NaN,1,NaN,4.247048e-01,NaN,1,0,2,1
12,39,1,120,NaN,NaN,1,NaN,2.904843e-01,NaN,1,0,3,1
12,40,1,56,NaN,NaN,1,NaN,2.966106e-01,NaN,0,0,2,1
12,41,1,24,NaN,NaN,1,NaN,2.949864e-01,NaN,0,1,1,1
12,42,1,135,NaN,NaN,2,NaN,6.053969e-01,NaN,0,0,3,1
12,43,1,78,NaN,NaN,1,NaN,4.395760e-01,NaN,0,1,2,1
12,44,1,43,NaN,NaN,1,NaN,1.200075e+00,NaN,1,0,1,1
12,45,1,46,NaN,NaN,2,NaN,4.822271e-01,NaN,0,0,1,1
12,46,1,46,NaN,NaN,2,NaN,5.851568e-01,NaN,2,0,1,1
12,47,1,10,NaN,NaN,1,NaN,1.249649e-04,NaN,2,1,1,1
12,48,1,9,NaN,NaN,1,NaN,3.186353e-01,NaN,2,0,1,1
12,49,1,67,NaN,NaN,1,NaN,2.686472e-01,NaN,1,1,2,1
12,50,1,97,NaN,NaN,1,NaN,3.000212e-01,NaN,1,0,3,1
12,51,1,121,NaN,NaN,1,NaN,2.427323e-01,NaN,0,0,3,1
12,52,1,42,NaN,NaN,1,NaN,2.670860e-01,NaN,0,0,1,1
12,53,1,55,NaN,NaN,1,NaN,4.032151e-01,NaN,0,1,2,1
12,54,1,42,NaN,NaN,1,NaN,3.492942e-01,NaN,2,0,1,1
12,55,1,54,NaN,NaN,1,NaN,4.414776e-01,NaN,2,0,2,1
12,56,1,68,NaN,NaN,1,NaN,2.022380e-03,NaN,1,1,2,1
12,57,1,14,NaN,NaN,1,NaN,2.124872e-01,NaN,1,0,1,1
12,58,1,66,NaN,NaN,1,NaN,1.978723e-01,NaN,0,0,2,1
12,59,1,92,NaN,NaN,1,NaN,2.166524e-01,NaN,2,0,2,1
12,60,1,59,NaN,NaN,1,NaN,3.381419e-01,NaN,2,0,2,1
12,61,1,131,NaN,NaN,2,NaN,1.646688e+00,NaN,1,1,3,1
12,62,1,57,NaN,NaN,1,NaN,2.869020e-01,NaN,0,1,2,1
12,63,1,86,NaN,NaN,1,NaN,2.855165e-01,NaN,0,0,2,1
12,64,1,31,NaN,NaN,1,NaN,3.325562e-01,NaN,0,1,1,1
12,65,1,37,NaN,NaN,1,NaN,2.656737e-01,NaN,0,0,1,1
12,66,1,115,NaN,NaN,1,NaN,3.937531e-01,NaN,0,0,3,1
12,67,1,98,NaN,NaN,1,NaN,2.680036e-01,NaN,0,0,3,1
12,68,1,100,NaN,NaN,1,NaN,2.757324e-01,NaN,2,1,3,1
12,69,1,112,NaN,NaN,1,NaN,3.071835e-01,NaN,2,1,3,1
12,70,1,102,NaN,NaN,2,NaN,2.971467e-01,NaN,1,0,3,1
12,71,1,105,NaN,NaN,1,NaN,4.076520e-01,NaN,0,0,3,1
12,72,1,100,NaN,NaN,1,NaN,3.939067e-01,NaN,0,1,3,1
12,73,1,114,NaN,NaN,1,NaN,3.401585e-01,NaN,2,0,3,1
12,74,1,27,NaN,NaN,1,NaN,2.651829e-01,NaN,0,0,1,1
12,75,1,61,NaN,NaN,1,NaN,2.485855e-01,NaN,0,1,2,1
12,76,1,71,NaN,NaN,1,NaN,2.647760e-01,NaN,2,0,2,1
12,77,1,12,NaN,NaN,2,NaN,2.569765e-01,NaN,2,0,1,1
12,78,1,143,NaN,NaN,1,NaN,2.728377e-01,NaN,2,0,3,1
12,79,1,59,NaN,NaN,1,NaN,2.559566e-01,NaN,0,0,2,1
12,80,1,5,NaN,NaN,1,NaN,2.891381e-01,NaN,0,0,1,1
12,81,1,43,NaN,NaN,1,NaN,4.067989e-01,NaN,0,0,1,1
12,82,1,22,NaN,NaN,1,NaN,9.686981e-01,NaN,0,0,1,1
12,83,1,132,NaN,NaN,1,NaN,2.768097e-01,NaN,0,0,3,1
12,84,1,38,NaN,NaN,1,NaN,3.559672e-01,NaN,1,1,1,1
12,85,1,24,NaN,NaN,1,NaN,2.958578e-01,NaN,2,1,1,1
12,86,1,41,NaN,NaN,1,NaN,9.425548e-01,NaN,0,1,1,1
12,87,1,99,NaN,NaN,2,NaN,4.108540e-01,NaN,0,0,3,1
12,88,1,25,NaN,NaN,1,NaN,3.249774e-01,NaN,1,0,1,1
12,89,1,101,NaN,NaN,2,NaN,2.421815e-01,NaN,0,0,3,1
12,90,1,123,NaN,NaN,1,NaN,2.750038e-01,NaN,0,0,3,1
12,91,1,144,NaN,NaN,1,NaN,3.064874e-01,NaN,2,0,3,1
12,92,1,131,NaN,NaN,1,NaN,2.723364e-01,NaN,0,1,3,1
12,93,1,73,NaN,NaN,1,NaN,2.318341e-01,NaN,1,0,2,1
12,94,1,80,NaN,NaN,1,NaN,2.090633e-01,NaN,2,0,2,1
12,95,1,88,NaN,NaN,1,NaN,2.669758e-01,NaN,0,1,2,1
12,96,1,119,NaN,NaN,1,NaN,2.421552e-01,NaN,1,0,3,1
12,97,1,29,NaN,NaN,1,NaN,2.509079e-01,NaN,1,0,1,1
12,98,1,50,NaN,NaN,1,NaN,2.674688e-01,NaN,2,0,2,1
12,99,1,30,NaN,NaN,1,NaN,2.672723e-01,NaN,1,1,1,1
12,100,1,111,NaN,NaN,1,NaN,2.746690e-01,NaN,0,0,3,1
12,101,1,81,NaN,NaN,1,NaN,2.263465e-01,NaN,0,0,2,1
12,102,1,142,NaN,NaN,1,NaN,2.436518e-01,NaN,0,0,3,1
12,103,1,77,NaN,NaN,1,NaN,2.684452e-01,NaN,0,0,2,1
12,104,1,1,NaN,NaN,1,NaN,2.598999e-01,NaN,0,0,1,1
12,105,1,113,NaN,NaN,1,NaN,2.281136e-01,NaN,0,0,3,1
12,106,1,64,NaN,NaN,1,NaN,2.535149e-01,NaN,0,0,2,1
12,107,1,7,NaN,NaN,2,NaN,1.741315e+00,NaN,1,0,1,1
12,108,1,29,NaN,NaN,1,NaN,2.979032e-01,NaN,0,0,1,1
12,109,1,5,NaN,NaN,1,NaN,3.202369e-01,NaN,2,0,1,1
12,110,1,82,NaN,NaN,1,NaN,3.495719e-01,NaN,0,0,2,1
12,111,1,69,NaN,NaN,1,NaN,3.705362e-01,NaN,2,1,2,1
12,112,1,48,NaN,NaN,1,NaN,3.094437e-01,NaN,1,0,1,1
12,113,1,4,NaN,NaN,1,NaN,4.517806e-01,NaN,1,0,1,1
12,114,1,3,NaN,NaN,1,NaN,2.761137e-01,NaN,1,0,1,1
12,115,1,132,NaN,NaN,1,NaN,2.594508e-01,NaN,1,0,3,1
12,116,1,94,NaN,NaN,1,NaN,2.750804e-01,NaN,0,0,2,1
12,117,1,39,NaN,NaN,2,NaN,2.747502e-01,NaN,2,0,1,1
12,118,1,51,NaN,NaN,1,NaN,2.898438e-01,NaN,1,0,2,1
12,119,1,64,NaN,NaN,1,NaN,3.448978e-01,NaN,1,0,2,1
12,120,1,77,NaN,NaN,1,NaN,2.370642e-01,NaN,1,0,2,1
12,121,1,134,NaN,NaN,2,NaN,9.581645e-01,NaN,0,1,3,1
12,122,1,54,NaN,NaN,1,NaN,2.661615e-01,NaN,0,0,2,1
12,123,1,129,NaN,NaN,1,NaN,3.055224e-01,NaN,0,0,3,1
12,124,1,74,NaN,NaN,1,NaN,5.277152e-01,NaN,0,0,2,1
12,125,1,16,NaN,NaN,1,NaN,3.007976e-01,NaN,2,1,1,1
12,126,1,6,NaN,NaN,1,NaN,2.273203e-01,NaN,2,0,1,1
12,127,1,141,NaN,NaN,1,NaN,2.686888e-01,NaN,0,0,3,1
12,128,1,51,NaN,NaN,1,NaN,3.959557e-01,NaN,0,0,2,1
12,129,1,103,NaN,NaN,1,NaN,2.868229e-01,NaN,0,0,3,1
12,130,1,7,NaN,NaN,1,NaN,4.215403e-01,NaN,0,0,1,1
12,131,1,139,NaN,NaN,1,NaN,2.947811e-01,NaN,2,0,3,1
12,132,1,62,NaN,NaN,1,NaN,2.367902e-01,NaN,2,0,2,1
12,133,1,21,NaN,NaN,1,NaN,3.260172e-01,NaN,0,0,1,1
12,134,1,108,NaN,NaN,1,NaN,4.107972e-01,NaN,0,0,3,1
12,135,1,107,NaN,NaN,1,NaN,2.452102e-01,NaN,0,0,3,1
12,136,1,110,NaN,NaN,1,NaN,3.653347e-01,NaN,0,0,3,1
12,137,1,116,NaN,NaN,1,NaN,2.810905e-01,NaN,0,0,3,1
12,138,1,95,NaN,NaN,1,NaN,3.202824e-01,NaN,0,0,2,1
12,139,1,113,NaN,NaN,1,NaN,3.736630e-01,NaN,1,0,3,1
12,140,1,18,NaN,NaN,1,NaN,2.887424e-01,NaN,0,0,1,1
12,141,1,34,NaN,NaN,1,NaN,3.915336e-01,NaN,1,0,1,1
12,142,1,128,NaN,NaN,1,NaN,3.460627e-01,NaN,0,0,3,1
12,143,1,76,NaN,NaN,1,NaN,2.789384e-01,NaN,0,0,2,1
12,144,1,122,NaN,NaN,2,NaN,5.258377e-01,NaN,1,0,3,1
12,145,1,19,NaN,NaN,2,NaN,2.830658e-01,NaN,0,0,1,1
12,146,1,89,NaN,NaN,1,NaN,2.660649e-01,NaN,0,1,2,1
12,147,1,65,NaN,NaN,1,NaN,2.257791e-01,NaN,2,0,2,1
12,148,1,73,NaN,NaN,1,NaN,3.550242e-01,NaN,0,0,2,1
12,149,1,110,NaN,NaN,1,NaN,2.722313e-01,NaN,1,0,3,1
12,150,1,40,NaN,NaN,1,NaN,3.189344e-01,NaN,1,0,1,1
12,151,1,118,NaN,NaN,1,NaN,2.845265e-01,NaN,2,1,3,1
12,152,1,53,NaN,NaN,1,NaN,2.832660e-01,NaN,0,0,2,1
12,153,1,116,NaN,NaN,1,NaN,2.263659e-01,NaN,2,0,3,1
12,154,1,133,NaN,NaN,2,NaN,2.757608e-01,NaN,2,0,3,1
12,155,1,34,NaN,NaN,1,NaN,2.914795e-01,NaN,0,0,1,1
12,156,1,139,NaN,NaN,1,NaN,2.740729e-01,NaN,0,0,3,1
12,157,1,79,NaN,NaN,1,NaN,3.211835e-01,NaN,1,1,2,1
12,158,1,99,NaN,NaN,2,NaN,2.790295e-01,NaN,1,0,3,1
12,159,1,68,NaN,NaN,1,NaN,3.978528e-01,NaN,0,1,2,1
12,160,1,56,NaN,NaN,1,NaN,2.726231e-01,NaN,1,0,2,1
12,161,1,27,NaN,NaN,1,NaN,2.955107e-01,NaN,2,0,1,1
12,162,1,135,NaN,NaN,1,NaN,3.020714e-01,NaN,2,0,3,1
12,163,1,117,NaN,NaN,2,NaN,3.325046e-01,NaN,0,1,3,1
12,164,1,14,NaN,NaN,1,NaN,3.373586e-01,NaN,0,0,1,1
12,165,1,67,NaN,NaN,1,NaN,2.222550e-01,NaN,0,1,2,1
12,166,1,133,NaN,NaN,1,NaN,1.383159e+00,NaN,0,0,3,1
12,167,1,118,NaN,NaN,1,NaN,2.661793e-01,NaN,0,1,3,1
12,168,1,37,NaN,NaN,1,NaN,3.383049e-01,NaN,2,0,1,1
12,169,1,22,NaN,NaN,1,NaN,3.350594e-01,NaN,2,0,1,1
12,170,1,95,NaN,NaN,1,NaN,2.678198e-01,NaN,1,0,2,1
12,171,1,13,NaN,NaN,1,NaN,2.190937e-01,NaN,0,1,1,1
12,172,1,11,NaN,NaN,1,NaN,3.167819e-01,NaN,0,1,1,1
12,173,1,112,NaN,NaN,1,NaN,1.010621e+00,NaN,0,1,3,1
12,174,1,125,NaN,NaN,1,NaN,3.009648e-01,NaN,0,0,3,1
12,175,1,9,NaN,NaN,1,NaN,2.832786e-01,NaN,0,0,1,1
12,176,1,8,NaN,NaN,2,NaN,8.420778e-01,NaN,1,0,1,1
12,177,1,104,NaN,NaN,1,NaN,3.466174e-01,NaN,0,0,3,1
12,178,1,63,NaN,NaN,1,NaN,3.673345e-01,NaN,0,0,2,1
12,179,1,87,NaN,NaN,1,NaN,4.426639e-01,NaN,0,1,2,1
12,180,1,130,NaN,NaN,2,NaN,3.153970e-01,NaN,1,0,3,1
12,181,1,16,NaN,NaN,1,NaN,5.052876e-01,NaN,0,1,1,1
12,182,1,33,NaN,NaN,1,NaN,3.914479e-01,NaN,1,0,1,1
12,183,1,92,NaN,NaN,1,NaN,3.059709e-01,NaN,0,0,2,1
12,184,1,140,NaN,NaN,1,NaN,2.559641e-01,NaN,1,0,3,1
12,185,1,122,NaN,NaN,2,NaN,5.042909e-01,NaN,0,0,3,1
12,186,1,117,NaN,NaN,1,NaN,2.541518e-01,NaN,2,1,3,1
12,187,1,31,NaN,NaN,1,NaN,2.143768e-01,NaN,2,1,1,1
12,188,1,20,NaN,NaN,2,NaN,2.320976e-01,NaN,1,1,1,1
12,189,1,105,NaN,NaN,1,NaN,2.967827e-01,NaN,1,0,3,1
12,190,1,109,NaN,NaN,1,NaN,2.871329e-01,NaN,0,0,3,1
12,191,1,26,NaN,NaN,1,NaN,9.497831e-01,NaN,0,1,1,1
12,192,1,17,NaN,NaN,1,NaN,3.541679e-01,NaN,0,0,1,1
12,193,1,87,NaN,NaN,1,NaN,5.981749e-01,NaN,1,1,2,1
12,194,1,91,NaN,NaN,1,NaN,3.525729e-01,NaN,2,0,2,1
12,195,1,74,NaN,NaN,1,NaN,3.173959e-01,NaN,2,0,2,1
12,196,1,15,NaN,NaN,1,NaN,3.948929e-01,NaN,1,0,1,1
12,197,1,23,NaN,NaN,2,NaN,2.132041e-01,NaN,0,0,1,1
12,198,1,93,NaN,NaN,1,NaN,3.427544e-01,NaN,0,0,2,1
12,199,1,96,NaN,NaN,1,NaN,6.194645e-01,NaN,0,1,2,1
12,200,1,11,NaN,NaN,1,NaN,3.408322e-01,NaN,1,1,1,1
12,201,1,65,NaN,NaN,1,NaN,4.655050e-01,NaN,0,0,2,1
12,202,1,143,NaN,NaN,1,NaN,3.373163e-01,NaN,0,0,3,1
12,203,1,1,NaN,NaN,1,NaN,2.621734e-01,NaN,2,0,1,1
12,204,1,47,NaN,NaN,1,NaN,2.856786e-01,NaN,2,1,1,1
12,205,1,66,NaN,NaN,1,NaN,3.569361e-01,NaN,2,0,2,1
12,206,1,63,NaN,NaN,1,NaN,2.885447e-01,NaN,2,0,2,1
12,207,1,58,NaN,NaN,1,NaN,6.475952e-01,NaN,2,0,2,1
12,208,1,90,NaN,NaN,1,NaN,3.198644e-01,NaN,1,0,2,1
12,209,1,86,NaN,NaN,1,NaN,2.935535e-01,NaN,1,0,2,1
12,210,1,85,NaN,NaN,1,NaN,2.839753e-01,NaN,1,1,2,1
12,211,1,142,NaN,NaN,1,NaN,2.193772e-01,NaN,2,0,3,1
12,212,1,78,NaN,NaN,1,NaN,1.730656e-01,NaN,2,1,2,1
12,213,1,115,NaN,NaN,1,NaN,3.762118e-01,NaN,2,0,3,1
12,214,1,19,NaN,NaN,2,NaN,8.353874e-01,NaN,1,0,1,1
12,215,1,136,NaN,NaN,1,NaN,3.080470e-01,NaN,2,0,3,1
12,216,1,80,NaN,NaN,1,NaN,4.582887e-01,NaN,0,0,2,1
12,217,1,82,NaN,NaN,1,NaN,2.581320e-01,NaN,2,0,2,1
12,218,1,60,NaN,NaN,1,NaN,2.511581e-01,NaN,0,0,2,1
12,219,1,25,NaN,NaN,1,NaN,3.387637e-01,NaN,0,0,1,1
12,220,1,70,NaN,NaN,1,NaN,2.561615e-01,NaN,0,0,2,1
12,221,1,30,NaN,NaN,1,NaN,2.477189e-01,NaN,0,1,1,1
12,222,1,55,NaN,NaN,1,NaN,3.041789e-01,NaN,1,1,2,1
12,223,1,8,NaN,NaN,1,NaN,3.181070e-01,NaN,0,0,1,1
12,224,1,141,NaN,NaN,1,NaN,3.396236e-01,NaN,2,0,3,1
12,225,1,84,NaN,NaN,1,NaN,3.203706e-01,NaN,0,1,2,1
12,226,1,96,NaN,NaN,1,NaN,3.498059e-01,NaN,2,1,2,1
12,227,1,130,NaN,NaN,2,NaN,3.542856e-01,NaN,0,0,3,1
12,228,1,49,NaN,NaN,1,NaN,5.820734e-01,NaN,0,0,2,1
12,229,1,90,NaN,NaN,1,NaN,2.490518e-01,NaN,0,0,2,1
12,230,1,114,NaN,NaN,1,NaN,3.536894e-01,NaN,0,0,3,1
12,231,1,32,NaN,NaN,2,NaN,2.695521e-01,NaN,0,0,1,1
12,232,1,45,NaN,NaN,2,NaN,2.850233e-01,NaN,2,1,1,1
12,233,1,137,NaN,NaN,1,NaN,4.124106e-01,NaN,1,1,3,1
12,234,1,104,NaN,NaN,1,NaN,3.180008e-01,NaN,2,0,3,1
12,235,1,12,NaN,NaN,1,NaN,2.999775e-01,NaN,0,0,1,1
12,236,1,106,NaN,NaN,1,NaN,2.343126e-01,NaN,1,0,3,1
12,237,1,103,NaN,NaN,1,NaN,2.355523e-01,NaN,1,0,3,1
12,238,1,48,NaN,NaN,1,NaN,2.919718e-01,NaN,0,0,1,1
12,239,1,127,NaN,NaN,1,NaN,2.506730e-01,NaN,1,0,3,1
12,240,1,109,NaN,NaN,1,NaN,3.391793e-01,NaN,2,0,3,1
12,241,1,17,NaN,NaN,1,NaN,4.329362e-01,NaN,1,0,1,1
12,242,1,44,NaN,NaN,1,NaN,3.373181e-01,NaN,0,0,1,1
12,243,1,28,NaN,NaN,1,NaN,2.935273e-01,NaN,0,0,1,1
12,244,1,23,NaN,NaN,1,NaN,4.364893e-01,NaN,2,0,1,1
12,245,1,84,NaN,NaN,1,NaN,3.251437e-01,NaN,2,1,2,1
12,246,1,35,NaN,NaN,1,NaN,3.468179e-01,NaN,0,0,1,1
12,247,1,70,NaN,NaN,1,NaN,2.388391e-01,NaN,1,0,2,1
12,248,1,75,NaN,NaN,1,NaN,3.196407e-01,NaN,1,1,2,1
12,249,1,36,NaN,NaN,2,NaN,2.854136e-01,NaN,0,0,1,1
12,250,1,39,NaN,NaN,2,NaN,4.844333e-01,NaN,0,0,1,1
12,251,1,98,NaN,NaN,1,NaN,3.396037e-01,NaN,1,0,3,1
12,252,1,120,NaN,NaN,1,NaN,2.560299e-01,NaN,0,0,3,1
12,253,1,47,NaN,NaN,1,NaN,3.204883e-01,NaN,0,1,1,1
12,254,1,75,NaN,NaN,1,NaN,2.457246e-01,NaN,0,1,2,1
12,255,1,69,NaN,NaN,1,NaN,2.942263e-01,NaN,0,1,2,1
12,256,1,72,NaN,NaN,1,NaN,4.206999e-01,NaN,2,0,2,1
12,257,1,13,NaN,NaN,1,NaN,4.139745e-01,NaN,1,1,1,1
12,258,1,127,NaN,NaN,1,NaN,5.995462e-01,NaN,0,0,3,1
12,259,1,129,NaN,NaN,1,NaN,4.100598e-01,NaN,1,0,3,1
12,260,1,40,NaN,NaN,2,NaN,9.556728e-01,NaN,0,0,1,1
12,261,1,107,NaN,NaN,1,NaN,3.203208e-01,NaN,1,0,3,1
12,262,1,134,NaN,NaN,2,NaN,3.329670e-01,NaN,1,1,3,1
12,263,1,53,NaN,NaN,1,NaN,4.103683e-01,NaN,2,0,2,1
12,264,1,138,NaN,NaN,1,NaN,3.483824e-01,NaN,2,0,3,1
12,265,1,102,NaN,NaN,2,NaN,3.205936e-01,NaN,0,0,3,1
12,266,1,88,NaN,NaN,1,NaN,4.059785e-01,NaN,2,1,2,1
12,267,1,57,NaN,NaN,1,NaN,2.481979e-01,NaN,1,1,2,1
12,268,1,45,NaN,NaN,2,NaN,2.966088e-01,NaN,0,1,1,1
12,269,1,52,NaN,NaN,1,NaN,3.586545e-01,NaN,0,0,2,1
12,270,1,89,NaN,NaN,1,NaN,2.667383e-01,NaN,2,1,2,1
12,271,1,71,NaN,NaN,1,NaN,3.551341e-01,NaN,0,0,2,1
12,272,1,126,NaN,NaN,2,NaN,3.668612e-01,NaN,0,0,3,1
12,273,1,85,NaN,NaN,1,NaN,2.822252e-01,NaN,0,1,2,1
12,274,1,128,NaN,NaN,1,NaN,3.053851e-01,NaN,2,0,3,1
12,275,1,2,NaN,NaN,2,NaN,5.515355e-01,NaN,0,0,1,1
12,276,1,106,NaN,NaN,1,NaN,5.158955e-01,NaN,0,0,3,1
12,277,1,138,NaN,NaN,1,NaN,3.857248e-01,NaN,0,0,3,1
12,278,1,124,NaN,NaN,1,NaN,4.924274e-01,NaN,2,1,3,1
12,279,1,83,NaN,NaN,1,NaN,3.310937e-01,NaN,0,0,2,1
12,280,1,20,NaN,NaN,2,NaN,4.244302e-01,NaN,0,1,1,1
12,281,1,21,NaN,NaN,1,NaN,5.057932e-01,NaN,2,0,1,1
12,282,1,18,NaN,NaN,1,NaN,7.597932e-01,NaN,2,0,1,1
12,283,1,83,NaN,NaN,1,NaN,3.555500e-01,NaN,1,0,2,1
12,284,1,6,NaN,NaN,1,NaN,3.516674e-01,NaN,0,0,1,1
12,285,1,79,NaN,NaN,1,NaN,2.603231e-01,NaN,0,1,2,1
12,286,1,144,NaN,NaN,1,NaN,3.163726e-01,NaN,0,0,3,1
12,287,1,101,NaN,NaN,1,NaN,6.336837e-01,NaN,1,0,3,1
12,288,1,108,NaN,NaN,1,NaN,3.468499e-01,NaN,2,0,3,1
12,356,2,83,2,2,2,1,3.431379e+00,NaN,1,0,2,1
12,357,2,97,19,1,1,1,1.276878e+00,NaN,1,0,3,1
12,358,2,25,29,1,1,1,1.783210e+00,NaN,1,0,1,1
12,359,2,101,41,2,2,1,1.485667e+00,NaN,1,0,3,1
12,360,2,56,24,1,1,1,8.560214e-01,NaN,1,0,2,1
12,361,2,11,56,2,2,1,1.083513e+00,NaN,1,1,1,1
12,362,2,122,68,1,1,1,1.365660e+00,NaN,1,0,3,1
12,363,2,79,21,2,2,1,1.164432e+00,NaN,1,1,2,1
12,364,2,126,39,2,2,1,2.635263e+00,NaN,1,0,3,1
12,365,2,131,52,2,2,1,1.055749e+00,NaN,1,1,3,1
12,366,2,29,69,1,1,1,7.950261e-01,NaN,1,0,1,1
12,367,2,75,48,1,1,1,8.006900e-01,NaN,1,1,2,1
12,368,2,61,33,1,1,1,5.260813e-01,NaN,1,1,2,1
12,369,2,106,31,2,2,1,1.039385e+00,NaN,1,0,3,1
12,370,2,55,27,2,2,1,1.731340e+00,NaN,1,1,2,1
12,371,2,105,15,1,1,1,1.547827e+00,NaN,1,0,3,1
12,372,2,87,16,1,1,1,1.163675e+00,NaN,1,1,2,1
12,373,2,19,42,2,2,1,1.754189e+00,NaN,1,0,1,1
12,374,2,34,1,2,2,1,1.242082e+00,NaN,1,0,1,1
12,375,2,107,22,1,1,1,1.534372e+00,NaN,1,0,3,1
12,376,2,17,65,2,2,1,3.062200e+00,NaN,1,0,1,1
12,377,2,132,20,2,2,1,1.841786e+00,NaN,1,0,3,1
12,378,2,44,8,2,2,1,2.405170e+00,NaN,1,0,1,1
12,379,2,68,5,2,2,1,8.264925e-01,NaN,1,1,2,1
12,380,3,105,15,2,2,1,1.681536e+00,NaN,1,0,3,1
12,381,3,83,2,2,2,1,5.640655e-01,NaN,1,0,2,1
12,382,3,126,39,1,1,1,1.371192e+00,NaN,1,0,3,1
12,383,3,79,21,1,1,1,1.305880e+00,NaN,1,1,2,1
12,384,3,11,56,1,1,1,6.666699e-01,NaN,1,1,1,1
12,385,3,25,29,2,2,1,1.109659e+00,NaN,1,0,1,1
12,386,3,97,19,2,2,1,1.287032e+00,NaN,1,0,3,1
12,387,3,87,16,1,1,1,8.325518e-01,NaN,1,1,2,1
12,388,3,101,41,1,1,1,7.334377e-01,NaN,1,0,3,1
12,389,3,44,8,1,2,0,1.006074e+00,NaN,1,0,1,1
12,390,3,107,22,2,0,0,3.499963e+00,NaN,1,0,3,1
12,391,3,29,69,1,1,1,5.247559e-01,NaN,1,0,1,1
12,392,3,131,52,2,2,1,4.697167e-01,NaN,1,1,3,1
12,393,3,132,20,2,2,1,5.219327e-01,NaN,1,0,3,1
12,394,3,75,48,1,1,1,4.581933e-01,NaN,1,1,2,1
12,395,3,61,33,2,2,1,4.451532e-01,NaN,1,1,2,1
12,396,3,17,65,2,2,1,1.224858e+00,NaN,1,0,1,1
12,397,3,55,27,2,2,1,1.526545e+00,NaN,1,1,2,1
12,398,3,68,5,1,1,1,9.020468e-01,NaN,1,1,2,1
12,399,3,34,1,2,2,1,9.916714e-01,NaN,1,0,1,1
12,400,3,122,68,1,1,1,1.117930e+00,NaN,1,0,3,1
12,401,3,56,24,1,1,1,4.469863e-01,NaN,1,0,2,1
12,402,3,19,42,1,1,1,1.074927e+00,NaN,1,0,1,1
12,403,3,106,31,2,2,1,6.693135e-01,NaN,1,0,3,1
12,428,2,119,46,2,2,1,8.017362e-01,NaN,1,0,3,2
12,429,2,43,70,1,1,1,9.913687e-01,NaN,1,0,1,2
12,430,2,48,9,2,2,1,1.085364e+00,NaN,1,0,1,2
12,431,2,4,58,2,1,0,1.320007e+00,NaN,1,0,1,2
12,432,2,30,55,1,1,1,1.328899e+00,NaN,1,1,1,2
12,433,2,130,50,2,2,1,9.375269e-01,NaN,1,0,3,2
12,434,2,28,32,1,1,1,6.578182e-01,NaN,1,0,1,2
12,435,2,77,17,1,1,1,6.454524e-01,NaN,1,0,2,2
12,436,2,33,51,2,2,1,1.601283e+00,NaN,1,0,1,2
12,437,2,134,45,1,1,1,1.775199e+00,NaN,1,1,3,2
12,438,2,102,40,2,2,1,1.086223e+00,NaN,1,0,3,2
12,439,2,85,37,2,2,1,1.760311e+00,NaN,1,1,2,2
12,440,2,110,59,2,2,1,6.075672e-01,NaN,1,0,3,2
12,441,2,140,35,2,2,1,1.533150e+00,NaN,1,0,3,2
12,442,2,67,18,2,2,1,8.053632e-01,NaN,1,1,2,2
12,443,2,36,3,2,2,1,1.186680e+00,NaN,1,0,1,2
12,444,2,137,30,2,2,1,1.169359e+00,NaN,1,1,3,2
12,445,2,113,67,1,1,1,1.104677e+00,NaN,1,0,3,2
12,446,2,38,4,1,1,1,1.354153e+00,NaN,1,1,1,2
12,447,2,60,6,2,2,1,8.332627e-01,NaN,1,0,2,2
12,448,2,127,66,1,1,1,1.133663e+00,NaN,1,0,3,2
12,449,2,103,57,2,2,1,1.022109e+00,NaN,1,0,3,2
12,450,2,90,44,1,1,1,1.642787e+00,NaN,1,0,2,2
12,451,2,20,14,1,1,1,2.510678e+00,NaN,1,1,1,2
12,452,3,38,4,2,2,1,1.344404e+00,NaN,1,1,1,2
12,453,3,48,9,1,1,1,8.806802e-01,NaN,1,0,1,2
12,454,3,4,58,2,2,1,6.271061e-01,NaN,1,0,1,2
12,455,3,127,66,2,2,1,1.031924e+00,NaN,1,0,3,2
12,456,3,28,32,2,2,1,7.328373e-01,NaN,1,0,1,2
12,457,3,134,45,1,1,1,1.333102e+00,NaN,1,1,3,2
12,458,3,30,55,1,1,1,1.757189e+00,NaN,1,1,1,2
12,459,3,137,30,2,2,1,9.003918e-01,NaN,1,1,3,2
12,460,3,33,51,2,2,1,1.157968e+00,NaN,1,0,1,2
12,461,3,67,18,1,2,0,5.654444e-01,NaN,1,1,2,2
12,462,3,90,44,2,2,1,1.348240e+00,NaN,1,0,2,2
12,463,3,140,35,2,2,1,1.004184e+00,NaN,1,0,3,2
12,464,3,102,40,1,2,0,7.775865e-01,NaN,1,0,3,2
12,465,3,20,14,1,1,1,1.415900e+00,NaN,1,1,1,2
12,466,3,130,50,2,2,1,1.077236e+00,NaN,1,0,3,2
12,467,3,119,46,1,1,1,1.239836e+00,NaN,1,0,3,2
12,468,3,113,67,1,1,1,6.440875e-01,NaN,1,0,3,2
12,469,3,77,17,1,2,0,3.111972e+00,NaN,1,0,2,2
12,470,3,85,37,2,2,1,7.448503e-01,NaN,1,1,2,2
12,471,3,110,59,1,1,1,7.932041e-01,NaN,1,0,3,2
12,472,3,60,6,1,1,1,6.152900e-01,NaN,1,0,2,2
12,473,3,43,70,2,2,1,8.445768e-01,NaN,1,0,1,2
12,474,3,103,57,2,2,1,8.005351e-01,NaN,1,0,3,2
12,475,3,36,3,1,1,1,2.158268e+00,NaN,1,0,1,2
12,500,2,64,62,2,2,1,7.066028e-01,NaN,1,0,2,3
12,501,2,49,54,2,2,1,9.882651e-01,NaN,1,0,2,3
12,502,2,7,61,1,1,1,1.250250e+00,NaN,1,0,1,3
12,503,2,13,34,1,1,1,9.896364e-01,NaN,1,1,1,3
12,504,2,73,47,2,2,1,1.635863e+00,NaN,1,0,2,3
12,505,2,41,36,1,1,1,1.431588e+00,NaN,1,1,1,3
12,506,2,81,7,2,2,1,1.260495e+00,NaN,1,0,2,3
12,507,2,14,63,1,1,1,1.167882e+00,NaN,1,0,1,3
12,508,2,51,72,1,1,1,1.062985e+00,NaN,1,0,2,3
12,509,2,125,64,2,2,1,1.370205e+00,NaN,1,0,3,3
12,510,2,99,12,1,1,1,1.560864e+00,NaN,1,0,3,3
12,511,2,98,11,1,1,1,1.072634e+00,NaN,1,0,3,3
12,512,2,40,38,1,1,1,1.139479e+00,NaN,1,0,1,3
12,513,2,57,10,1,1,1,9.314235e-01,NaN,1,1,2,3
12,514,2,3,26,1,1,1,1.379662e+00,NaN,1,0,1,3
12,515,2,15,49,1,2,0,2.218086e+00,NaN,1,0,1,3
12,516,2,8,23,2,2,1,1.374578e+00,NaN,1,0,1,3
12,517,2,86,53,1,1,1,9.892255e-01,NaN,1,0,2,3
12,518,2,129,25,2,2,1,9.877894e-01,NaN,1,0,3,3
12,519,2,70,43,2,2,1,1.113845e+00,NaN,1,0,2,3
12,520,2,120,71,2,2,1,1.115597e+00,NaN,1,0,3,3
12,521,2,95,13,2,2,1,1.036084e+00,NaN,1,0,2,3
12,522,2,94,60,1,1,1,1.064345e+00,NaN,1,0,2,3
12,523,2,76,28,2,1,0,9.710434e-01,NaN,1,0,2,3
12,524,3,120,71,2,2,1,7.019987e-01,NaN,1,0,3,3
12,525,3,8,23,1,1,1,6.154593e-01,NaN,1,0,1,3
12,526,3,125,64,1,1,1,9.887082e-01,NaN,1,0,3,3
12,527,3,76,28,1,1,1,7.542392e-01,NaN,1,0,2,3
12,528,3,7,61,2,2,1,8.898189e-01,NaN,1,0,1,3
12,529,3,98,11,2,2,1,8.519123e-01,NaN,1,0,3,3
12,530,3,3,26,2,2,1,2.471838e+00,NaN,1,0,1,3
12,531,3,14,63,1,1,1,6.428085e-01,NaN,1,0,1,3
12,532,3,95,13,1,1,1,7.107200e-01,NaN,1,0,2,3
12,533,3,41,36,1,1,1,1.255968e+00,NaN,1,1,1,3
12,534,3,40,38,1,1,1,5.231003e-01,NaN,1,0,1,3
12,535,3,86,53,1,1,1,6.839483e-01,NaN,1,0,2,3
12,536,3,51,72,1,1,1,1.278434e+00,NaN,1,0,2,3
12,537,3,81,7,1,1,1,1.056929e+00,NaN,1,0,2,3
12,538,3,129,25,2,2,1,7.403482e-01,NaN,1,0,3,3
12,539,3,70,43,2,2,1,1.124056e+00,NaN,1,0,2,3
12,540,3,57,10,1,1,1,8.931450e-01,NaN,1,1,2,3
12,541,3,94,60,1,1,1,1.118685e+00,NaN,1,0,2,3
12,542,3,73,47,2,2,1,9.119909e-01,NaN,1,0,2,3
12,543,3,15,49,2,2,1,1.425038e+00,NaN,1,0,1,3
12,544,3,49,54,2,2,1,4.056193e-01,NaN,1,0,2,3
12,545,3,99,12,1,1,1,1.299683e+00,NaN,1,0,3,3
12,546,3,13,34,1,1,1,7.325995e-01,NaN,1,1,1,3
12,547,3,64,62,1,1,1,8.049207e-01,NaN,1,0,2,3
12,572,4,16,30,2,2,1,1.267296e+00,NaN,2,1,1,1
12,573,4,111,7,2,2,1,9.345280e-01,NaN,2,0,3,1
12,574,4,45,16,2,1,0,1.038909e+00,NaN,2,1,1,1
12,575,4,123,61,1,1,1,1.682996e+00,NaN,2,0,3,1
12,576,4,144,69,1,1,1,1.045829e+00,NaN,2,0,3,1
12,577,4,62,71,1,1,1,1.217320e+00,NaN,2,0,2,1
12,578,4,54,67,1,1,1,8.146580e-01,NaN,2,0,2,1
12,579,4,136,51,2,2,1,9.871280e-01,NaN,2,0,3,1
12,580,4,121,62,1,1,1,1.169142e+00,NaN,2,0,3,1
12,581,4,46,43,2,2,1,1.456224e+00,NaN,2,0,1,1
12,582,4,66,15,1,1,1,1.075779e+00,NaN,2,0,2,1
12,583,4,63,41,2,2,1,8.380089e-01,NaN,2,0,2,1
12,584,4,2,25,2,2,1,9.139918e-01,NaN,2,0,1,1
12,585,4,52,46,2,2,1,8.750809e-01,NaN,2,0,2,1
12,586,4,117,37,1,1,1,1.014399e+00,NaN,2,1,3,1
12,587,4,65,40,1,1,1,1.571310e+00,NaN,2,0,2,1
12,588,4,71,64,1,1,1,7.700609e-01,NaN,2,0,2,1
12,589,4,135,63,1,1,1,4.087190e-01,NaN,2,0,3,1
12,590,4,89,36,2,1,0,1.318367e+00,NaN,2,1,2,1
12,591,4,35,44,1,1,1,7.432948e-01,NaN,2,0,1,1
12,592,4,115,13,1,1,1,1.183063e+00,NaN,2,0,3,1
12,593,4,91,8,1,2,0,1.013335e+00,NaN,2,0,2,1
12,594,4,22,66,2,2,1,1.354811e+00,NaN,2,0,1,1
12,595,4,69,52,1,1,1,1.025867e+00,NaN,2,1,2,1
12,620,4,26,10,2,2,1,8.703006e-01,NaN,2,1,1,2
12,621,4,124,55,1,1,1,5.695842e-01,NaN,2,1,3,2
12,622,4,139,26,2,2,1,7.765319e-01,NaN,2,0,3,2
12,623,4,78,34,2,2,1,4.874206e-01,NaN,2,1,2,2
12,624,4,128,38,1,1,1,1.265353e+00,NaN,2,0,3,2
12,625,4,39,60,1,1,1,1.108715e+00,NaN,2,0,1,2
12,626,4,31,33,1,1,1,6.535917e-01,NaN,2,1,1,2
12,627,4,47,18,2,1,0,1.249381e+00,NaN,2,1,1,2
12,628,4,82,49,1,1,1,6.290542e-01,NaN,2,0,2,2
12,629,4,143,1,2,2,1,7.455496e-01,NaN,2,0,3,2
12,630,4,74,23,2,2,1,2.137335e+00,NaN,2,0,2,2
12,631,4,84,56,2,2,1,7.213879e-01,NaN,2,1,2,2
12,632,4,116,6,1,2,0,1.226338e+00,NaN,2,0,3,2
12,633,4,142,32,2,1,0,1.463553e+00,NaN,2,0,3,2
12,634,4,118,27,2,2,1,9.224885e-01,NaN,2,1,3,2
12,635,4,10,45,1,1,1,1.955262e+00,NaN,2,1,1,2
12,636,4,27,53,1,1,1,7.544967e-01,NaN,2,0,1,2
12,637,4,37,17,2,2,1,1.729485e+00,NaN,2,0,1,2
12,638,4,141,65,1,1,1,1.002050e+00,NaN,2,0,3,2
12,639,4,114,2,2,2,1,1.096692e+00,NaN,2,0,3,2
12,640,4,96,14,1,1,1,4.096976e-01,NaN,2,1,2,2
12,641,4,92,3,1,1,1,9.592065e-01,NaN,2,0,2,2
12,642,4,80,70,1,1,1,1.126663e+00,NaN,2,0,2,2
12,643,4,18,31,2,2,1,6.471415e-01,NaN,2,0,1,2
12,668,4,12,39,1,1,1,1.673556e+00,NaN,2,0,1,3
12,669,4,133,29,1,1,1,1.060321e+00,NaN,2,0,3,3
12,670,4,32,47,1,1,1,7.681230e-01,NaN,2,0,1,3
12,671,4,72,42,2,2,1,6.791148e-01,NaN,2,0,2,3
12,672,4,108,72,1,1,1,1.081837e+00,NaN,2,0,3,3
12,673,4,6,68,1,1,1,6.200121e-01,NaN,2,0,1,3
12,674,4,138,58,1,1,1,1.121457e+00,NaN,2,0,3,3
12,675,4,112,48,1,1,1,9.786802e-01,NaN,2,1,3,3
12,676,4,24,5,2,2,1,9.529522e-01,NaN,2,1,1,3
12,677,4,9,20,1,1,1,1.296281e+00,NaN,2,0,1,3
12,678,4,53,50,1,1,1,7.298511e-01,NaN,2,0,2,3
12,679,4,58,57,2,1,0,8.110805e-01,NaN,2,0,2,3
12,680,4,1,22,1,1,1,9.438666e-01,NaN,2,0,1,3
12,681,4,21,35,2,2,1,1.295742e+00,NaN,2,0,1,3
12,682,4,59,12,1,1,1,8.894368e-01,NaN,2,0,2,3
12,683,4,5,19,2,2,1,9.794870e-01,NaN,2,0,1,3
12,684,4,104,28,2,2,1,9.616409e-01,NaN,2,0,3,3
12,685,4,88,4,1,1,1,1.273104e+00,NaN,2,1,2,3
12,686,4,42,54,1,2,0,1.187364e+00,NaN,2,0,1,3
12,687,4,23,11,2,2,1,1.161379e+00,NaN,2,0,1,3
12,688,4,50,59,2,2,1,9.210517e-01,NaN,2,0,2,3
12,689,4,109,24,2,2,1,9.934819e-01,NaN,2,0,3,3
12,690,4,93,9,1,1,1,8.871805e-01,NaN,2,0,2,3
12,691,4,100,21,1,1,1,1.385906e+00,NaN,2,1,3,3
12,692,5,9.035000e+01,44,2,2,1,1.415666e-04,1,1,0,2.100000e+00,1
12,693,5,1.261200e+02,39,3,3,1,1.178420e+00,1,1,0,3.100000e+00,1
12,694,5,7.737000e+01,17,2,2,1,7.081951e-01,1,1,0,2.100000e+00,1
12,695,5,1.535000e+01,63,1,1,1,1.214235e+00,1,1,0,1.300000e+00,1
12,696,5,8.230000e+00,61,1,1,1,6.157059e-01,1,1,0,1.300000e+00,1
12,697,5,9.439000e+01,60,2,2,1,4.092699e-01,1,1,0,2.100000e+00,1
12,698,5,8.211000e+01,7,2,2,1,5.234748e-01,1,1,0,2.300000e+00,1
12,699,5,3.543000e+01,1,1,1,1,6.853923e-01,1,1,0,1.300000e+00,1
12,700,5,9.439000e+01,60,2,2,1,4.392744e-01,2,1,0,2.100000e+00,1
12,701,5,4.390000e+00,26,1,1,1,4.568287e-01,1,1,0,1.300000e+00,1
12,702,5,1.056600e+02,15,3,3,1,4.105729e-01,1,1,0,3.200000e+00,1
12,703,5,1.272200e+02,66,3,3,1,3.963629e-01,1,1,0,3.100000e+00,1
12,704,5,1.972000e+01,42,1,2,0,3.746371e-01,1,1,0,1.200000e+00,1
12,705,5,8.740000e+00,23,1,3,0,3.208294e-01,1,1,0,1.200000e+00,1
12,706,5,1.305300e+02,50,3,3,1,3.138205e-01,1,1,0,3.200000e+00,1
12,707,5,9.823000e+01,11,3,3,1,3.635707e-01,1,1,0,3.100000e+00,1
12,708,5,7.332000e+01,47,2,2,1,4.210480e-01,1,1,0,2.100000e+00,1
12,709,5,1.272200e+02,66,3,3,1,3.908916e-01,2,1,0,3.100000e+00,1
12,710,5,3.436000e+01,51,1,1,1,3.367971e-01,1,1,0,1.300000e+00,1
12,711,5,7.332000e+01,47,2,2,1,4.179661e-01,2,1,0,2.100000e+00,1
12,712,5,1.841000e+01,65,1,1,1,3.560535e-01,1,1,0,1.300000e+00,1
12,713,5,1.206200e+02,71,3,3,1,3.341514e-01,1,1,0,3.200000e+00,1
12,714,5,1.257100e+02,64,3,3,1,3.281278e-01,1,1,0,3.200000e+00,1
12,715,5,1.290200e+02,25,3,3,1,5.215249e-01,1,1,0,3.100000e+00,1
12,716,5,1.841000e+01,65,1,1,1,3.554492e-01,2,1,0,1.300000e+00,1
12,717,5,1.135400e+02,67,3,2,0,3.809019e-01,1,1,0,3.200000e+00,1
12,718,5,2.633000e+01,29,1,1,1,3.668382e-01,1,1,0,1.300000e+00,1
12,719,5,8.414000e+01,2,2,2,1,2.730128e-01,1,1,0,2.300000e+00,1
12,720,5,9.705000e+01,19,3,3,1,3.706889e-01,1,1,0,3.100000e+00,1
12,721,5,9.439000e+01,60,2,2,1,3.563895e-01,3,1,0,2.100000e+00,1
12,722,5,9.615000e+01,13,2,2,1,8.300205e-01,1,1,0,2.300000e+00,1
12,723,5,1.582000e+01,49,1,1,1,2.713798e-01,1,1,0,1.200000e+00,1
12,724,5,3.543000e+01,1,1,1,1,3.055891e-01,2,1,0,1.300000e+00,1
12,725,5,1.582000e+01,49,1,1,1,3.469622e-01,2,1,0,1.200000e+00,1
12,726,5,1.105000e+02,59,3,3,1,3.004728e-01,1,1,0,3.200000e+00,1
12,727,5,5.709000e+01,24,2,2,1,1.159046e+00,1,1,0,2.300000e+00,1
12,728,5,1.272200e+02,66,3,3,1,2.888193e-01,3,1,0,3.100000e+00,1
12,729,5,9.959000e+01,12,3,3,1,3.866400e-01,1,1,0,3.200000e+00,1
12,730,5,5.380000e+00,58,1,1,1,3.798116e-01,1,1,0,1.300000e+00,1
12,731,5,8.230000e+00,61,1,3,0,8.936403e-01,2,1,0,1.300000e+00,1
12,732,5,1.320900e+02,20,3,3,1,3.276844e-01,1,1,0,3.100000e+00,1
12,733,5,1.257100e+02,64,3,3,1,5.376726e-01,2,1,0,3.200000e+00,1
12,734,5,1.056600e+02,15,3,3,1,2.835488e-01,2,1,0,3.200000e+00,1
12,735,5,4.380000e+01,70,1,2,0,3.173581e-01,1,1,0,1.200000e+00,1
12,736,5,1.035800e+02,57,3,3,1,4.477829e-01,1,1,0,3.200000e+00,1
12,737,5,1.535000e+01,63,1,1,1,3.777920e-01,2,1,0,1.300000e+00,1
12,738,5,6.521000e+01,62,2,2,1,2.991181e-01,1,1,0,2.300000e+00,1
12,739,5,4.942000e+01,54,2,2,1,2.849699e-01,1,1,0,2.100000e+00,1
12,740,5,3.692000e+01,3,1,1,1,3.349381e-01,1,1,0,1.200000e+00,1
12,741,5,9.959000e+01,12,3,3,1,3.133336e-01,2,1,0,3.200000e+00,1
12,742,5,7.332000e+01,47,2,2,1,3.546976e-01,3,1,0,2.100000e+00,1
12,743,5,9.035000e+01,44,2,2,1,3.005205e-01,2,1,0,2.100000e+00,1
12,744,5,6.116000e+01,6,2,2,1,2.943863e-01,1,1,0,2.300000e+00,1
12,745,5,1.061800e+02,31,3,3,1,2.722893e-01,1,1,0,3.100000e+00,1
12,746,5,8.740000e+00,23,1,1,1,3.618629e-01,2,1,0,1.200000e+00,1
12,747,5,5.380000e+00,58,1,1,1,4.275383e-01,2,1,0,1.300000e+00,1
12,748,5,8.230000e+00,61,1,1,1,3.415760e-01,3,1,0,1.300000e+00,1
12,749,5,1.135400e+02,67,3,3,1,3.673502e-01,2,1,0,3.200000e+00,1
12,750,5,8.627000e+01,53,2,2,1,3.937347e-01,1,1,0,2.100000e+00,1
12,751,5,7.704000e+01,28,2,2,1,4.596703e-01,1,1,0,2.300000e+00,1
12,752,5,1.305300e+02,50,3,3,1,4.855806e-01,2,1,0,3.200000e+00,1
12,753,5,3.543000e+01,1,1,1,1,2.876156e-01,3,1,0,1.300000e+00,1
12,754,5,2.942000e+01,32,1,1,1,7.052225e-01,1,1,0,1.300000e+00,1
12,755,5,4.942000e+01,54,2,2,1,6.505621e-01,2,1,0,2.100000e+00,1
12,756,5,1.841000e+01,65,1,1,1,4.049740e-01,3,1,0,1.300000e+00,1
12,757,5,9.705000e+01,19,3,3,1,9.345084e-01,2,1,0,3.100000e+00,1
12,758,5,7.046000e+01,43,2,2,1,5.523991e-01,1,1,0,2.100000e+00,1
12,759,5,3.436000e+01,51,1,1,1,3.867620e-01,2,1,0,1.300000e+00,1
12,760,5,1.195200e+02,46,3,3,1,3.322269e-01,1,1,0,3.200000e+00,1
12,761,5,9.439000e+01,60,2,2,1,4.140653e-01,4,1,0,2.100000e+00,1
12,762,5,1.261200e+02,39,3,3,1,3.676478e-01,2,1,0,3.100000e+00,1
12,763,5,4.942000e+01,54,2,2,1,3.695005e-01,3,1,0,2.100000e+00,1
12,764,5,9.615000e+01,13,2,2,1,2.915930e-01,2,1,0,2.300000e+00,1
12,765,5,1.972000e+01,42,1,1,1,4.529511e-01,2,1,0,1.200000e+00,1
12,766,5,4.128000e+01,38,1,1,1,3.831241e-01,1,1,0,1.300000e+00,1
12,767,5,4.380000e+01,70,1,1,1,2.809245e-01,2,1,0,1.200000e+00,1
12,768,5,7.046000e+01,43,2,2,1,3.944021e-01,2,1,0,2.100000e+00,1
12,769,5,7.704000e+01,28,2,2,1,2.849110e-01,2,1,0,2.300000e+00,1
12,770,5,3.436000e+01,51,1,1,1,3.188297e-01,3,1,0,1.300000e+00,1
12,771,5,1.972000e+01,42,1,1,1,3.528702e-01,3,1,0,1.200000e+00,1
12,772,5,5.380000e+00,58,1,1,1,3.383094e-01,3,1,0,1.300000e+00,1
12,773,5,1.135400e+02,67,3,3,1,3.800673e-01,3,1,0,3.200000e+00,1
12,774,5,4.491000e+01,8,1,1,1,8.935607e-01,1,1,0,1.200000e+00,1
12,775,5,1.290200e+02,25,3,3,1,4.796946e-01,2,1,0,3.100000e+00,1
12,776,5,4.491000e+01,8,1,1,1,4.974486e-01,2,1,0,1.200000e+00,1
12,777,5,3.044000e+01,69,1,1,1,2.751701e-01,1,1,0,1.300000e+00,1
12,778,5,5.208000e+01,72,2,2,1,4.451291e-01,1,1,0,2.300000e+00,1
12,779,5,1.016300e+02,41,3,3,1,3.669236e-01,1,1,0,3.200000e+00,1
12,780,5,4.491000e+01,8,1,1,1,3.688606e-01,3,1,0,1.200000e+00,1
12,781,5,6.116000e+01,6,2,2,1,3.231633e-01,2,1,0,2.300000e+00,1
12,782,5,9.705000e+01,19,3,3,1,3.888671e-01,3,1,0,3.100000e+00,1
12,783,5,1.290200e+02,25,3,3,1,4.863932e-01,3,1,0,3.100000e+00,1
12,784,5,8.740000e+00,23,1,1,1,6.240043e-01,3,1,0,1.200000e+00,1
12,785,5,1.016300e+02,41,3,3,1,2.977915e-01,2,1,0,3.200000e+00,1
12,786,5,1.056600e+02,15,3,3,1,3.155492e-01,3,1,0,3.200000e+00,1
12,787,5,1.070100e+02,22,3,3,1,2.529360e-01,1,1,0,3.100000e+00,1
12,788,5,7.046000e+01,43,2,2,1,2.948977e-01,3,1,0,2.100000e+00,1
12,789,5,1.035800e+02,57,3,3,1,3.686831e-01,2,1,0,3.200000e+00,1
12,790,5,1.220600e+02,68,3,3,1,2.594124e-01,1,1,0,3.100000e+00,1
12,791,5,3.692000e+01,3,1,1,1,3.085421e-01,2,1,0,1.200000e+00,1
12,792,5,7.737000e+01,17,2,2,1,3.665726e-01,2,1,0,2.100000e+00,1
12,793,5,9.959000e+01,12,3,3,1,4.005220e-01,3,1,0,3.200000e+00,1
12,794,5,1.195200e+02,46,3,2,0,3.304475e-01,2,1,0,3.200000e+00,1
12,795,5,2.942000e+01,32,1,1,1,2.839403e-01,2,1,0,1.300000e+00,1
12,796,5,1.061800e+02,31,3,3,1,2.539798e-01,2,1,0,3.100000e+00,1
12,797,5,1.026500e+02,40,3,3,1,5.916336e-01,1,1,0,3.200000e+00,1
12,798,5,4.128000e+01,38,1,1,1,3.373082e-01,2,1,0,1.300000e+00,1
12,799,5,1.305300e+02,50,3,3,1,2.910385e-01,3,1,0,3.200000e+00,1
12,800,5,1.290200e+02,25,3,3,1,2.687513e-01,4,1,0,3.100000e+00,1
12,801,5,8.230000e+00,61,1,1,1,3.429874e-01,4,1,0,1.300000e+00,1
12,802,5,4.893000e+01,9,1,1,1,3.928500e-01,1,1,0,1.200000e+00,1
12,803,5,1.402100e+02,35,3,3,1,3.391881e-01,1,1,0,3.100000e+00,1
12,804,5,9.035000e+01,44,2,2,1,3.488547e-01,3,1,0,2.100000e+00,1
12,805,5,1.535000e+01,63,1,1,1,2.706599e-01,3,1,0,1.300000e+00,1
12,806,5,3.692000e+01,3,1,1,1,4.082617e-01,3,1,0,1.200000e+00,1
12,807,5,8.211000e+01,7,2,2,1,6.660001e-01,2,1,0,2.300000e+00,1
12,808,5,1.070100e+02,22,3,3,1,3.875284e-01,2,1,0,3.100000e+00,1
12,809,5,1.061800e+02,31,3,3,1,4.775125e-01,3,1,0,3.100000e+00,1
12,810,5,1.035800e+02,57,3,3,1,3.033747e-01,3,1,0,3.200000e+00,1
12,811,5,1.135400e+02,67,3,3,1,2.974114e-01,4,1,0,3.200000e+00,1
12,812,5,1.195200e+02,46,3,3,1,4.029459e-01,3,1,0,3.200000e+00,1
12,813,5,1.257100e+02,64,3,3,1,3.725341e-01,3,1,0,3.200000e+00,1
12,814,5,4.491000e+01,8,1,1,1,4.543375e-01,4,1,0,1.200000e+00,1
12,815,5,1.261200e+02,39,3,3,1,4.639094e-01,3,1,0,3.100000e+00,1
12,816,5,1.026500e+02,40,3,3,1,2.978129e-01,2,1,0,3.200000e+00,1
12,817,5,5.208000e+01,72,2,2,1,2.911892e-01,2,1,0,2.300000e+00,1
12,818,5,4.893000e+01,9,1,1,1,2.608474e-01,2,1,0,1.200000e+00,1
12,819,5,1.070100e+02,22,3,3,1,2.952258e-01,3,1,0,3.100000e+00,1
12,820,5,1.402100e+02,35,3,3,1,3.045749e-01,2,1,0,3.100000e+00,1
12,821,5,4.893000e+01,9,1,1,1,3.223163e-01,3,1,0,1.200000e+00,1
12,822,5,1.320900e+02,20,3,3,1,3.482438e-01,2,1,0,3.100000e+00,1
12,823,5,9.959000e+01,12,3,3,1,4.140665e-01,4,1,0,3.200000e+00,1
12,824,5,1.305300e+02,50,3,3,1,3.036591e-01,4,1,0,3.200000e+00,1
12,825,5,5.380000e+00,58,1,1,1,3.533215e-01,4,1,0,1.300000e+00,1
12,826,5,1.261200e+02,39,3,3,1,4.347869e-01,4,1,0,3.100000e+00,1
12,827,5,4.942000e+01,54,2,2,1,3.406919e-01,4,1,0,2.100000e+00,1
12,828,5,4.390000e+00,26,1,1,1,4.063881e-01,2,1,0,1.300000e+00,1
12,829,5,2.942000e+01,32,1,1,1,2.807860e-01,3,1,0,1.300000e+00,1
12,830,5,1.535000e+01,63,1,1,1,4.022782e-01,4,1,0,1.300000e+00,1
12,831,5,1.105000e+02,59,3,3,1,5.162076e-01,2,1,0,3.200000e+00,1
12,832,5,5.709000e+01,24,2,2,1,4.219423e-01,2,1,0,2.300000e+00,1
12,833,5,9.705000e+01,19,3,3,1,4.315981e-01,4,1,0,3.100000e+00,1
12,834,5,9.823000e+01,11,3,3,1,3.051415e-01,2,1,0,3.100000e+00,1
12,835,5,3.436000e+01,51,1,1,1,3.309265e-01,4,1,0,1.300000e+00,1
12,836,5,1.035800e+02,57,3,3,1,3.006479e-01,4,1,0,3.200000e+00,1
12,837,5,1.582000e+01,49,1,1,1,3.823604e-01,3,1,0,1.200000e+00,1
12,838,5,1.026500e+02,40,3,3,1,2.481937e-01,3,1,0,3.200000e+00,1
12,839,5,5.709000e+01,24,2,2,1,3.457895e-01,3,1,0,2.300000e+00,1
12,840,5,6.116000e+01,6,2,2,1,2.759148e-01,3,1,0,2.300000e+00,1
12,841,5,8.627000e+01,53,2,2,1,3.737089e-01,2,1,0,2.100000e+00,1
12,842,5,1.206200e+02,71,3,3,1,2.795080e-01,2,1,0,3.200000e+00,1
12,843,5,6.521000e+01,62,2,2,1,2.813033e-01,2,1,0,2.300000e+00,1
12,844,5,5.208000e+01,72,2,2,1,3.626344e-01,3,1,0,2.300000e+00,1
12,845,5,8.414000e+01,2,2,2,1,2.847906e-01,2,1,0,2.300000e+00,1
12,846,5,1.056600e+02,15,3,3,1,2.942463e-01,4,1,0,3.200000e+00,1
12,847,5,3.543000e+01,1,1,1,1,2.964727e-01,4,1,0,1.300000e+00,1
12,848,5,7.704000e+01,28,2,2,1,2.338888e-01,3,1,0,2.300000e+00,1
12,849,5,9.615000e+01,13,2,2,1,3.719745e-01,3,1,0,2.300000e+00,1
12,850,5,8.740000e+00,23,1,1,1,9.497496e-01,4,1,0,1.200000e+00,1
12,851,5,8.414000e+01,2,2,2,1,4.949527e-01,3,1,0,2.300000e+00,1
12,852,5,1.320900e+02,20,3,3,1,4.408027e-01,3,1,0,3.100000e+00,1
12,853,5,1.105000e+02,59,3,3,1,4.103942e-01,3,1,0,3.200000e+00,1
12,854,5,9.823000e+01,11,3,3,1,1.156786e+00,3,1,0,3.100000e+00,1
12,855,5,9.823000e+01,11,3,3,1,3.746425e-01,4,1,0,3.100000e+00,1
12,856,5,7.332000e+01,47,2,0,0,2.500146e+00,4,1,0,2.100000e+00,1
12,857,5,4.128000e+01,38,1,1,1,2.506462e-01,3,1,0,1.300000e+00,1
12,858,5,5.709000e+01,24,2,2,1,4.443627e-01,4,1,0,2.300000e+00,1
12,859,5,2.633000e+01,29,1,1,1,2.944295e-01,2,1,0,1.300000e+00,1
12,860,5,4.390000e+00,26,1,1,1,3.206830e-01,3,1,0,1.300000e+00,1
12,861,5,1.320900e+02,20,3,3,1,4.021508e-01,4,1,0,3.100000e+00,1
12,862,5,8.414000e+01,2,2,2,1,3.801702e-01,4,1,0,2.300000e+00,1
12,863,5,4.390000e+00,26,1,1,1,3.258032e-01,4,1,0,1.300000e+00,1
12,864,5,6.116000e+01,6,2,2,1,3.362508e-01,4,1,0,2.300000e+00,1
12,865,5,4.128000e+01,38,1,1,1,2.580852e-01,4,1,0,1.300000e+00,1
12,866,5,9.035000e+01,44,2,2,1,3.162362e-01,4,1,0,2.100000e+00,1
12,867,5,3.692000e+01,3,1,1,1,3.574819e-01,4,1,0,1.200000e+00,1
12,868,5,2.633000e+01,29,1,1,1,5.916351e-01,3,1,0,1.300000e+00,1
12,869,5,1.220600e+02,68,3,3,1,2.577212e-01,2,1,0,3.100000e+00,1
12,870,5,1.972000e+01,42,1,1,1,4.032100e-01,4,1,0,1.200000e+00,1
12,871,5,7.737000e+01,17,2,2,1,4.207500e-01,3,1,0,2.100000e+00,1
12,872,5,2.942000e+01,32,1,1,1,3.104096e-01,4,1,0,1.300000e+00,1
12,873,5,1.070100e+02,22,3,3,1,2.968503e-01,4,1,0,3.100000e+00,1
12,874,5,9.615000e+01,13,2,2,1,2.505173e-01,4,1,0,2.300000e+00,1
12,875,5,1.272200e+02,66,3,3,1,2.763075e-01,4,1,0,3.100000e+00,1
12,876,5,1.220600e+02,68,3,3,1,2.626775e-01,3,1,0,3.100000e+00,1
12,877,5,3.044000e+01,69,1,1,1,2.882588e-01,2,1,0,1.300000e+00,1
12,878,5,1.257100e+02,64,3,3,1,3.539249e-01,4,1,0,3.200000e+00,1
12,879,5,3.044000e+01,69,1,1,1,1.011397e+00,3,1,0,1.300000e+00,1
12,880,5,5.208000e+01,72,2,2,1,3.969593e-01,4,1,0,2.300000e+00,1
12,881,5,8.627000e+01,53,2,2,1,2.710607e-01,3,1,0,2.100000e+00,1
12,882,5,7.737000e+01,17,2,2,1,3.686608e-01,4,1,0,2.100000e+00,1
12,883,5,1.402100e+02,35,3,3,1,3.864345e-01,3,1,0,3.100000e+00,1
12,884,5,1.195200e+02,46,3,3,1,3.239819e-01,4,1,0,3.200000e+00,1
12,885,5,3.044000e+01,69,1,1,1,6.538640e-01,4,1,0,1.300000e+00,1
12,886,5,1.402100e+02,35,3,3,1,2.476878e-01,4,1,0,3.100000e+00,1
12,887,5,8.627000e+01,53,2,2,1,2.730493e-01,4,1,0,2.100000e+00,1
12,888,5,1.841000e+01,65,1,1,1,2.432470e-01,4,1,0,1.300000e+00,1
12,889,5,6.521000e+01,62,2,2,1,2.931011e-01,3,1,0,2.300000e+00,1
12,890,5,8.211000e+01,7,2,2,1,4.393891e-01,3,1,0,2.300000e+00,1
12,891,5,7.704000e+01,28,2,2,1,4.327213e-01,4,1,0,2.300000e+00,1
12,892,5,1.220600e+02,68,3,3,1,2.425216e-01,4,1,0,3.100000e+00,1
12,893,5,4.380000e+01,70,1,1,1,3.083631e-01,3,1,0,1.200000e+00,1
12,894,5,1.206200e+02,71,3,3,1,4.143681e-01,3,1,0,3.200000e+00,1
12,895,5,6.521000e+01,62,2,2,1,4.161236e-01,4,1,0,2.300000e+00,1
12,896,5,1.061800e+02,31,3,3,1,3.300735e-01,4,1,0,3.100000e+00,1
12,897,5,1.105000e+02,59,3,3,1,2.999053e-01,4,1,0,3.200000e+00,1
12,898,5,1.206200e+02,71,3,3,1,2.611843e-01,4,1,0,3.200000e+00,1
12,899,5,8.211000e+01,7,2,2,1,5.753081e-01,4,1,0,2.300000e+00,1
12,900,5,4.380000e+01,70,1,1,1,3.215535e-01,4,1,0,1.200000e+00,1
12,901,5,1.026500e+02,40,3,3,1,4.993388e-01,4,1,0,3.200000e+00,1
12,902,5,1.016300e+02,41,3,3,1,3.966719e-01,3,1,0,3.200000e+00,1
12,903,5,7.046000e+01,43,2,2,1,3.986907e-01,4,1,0,2.100000e+00,1
12,904,5,1.582000e+01,49,1,1,1,2.801581e-01,4,1,0,1.200000e+00,1
12,905,5,1.016300e+02,41,3,3,1,2.896844e-01,4,1,0,3.200000e+00,1
12,906,5,2.633000e+01,29,1,1,1,3.234645e-01,4,1,0,1.300000e+00,1
12,907,5,4.893000e+01,9,1,1,1,3.254431e-01,4,1,0,1.200000e+00,1
12,908,6,118,27,1,1,1,1.100004e+00,NaN,2,1,3,1
12,909,6,2,25,1,1,1,1.111397e+00,NaN,2,0,1,1
12,910,6,47,18,1,1,1,1.138352e+00,NaN,2,1,1,1
12,911,6,116,6,2,1,0,1.299385e+00,NaN,2,0,3,1
12,912,6,138,58,1,1,1,9.018340e-01,NaN,2,0,3,1
12,913,6,39,60,2,1,0,1.104488e+00,NaN,2,0,1,1
12,914,6,16,30,2,2,1,8.269712e-01,NaN,2,1,1,1
12,915,6,135,63,1,1,1,9.846797e-01,NaN,2,0,3,1
12,916,6,31,33,2,2,1,9.516048e-01,NaN,2,1,1,1
12,917,6,26,10,2,2,1,9.283329e-01,NaN,2,1,1,1
12,918,6,114,2,1,1,1,1.658230e+00,NaN,2,0,3,1
12,919,6,74,23,2,2,1,1.006613e+00,NaN,2,0,2,1
12,920,6,124,55,1,1,1,7.168346e-01,NaN,2,1,3,1
12,921,6,35,44,2,2,1,1.438838e+00,NaN,2,0,1,1
12,922,6,5,19,1,1,1,1.163781e+00,NaN,2,0,1,1
12,923,6,123,61,2,1,0,1.187955e+00,NaN,2,0,3,1
12,924,6,80,70,2,2,1,7.069684e-01,NaN,2,0,2,1
12,925,6,58,57,2,2,1,1.077821e+00,NaN,2,0,2,1
12,926,6,78,34,2,2,1,9.130805e-01,NaN,2,1,2,1
12,927,6,84,56,1,1,1,8.754727e-01,NaN,2,1,2,1
12,928,6,109,24,2,2,1,7.028949e-01,NaN,2,0,3,1
12,929,6,54,67,2,2,1,8.014696e-01,NaN,2,0,2,1
12,930,6,112,48,2,2,1,1.055953e+00,NaN,2,1,3,1
12,931,6,12,39,2,1,0,1.491930e+00,NaN,2,0,1,1
12,932,6,91,8,1,1,1,1.031365e+00,NaN,2,0,2,1
12,933,6,71,64,2,2,1,7.641009e-01,NaN,2,0,2,1
12,934,6,21,35,2,2,1,8.607148e-01,NaN,2,0,1,1
12,935,6,22,66,2,2,1,1.096920e+00,NaN,2,0,1,1
12,936,6,108,72,2,2,1,8.357230e-01,NaN,2,0,3,1
12,937,6,92,3,1,1,1,1.088762e+00,NaN,2,0,2,1
12,938,6,62,71,2,2,1,1.107365e+00,NaN,2,0,2,1
12,939,6,23,11,2,2,1,1.613669e+00,NaN,2,0,1,1
12,940,6,69,52,2,2,1,1.444094e+00,NaN,2,1,2,1
12,941,6,9,20,2,2,1,1.753037e+00,NaN,2,0,1,1
12,942,6,42,54,1,1,1,1.729596e+00,NaN,2,0,1,1
12,943,6,96,14,2,2,1,6.746948e-01,NaN,2,1,2,1
12,944,6,27,53,2,2,1,9.742391e-01,NaN,2,0,1,1
12,945,6,104,28,2,2,1,1.005966e+00,NaN,2,0,3,1
12,946,6,115,13,1,2,0,2.020712e+00,NaN,2,0,3,1
12,947,6,59,12,2,2,1,1.234298e+00,NaN,2,0,2,1
12,948,6,66,15,1,1,1,6.551982e-01,NaN,2,0,2,1
12,949,6,1,22,2,2,1,7.318796e-01,NaN,2,0,1,1
12,950,6,45,16,1,2,0,1.813101e+00,NaN,2,1,1,1
12,951,6,50,59,2,2,1,1.586524e+00,NaN,2,0,2,1
12,952,6,63,41,1,1,1,8.499213e-01,NaN,2,0,2,1
12,953,6,24,5,2,2,1,1.550576e+00,NaN,2,1,1,1
12,954,6,139,26,2,2,1,1.102825e+00,NaN,2,0,3,1
12,955,6,65,40,2,2,1,1.338093e+00,NaN,2,0,2,1
12,956,6,32,47,1,1,1,1.139239e+00,NaN,2,0,1,1
12,957,6,100,21,1,1,1,1.292302e+00,NaN,2,1,3,1
12,958,6,46,43,2,2,1,1.030952e+00,NaN,2,0,1,1
12,959,6,6,68,1,1,1,1.116249e+00,NaN,2,0,1,1
12,960,6,52,46,2,2,1,9.670174e-01,NaN,2,0,2,1
12,961,6,72,42,1,1,1,1.334093e+00,NaN,2,0,2,1
12,962,6,142,32,1,1,1,1.487395e+00,NaN,2,0,3,1
12,963,6,117,37,2,2,1,1.178313e+00,NaN,2,1,3,1
12,964,6,82,49,2,2,1,8.896925e-01,NaN,2,0,2,1
12,965,6,133,29,2,2,1,1.108873e+00,NaN,2,0,3,1
12,966,6,89,36,2,2,1,1.398992e+00,NaN,2,1,2,1
12,967,6,37,17,1,1,1,1.533354e+00,NaN,2,0,1,1
12,968,6,88,4,2,2,1,1.366676e+00,NaN,2,1,2,1
12,969,6,93,9,2,2,1,6.306945e-01,NaN,2,0,2,1
12,970,6,136,51,2,2,1,1.019986e+00,NaN,2,0,3,1
12,971,6,143,1,1,1,1,8.743613e-01,NaN,2,0,3,1
12,972,6,53,50,2,1,0,1.293864e+00,NaN,2,0,2,1
12,973,6,111,7,1,1,1,1.008740e+00,NaN,2,0,3,1
12,974,6,18,31,2,1,0,8.709716e-01,NaN,2,0,1,1
12,975,6,121,62,2,2,1,1.650684e+00,NaN,2,0,3,1
12,976,6,10,45,2,2,1,2.959073e+00,NaN,2,1,1,1
12,977,6,128,38,2,2,1,1.295750e+00,NaN,2,0,3,1
12,978,6,144,69,1,1,1,1.002593e+00,NaN,2,0,3,1
12,979,6,141,65,2,2,1,9.770276e-01,NaN,2,0,3,1
12,980,6,29,69,2,2,1,7.525576e-01,NaN,1,0,1,1
12,981,6,19,42,1,1,1,2.345470e+00,NaN,1,0,1,1
12,982,6,119,46,1,1,1,1.233476e+00,NaN,1,0,3,1
12,983,6,51,72,2,2,1,8.464984e-01,NaN,1,0,2,1
12,984,6,33,51,2,2,1,1.851446e+00,NaN,1,0,1,1
12,985,6,56,24,1,1,1,7.357218e-01,NaN,1,0,2,1
12,986,6,11,56,1,1,1,1.449340e+00,NaN,1,1,1,1
12,987,6,90,44,2,1,0,1.229758e+00,NaN,1,0,2,1
12,988,6,30,55,2,2,1,1.627098e+00,NaN,1,1,1,1
12,989,6,134,45,2,2,1,2.017458e+00,NaN,1,1,3,1
12,990,6,83,2,1,1,1,9.264433e-01,NaN,1,0,2,1
12,991,6,61,33,1,1,1,6.322958e-01,NaN,1,1,2,1
12,992,6,28,32,1,1,1,7.981191e-01,NaN,1,0,1,1
12,993,6,25,29,1,1,1,1.284660e+00,NaN,1,0,1,1
12,994,6,105,15,2,2,1,2.216438e+00,NaN,1,0,3,1
12,995,6,125,64,1,1,1,1.150070e+00,NaN,1,0,3,1
12,996,6,48,9,1,1,1,8.228537e-01,NaN,1,0,1,1
12,997,6,73,47,1,1,1,1.052324e+00,NaN,1,0,2,1
12,998,6,49,54,2,2,1,6.165502e-01,NaN,1,0,2,1
12,999,6,137,30,1,1,1,1.374904e+00,NaN,1,1,3,1
12,1000,6,81,7,2,1,0,1.166727e+00,NaN,1,0,2,1
12,1001,6,3,26,1,2,0,2.414494e+00,NaN,1,0,1,1
12,1002,6,101,41,2,2,1,1.972538e+00,NaN,1,0,3,1
12,1003,6,130,50,2,2,1,1.820370e+00,NaN,1,0,3,1
12,1004,6,127,66,1,1,1,1.498467e+00,NaN,1,0,3,1
12,1005,6,75,48,1,1,1,7.092042e-01,NaN,1,1,2,1
12,1006,6,67,18,1,1,1,1.199260e+00,NaN,1,1,2,1
12,1007,6,64,62,2,2,1,6.697744e-01,NaN,1,0,2,1
12,1008,6,110,59,1,1,1,7.860374e-01,NaN,1,0,3,1
12,1009,6,4,58,2,2,1,9.294265e-01,NaN,1,0,1,1
12,1010,6,13,34,2,2,1,1.370363e+00,NaN,1,1,1,1
12,1011,6,95,13,1,1,1,1.314038e+00,NaN,1,0,2,1
12,1012,6,41,36,1,1,1,1.419953e+00,NaN,1,1,1,1
12,1013,6,102,40,2,1,0,1.410287e+00,NaN,1,0,3,1
12,1014,6,126,39,2,2,1,1.984407e+00,NaN,1,0,3,1
12,1015,6,94,60,1,1,1,9.759569e-01,NaN,1,0,2,1
12,1016,6,20,14,2,1,0,1.783471e+00,NaN,1,1,1,1
12,1017,6,87,16,2,2,1,1.054696e+00,NaN,1,1,2,1
12,1018,6,103,57,2,2,1,2.211359e+00,NaN,1,0,3,1
12,1019,6,140,35,2,2,1,2.153610e+00,NaN,1,0,3,1
12,1020,6,85,37,1,1,1,9.941828e-01,NaN,1,1,2,1
12,1021,6,38,4,1,1,1,2.033002e+00,NaN,1,1,1,1
12,1022,6,34,1,2,2,1,1.262076e+00,NaN,1,0,1,1
12,1023,6,15,49,1,1,1,1.658055e+00,NaN,1,0,1,1
12,1024,6,57,10,2,2,1,1.078691e+00,NaN,1,1,2,1
12,1025,6,44,8,2,1,0,2.009506e+00,NaN,1,0,1,1
12,1026,6,132,20,2,2,1,1.095879e+00,NaN,1,0,3,1
12,1027,6,8,23,2,2,1,2.898375e+00,NaN,1,0,1,1
12,1028,6,14,63,2,2,1,1.237366e+00,NaN,1,0,1,1
12,1029,6,98,11,1,1,1,1.354147e+00,NaN,1,0,3,1
12,1030,6,77,17,2,2,1,1.434123e+00,NaN,1,0,2,1
12,1031,6,122,68,2,2,1,1.487879e+00,NaN,1,0,3,1
12,1032,6,55,27,1,1,1,1.698713e+00,NaN,1,1,2,1
12,1033,6,7,61,1,1,1,9.492017e-01,NaN,1,0,1,1
12,1034,6,17,65,2,1,0,1.342266e+00,NaN,1,0,1,1
12,1035,6,129,25,1,1,1,1.063316e+00,NaN,1,0,3,1
12,1036,6,131,52,2,2,1,7.792129e-01,NaN,1,1,3,1
12,1037,6,107,22,2,2,1,1.090738e+00,NaN,1,0,3,1
12,1038,6,99,12,2,2,1,1.069747e+00,NaN,1,0,3,1
12,1039,6,79,21,1,1,1,1.185297e+00,NaN,1,1,2,1
12,1040,6,70,43,2,2,1,1.120256e+00,NaN,1,0,2,1
12,1041,6,43,70,2,2,1,1.210382e+00,NaN,1,0,1,1
12,1042,6,40,38,1,1,1,1.408541e+00,NaN,1,0,1,1
12,1043,6,120,71,1,1,1,2.286955e+00,NaN,1,0,3,1
12,1044,6,86,53,1,1,1,9.216304e-01,NaN,1,0,2,1
12,1045,6,106,31,2,2,1,7.397279e-01,NaN,1,0,3,1
12,1046,6,60,6,1,1,1,7.405592e-01,NaN,1,0,2,1
12,1047,6,97,19,1,1,1,1.085505e+00,NaN,1,0,3,1
12,1048,6,76,28,2,2,1,1.008874e+00,NaN,1,0,2,1
12,1049,6,113,67,1,1,1,9.512284e-01,NaN,1,0,3,1
12,1050,6,36,3,2,2,1,1.047788e+00,NaN,1,0,1,1
12,1051,6,68,5,2,2,1,7.480634e-01,NaN,1,1,2,1
