Subject,Trial,Cond,ImageNum,CueNum,Correct,Resp,Accuracy,RT,CueRep,ImageType,Baseline,Category,Block
14,1,1,60,NaN,NaN,1,NaN,1.673075e+00,NaN,0,0,2,1
14,2,1,13,NaN,NaN,2,NaN,1.657629e+00,NaN,0,1,1,1
14,3,1,36,NaN,NaN,1,NaN,2.904666e+00,NaN,1,0,1,1
14,4,1,103,NaN,NaN,1,NaN,1.293910e+00,NaN,0,0,3,1
14,5,1,29,NaN,NaN,1,NaN,1.627747e+00,NaN,0,1,1,1
14,6,1,82,NaN,NaN,1,NaN,9.556160e-01,NaN,1,0,2,1
14,7,1,32,NaN,NaN,1,NaN,1.751568e+00,NaN,0,0,1,1
14,8,1,115,NaN,NaN,2,NaN,1.883022e+00,NaN,2,0,3,1
14,9,1,108,NaN,NaN,2,NaN,1.001164e+00,NaN,0,0,3,1
14,10,1,134,NaN,NaN,2,NaN,8.428225e-01,NaN,0,0,3,1
14,11,1,6,NaN,NaN,1,NaN,5.783674e-01,NaN,0,0,1,1
14,12,1,135,NaN,NaN,1,NaN,9.254795e-01,NaN,0,0,3,1
14,13,1,130,NaN,NaN,2,NaN,8.186870e-01,NaN,0,0,3,1
14,14,1,40,NaN,NaN,1,NaN,4.749130e-01,NaN,0,1,1,1
14,15,1,119,NaN,NaN,1,NaN,8.900541e-01,NaN,2,1,3,1
14,16,1,55,NaN,NaN,1,NaN,7.519820e-01,NaN,0,0,2,1
14,17,1,134,NaN,NaN,2,NaN,5.634018e-01,NaN,2,0,3,1
14,18,1,61,NaN,NaN,1,NaN,1.846304e+00,NaN,2,0,2,1
14,19,1,37,NaN,NaN,1,NaN,6.395462e-01,NaN,0,1,1,1
14,20,1,143,NaN,NaN,2,NaN,2.702284e+00,NaN,0,1,3,1
14,21,1,35,NaN,NaN,2,NaN,7.316197e-01,NaN,1,0,1,1
14,22,1,141,NaN,NaN,1,NaN,3.680441e-01,NaN,2,1,3,1
14,23,1,24,NaN,NaN,1,NaN,5.467651e-01,NaN,0,0,1,1
14,24,1,63,NaN,NaN,1,NaN,5.904437e-01,NaN,0,0,2,1
14,25,1,97,NaN,NaN,1,NaN,6.490710e-01,NaN,1,0,3,1
14,26,1,106,NaN,NaN,1,NaN,1.016700e+00,NaN,1,1,3,1
14,27,1,67,NaN,NaN,1,NaN,5.783308e-01,NaN,0,1,2,1
14,28,1,92,NaN,NaN,1,NaN,3.810571e-01,NaN,1,1,2,1
14,29,1,107,NaN,NaN,1,NaN,7.998424e-01,NaN,0,0,3,1
14,30,1,50,NaN,NaN,1,NaN,7.691451e-01,NaN,0,0,2,1
14,31,1,120,NaN,NaN,1,NaN,6.762795e-01,NaN,1,0,3,1
14,32,1,113,NaN,NaN,1,NaN,1.995027e+00,NaN,2,1,3,1
14,33,1,104,NaN,NaN,1,NaN,1.252962e+00,NaN,1,0,3,1
14,34,1,136,NaN,NaN,1,NaN,3.484699e-01,NaN,0,1,3,1
14,35,1,38,NaN,NaN,1,NaN,6.157968e-01,NaN,0,0,1,1
14,36,1,39,NaN,NaN,2,NaN,5.853554e-01,NaN,0,0,1,1
14,37,1,69,NaN,NaN,1,NaN,5.397161e-01,NaN,0,0,2,1
14,38,1,10,NaN,NaN,1,NaN,8.469418e-01,NaN,0,0,1,1
14,39,1,25,NaN,NaN,1,NaN,6.628114e-01,NaN,0,0,1,1
14,40,1,46,NaN,NaN,2,NaN,5.500390e-01,NaN,0,0,1,1
14,41,1,52,NaN,NaN,1,NaN,8.093780e-01,NaN,2,0,2,1
14,42,1,124,NaN,NaN,1,NaN,9.471480e-01,NaN,0,0,3,1
14,43,1,119,NaN,NaN,1,NaN,9.186677e-01,NaN,0,1,3,1
14,44,1,47,NaN,NaN,1,NaN,9.475648e-01,NaN,2,1,1,1
14,45,1,82,NaN,NaN,1,NaN,9.187855e-01,NaN,0,0,2,1
14,46,1,132,NaN,NaN,0,NaN,9.995255e+00,NaN,0,0,3,1
14,47,1,43,NaN,NaN,1,NaN,9.405547e-01,NaN,0,0,1,1
14,48,1,28,NaN,NaN,2,NaN,1.696189e+00,NaN,0,0,1,1
14,49,1,102,NaN,NaN,2,NaN,4.853397e-01,NaN,1,0,3,1
14,50,1,50,NaN,NaN,1,NaN,2.826834e-01,NaN,2,0,2,1
14,51,1,6,NaN,NaN,1,NaN,2.970350e-01,NaN,1,0,1,1
14,52,1,105,NaN,NaN,1,NaN,3.268612e-01,NaN,0,0,3,1
14,53,1,26,NaN,NaN,2,NaN,1.267372e+00,NaN,0,0,1,1
14,54,1,142,NaN,NaN,2,NaN,7.143941e-01,NaN,0,1,3,1
14,55,1,92,NaN,NaN,1,NaN,2.953737e-01,NaN,0,1,2,1
14,56,1,72,NaN,NaN,1,NaN,6.931136e-01,NaN,2,0,2,1
14,57,1,16,NaN,NaN,1,NaN,4.439633e-01,NaN,2,0,1,1
14,58,1,66,NaN,NaN,1,NaN,3.550797e-01,NaN,0,1,2,1
14,59,1,3,NaN,NaN,2,NaN,3.746135e-01,NaN,2,1,1,1
14,60,1,75,NaN,NaN,1,NaN,6.810611e-01,NaN,1,1,2,1
14,61,1,131,NaN,NaN,2,NaN,4.953967e-01,NaN,0,0,3,1
14,62,1,117,NaN,NaN,1,NaN,6.535724e-01,NaN,1,1,3,1
14,63,1,15,NaN,NaN,2,NaN,3.813975e-01,NaN,2,0,1,1
14,64,1,74,NaN,NaN,1,NaN,3.838615e-01,NaN,2,0,2,1
14,65,1,94,NaN,NaN,1,NaN,1.942849e-01,NaN,0,1,2,1
14,66,1,106,NaN,NaN,1,NaN,1.211968e+00,NaN,0,1,3,1
14,67,1,70,NaN,NaN,1,NaN,5.970360e-01,NaN,1,0,2,1
14,68,1,69,NaN,NaN,1,NaN,5.588571e-01,NaN,1,0,2,1
14,69,1,126,NaN,NaN,2,NaN,1.370109e+00,NaN,1,1,3,1
14,70,1,45,NaN,NaN,2,NaN,3.010049e-01,NaN,0,0,1,1
14,71,1,90,NaN,NaN,1,NaN,3.466211e-01,NaN,2,0,2,1
14,72,1,66,NaN,NaN,1,NaN,6.542247e-01,NaN,1,1,2,1
14,73,1,30,NaN,NaN,1,NaN,5.572513e-01,NaN,0,1,1,1
14,74,1,5,NaN,NaN,1,NaN,7.054413e-01,NaN,0,0,1,1
14,75,1,67,NaN,NaN,1,NaN,6.231948e-01,NaN,1,1,2,1
14,76,1,133,NaN,NaN,2,NaN,5.441940e-01,NaN,0,0,3,1
14,77,1,97,NaN,NaN,1,NaN,8.921368e-01,NaN,0,0,3,1
14,78,1,99,NaN,NaN,2,NaN,7.778226e-01,NaN,2,0,3,1
14,79,1,79,NaN,NaN,1,NaN,7.802096e-01,NaN,1,1,2,1
14,80,1,85,NaN,NaN,1,NaN,3.585232e-01,NaN,2,0,2,1
14,81,1,87,NaN,NaN,1,NaN,6.814136e-01,NaN,1,0,2,1
14,82,1,131,NaN,NaN,2,NaN,6.479925e-01,NaN,1,0,3,1
14,83,1,104,NaN,NaN,1,NaN,1.127504e+00,NaN,0,0,3,1
14,84,1,71,NaN,NaN,1,NaN,6.603244e-01,NaN,2,0,2,1
14,85,1,18,NaN,NaN,1,NaN,5.230384e-01,NaN,1,1,1,1
14,86,1,51,NaN,NaN,1,NaN,5.212460e-01,NaN,0,0,2,1
14,87,1,125,NaN,NaN,1,NaN,5.969349e-01,NaN,0,1,3,1
14,88,1,53,NaN,NaN,1,NaN,3.260230e-01,NaN,0,0,2,1
14,89,1,57,NaN,NaN,1,NaN,6.982993e-01,NaN,0,0,2,1
14,90,1,116,NaN,NaN,1,NaN,2.321969e-01,NaN,1,0,3,1
14,91,1,41,NaN,NaN,2,NaN,6.164059e-01,NaN,0,1,1,1
14,92,1,94,NaN,NaN,1,NaN,9.299351e-01,NaN,1,1,2,1
14,93,1,84,NaN,NaN,1,NaN,8.381133e-01,NaN,0,0,2,1
14,94,1,5,NaN,NaN,1,NaN,6.780420e-01,NaN,1,0,1,1
14,95,1,54,NaN,NaN,1,NaN,1.060381e+00,NaN,1,0,2,1
14,96,1,60,NaN,NaN,1,NaN,4.447602e-01,NaN,1,0,2,1
14,97,1,8,NaN,NaN,1,NaN,7.318681e-01,NaN,0,0,1,1
14,98,1,52,NaN,NaN,1,NaN,1.873046e+00,NaN,0,0,2,1
14,99,1,118,NaN,NaN,1,NaN,6.478255e-01,NaN,2,0,3,1
14,100,1,84,NaN,NaN,1,NaN,2.687378e+00,NaN,2,0,2,1
14,101,1,89,NaN,NaN,1,NaN,9.741187e-01,NaN,0,0,2,1
14,102,1,77,NaN,NaN,2,NaN,1.192269e+00,NaN,1,0,2,1
14,103,1,126,NaN,NaN,2,NaN,1.554347e+00,NaN,0,1,3,1
14,104,1,114,NaN,NaN,1,NaN,5.015710e-01,NaN,1,1,3,1
14,105,1,101,NaN,NaN,2,NaN,8.520358e-01,NaN,0,1,3,1
14,106,1,21,NaN,NaN,1,NaN,4.435839e-01,NaN,0,0,1,1
14,107,1,59,NaN,NaN,1,NaN,8.760007e-01,NaN,0,0,2,1
14,108,1,122,NaN,NaN,2,NaN,1.274216e+00,NaN,0,1,3,1
14,109,1,127,NaN,NaN,1,NaN,3.293563e-01,NaN,1,0,3,1
14,110,1,22,NaN,NaN,1,NaN,2.934904e-01,NaN,1,1,1,1
14,111,1,34,NaN,NaN,1,NaN,7.468479e-01,NaN,2,1,1,1
14,112,1,68,NaN,NaN,1,NaN,1.014022e+00,NaN,2,0,2,1
14,113,1,141,NaN,NaN,1,NaN,9.833682e-01,NaN,0,1,3,1
14,114,1,58,NaN,NaN,1,NaN,5.536497e-01,NaN,1,0,2,1
14,115,1,105,NaN,NaN,1,NaN,1.724294e+00,NaN,1,0,3,1
14,116,1,91,NaN,NaN,1,NaN,2.568891e+00,NaN,0,0,2,1
14,117,1,62,NaN,NaN,1,NaN,1.204765e+00,NaN,2,0,2,1
14,118,1,12,NaN,NaN,1,NaN,9.972444e-01,NaN,0,0,1,1
14,119,1,11,NaN,NaN,1,NaN,7.505995e-01,NaN,1,0,1,1
14,120,1,101,NaN,NaN,2,NaN,7.223206e-01,NaN,2,1,3,1
14,121,1,81,NaN,NaN,1,NaN,1.263078e+00,NaN,0,0,2,1
14,122,1,26,NaN,NaN,2,NaN,5.045931e+00,NaN,1,0,1,1
14,123,1,7,NaN,NaN,1,NaN,7.650692e-01,NaN,0,0,1,1
14,124,1,135,NaN,NaN,2,NaN,3.431831e+00,NaN,2,0,3,1
14,125,1,51,NaN,NaN,1,NaN,6.808655e-01,NaN,1,0,2,1
14,126,1,63,NaN,NaN,1,NaN,8.073204e-01,NaN,2,0,2,1
14,127,1,57,NaN,NaN,1,NaN,1.160206e+00,NaN,1,0,2,1
14,128,1,123,NaN,NaN,1,NaN,1.427378e+00,NaN,1,0,3,1
14,129,1,16,NaN,NaN,1,NaN,4.676868e-01,NaN,0,0,1,1
14,130,1,35,NaN,NaN,2,NaN,6.101217e-01,NaN,0,0,1,1
14,131,1,73,NaN,NaN,1,NaN,7.720123e-01,NaN,2,0,2,1
14,132,1,71,NaN,NaN,1,NaN,6.547668e-01,NaN,0,0,2,1
14,133,1,96,NaN,NaN,1,NaN,5.423910e-01,NaN,1,0,2,1
14,134,1,47,NaN,NaN,1,NaN,4.100996e-01,NaN,0,1,1,1
14,135,1,56,NaN,NaN,1,NaN,1.027173e+00,NaN,1,0,2,1
14,136,1,93,NaN,NaN,1,NaN,4.039353e-01,NaN,2,0,2,1
14,137,1,117,NaN,NaN,1,NaN,4.456359e-01,NaN,0,1,3,1
14,138,1,138,NaN,NaN,1,NaN,7.492639e-01,NaN,0,0,3,1
14,139,1,49,NaN,NaN,1,NaN,5.213939e-01,NaN,0,0,2,1
14,140,1,85,NaN,NaN,1,NaN,8.618051e-01,NaN,0,0,2,1
14,141,1,74,NaN,NaN,1,NaN,3.329751e-01,NaN,0,0,2,1
14,142,1,30,NaN,NaN,2,NaN,9.529299e-01,NaN,2,1,1,1
14,143,1,53,NaN,NaN,1,NaN,9.889216e-01,NaN,2,0,2,1
14,144,1,9,NaN,NaN,1,NaN,2.622671e+00,NaN,0,0,1,1
14,145,1,111,NaN,NaN,1,NaN,3.839069e+00,NaN,0,0,3,1
14,146,1,17,NaN,NaN,1,NaN,7.750187e-01,NaN,0,0,1,1
14,147,1,83,NaN,NaN,1,NaN,7.702178e-01,NaN,0,1,2,1
14,148,1,107,NaN,NaN,1,NaN,8.525574e-01,NaN,2,0,3,1
14,149,1,113,NaN,NaN,1,NaN,1.068939e+00,NaN,0,1,3,1
14,150,1,15,NaN,NaN,2,NaN,9.482521e-01,NaN,0,0,1,1
14,151,1,42,NaN,NaN,1,NaN,7.130968e-01,NaN,2,0,1,1
14,152,1,12,NaN,NaN,2,NaN,2.773560e+00,NaN,1,0,1,1
14,153,1,133,NaN,NaN,2,NaN,1.311431e+00,NaN,1,0,3,1
14,154,1,22,NaN,NaN,1,NaN,5.490537e-01,NaN,0,1,1,1
14,155,1,95,NaN,NaN,1,NaN,3.201608e-01,NaN,1,0,2,1
14,156,1,36,NaN,NaN,1,NaN,7.248888e-01,NaN,0,0,1,1
14,157,1,93,NaN,NaN,1,NaN,7.456175e-01,NaN,0,0,2,1
14,158,1,78,NaN,NaN,1,NaN,7.491012e-01,NaN,0,0,2,1
14,159,1,109,NaN,NaN,1,NaN,3.929372e-01,NaN,0,0,3,1
14,160,1,34,NaN,NaN,1,NaN,2.034976e+00,NaN,0,1,1,1
14,161,1,23,NaN,NaN,1,NaN,5.079653e-01,NaN,1,1,1,1
14,162,1,129,NaN,NaN,2,NaN,1.001522e+00,NaN,1,0,3,1
14,163,1,21,NaN,NaN,1,NaN,5.146866e-01,NaN,1,0,1,1
14,164,1,28,NaN,NaN,2,NaN,4.400997e-01,NaN,2,0,1,1
14,165,1,112,NaN,NaN,1,NaN,4.410197e-01,NaN,0,1,3,1
14,166,1,9,NaN,NaN,1,NaN,2.968388e-01,NaN,1,0,1,1
14,167,1,121,NaN,NaN,2,NaN,1.038417e+00,NaN,2,0,3,1
14,168,1,118,NaN,NaN,2,NaN,1.574550e+00,NaN,0,0,3,1
14,169,1,45,NaN,NaN,2,NaN,6.245434e-01,NaN,2,0,1,1
14,170,1,29,NaN,NaN,1,NaN,6.011131e-01,NaN,2,1,1,1
14,171,1,20,NaN,NaN,1,NaN,6.506686e-01,NaN,1,0,1,1
14,172,1,98,NaN,NaN,1,NaN,5.222822e-01,NaN,1,0,3,1
14,173,1,144,NaN,NaN,1,NaN,2.883762e-01,NaN,2,0,3,1
14,174,1,58,NaN,NaN,1,NaN,4.689129e-01,NaN,0,0,2,1
14,175,1,128,NaN,NaN,1,NaN,7.559389e-01,NaN,0,0,3,1
14,176,1,33,NaN,NaN,2,NaN,5.914017e-01,NaN,1,0,1,1
14,177,1,4,NaN,NaN,1,NaN,8.733323e-01,NaN,0,0,1,1
14,178,1,19,NaN,NaN,2,NaN,2.071739e+00,NaN,0,0,1,1
14,179,1,139,NaN,NaN,1,NaN,4.062952e-01,NaN,0,0,3,1
14,180,1,24,NaN,NaN,1,NaN,5.593075e-01,NaN,1,0,1,1
14,181,1,17,NaN,NaN,1,NaN,4.822509e-01,NaN,1,0,1,1
14,182,1,122,NaN,NaN,2,NaN,1.464747e+00,NaN,1,1,3,1
14,183,1,64,NaN,NaN,1,NaN,3.278630e-01,NaN,0,0,2,1
14,184,1,10,NaN,NaN,2,NaN,1.651740e+00,NaN,2,0,1,1
14,185,1,143,NaN,NaN,1,NaN,2.678433e-01,NaN,2,1,3,1
14,186,1,40,NaN,NaN,1,NaN,7.544445e-01,NaN,2,1,1,1
14,187,1,68,NaN,NaN,1,NaN,2.299660e-01,NaN,0,0,2,1
14,188,1,136,NaN,NaN,1,NaN,7.186173e-01,NaN,2,1,3,1
14,189,1,23,NaN,NaN,1,NaN,9.559653e-01,NaN,0,1,1,1
14,190,1,79,NaN,NaN,1,NaN,4.070960e-01,NaN,0,1,2,1
14,191,1,78,NaN,NaN,1,NaN,7.766457e-01,NaN,2,0,2,1
14,192,1,140,NaN,NaN,1,NaN,4.350169e-01,NaN,0,1,3,1
14,193,1,83,NaN,NaN,1,NaN,3.954935e-01,NaN,1,1,2,1
14,194,1,1,NaN,NaN,1,NaN,6.452746e-01,NaN,0,0,1,1
14,195,1,59,NaN,NaN,1,NaN,4.287040e-01,NaN,2,0,2,1
14,196,1,49,NaN,NaN,1,NaN,7.083557e-01,NaN,1,0,2,1
14,197,1,27,NaN,NaN,1,NaN,5.855685e-01,NaN,2,0,1,1
14,198,1,2,NaN,NaN,2,NaN,1.579159e+00,NaN,2,0,1,1
14,199,1,48,NaN,NaN,1,NaN,6.146301e-01,NaN,0,0,1,1
14,200,1,88,NaN,NaN,1,NaN,1.070616e+00,NaN,2,0,2,1
14,201,1,19,NaN,NaN,1,NaN,1.501285e+00,NaN,2,0,1,1
14,202,1,2,NaN,NaN,2,NaN,8.985743e-01,NaN,0,0,1,1
14,203,1,54,NaN,NaN,1,NaN,1.008425e+00,NaN,0,0,2,1
14,204,1,90,NaN,NaN,1,NaN,1.545822e+00,NaN,0,0,2,1
14,205,1,88,NaN,NaN,1,NaN,7.095534e-01,NaN,0,0,2,1
14,206,1,95,NaN,NaN,1,NaN,6.505105e-01,NaN,0,0,2,1
14,207,1,61,NaN,NaN,1,NaN,9.865907e-01,NaN,0,0,2,1
14,208,1,109,NaN,NaN,1,NaN,5.094579e-01,NaN,2,0,3,1
14,209,1,129,NaN,NaN,2,NaN,8.335262e-01,NaN,0,0,3,1
14,210,1,137,NaN,NaN,1,NaN,4.274918e-01,NaN,1,0,3,1
14,211,1,114,NaN,NaN,1,NaN,3.546448e-01,NaN,0,1,3,1
14,212,1,100,NaN,NaN,2,NaN,1.693535e+00,NaN,1,0,3,1
14,213,1,99,NaN,NaN,2,NaN,1.171485e+00,NaN,0,0,3,1
14,214,1,100,NaN,NaN,2,NaN,5.501694e-01,NaN,0,0,3,1
14,215,1,55,NaN,NaN,1,NaN,3.781771e-01,NaN,2,0,2,1
14,216,1,1,NaN,NaN,1,NaN,6.038167e-01,NaN,2,0,1,1
14,217,1,120,NaN,NaN,2,NaN,3.421981e+00,NaN,0,0,3,1
14,218,1,42,NaN,NaN,2,NaN,4.246489e+00,NaN,0,0,1,1
14,219,1,112,NaN,NaN,1,NaN,8.218389e-01,NaN,2,1,3,1
14,220,1,18,NaN,NaN,1,NaN,4.544000e-01,NaN,0,1,1,1
14,221,1,103,NaN,NaN,1,NaN,3.769746e-02,NaN,2,0,3,1
14,222,1,43,NaN,NaN,1,NaN,7.341184e-01,NaN,1,0,1,1
14,223,1,87,NaN,NaN,1,NaN,8.339222e-01,NaN,0,0,2,1
14,224,1,128,NaN,NaN,1,NaN,1.346837e+00,NaN,2,0,3,1
14,225,1,39,NaN,NaN,2,NaN,7.184974e-01,NaN,1,0,1,1
14,226,1,138,NaN,NaN,1,NaN,6.269730e-01,NaN,2,0,3,1
14,227,1,137,NaN,NaN,1,NaN,5.555836e-01,NaN,0,0,3,1
14,228,1,91,NaN,NaN,2,NaN,2.070587e+00,NaN,2,0,2,1
14,229,1,80,NaN,NaN,1,NaN,8.369748e-01,NaN,0,1,2,1
14,230,1,33,NaN,NaN,2,NaN,3.652167e-01,NaN,0,0,1,1
14,231,1,98,NaN,NaN,1,NaN,5.364114e-01,NaN,0,0,3,1
14,232,1,14,NaN,NaN,2,NaN,1.107718e+00,NaN,0,0,1,1
14,233,1,64,NaN,NaN,1,NaN,2.177732e+00,NaN,2,0,2,1
14,234,1,111,NaN,NaN,1,NaN,1.131458e+00,NaN,2,0,3,1
14,235,1,70,NaN,NaN,1,NaN,3.117420e-01,NaN,0,0,2,1
14,236,1,89,NaN,NaN,1,NaN,6.605979e-01,NaN,1,0,2,1
14,237,1,76,NaN,NaN,1,NaN,4.367362e-01,NaN,0,0,2,1
14,238,1,76,NaN,NaN,1,NaN,1.572413e+00,NaN,1,0,2,1
14,239,1,73,NaN,NaN,1,NaN,1.431064e+00,NaN,0,0,2,1
14,240,1,56,NaN,NaN,1,NaN,8.236008e-01,NaN,0,0,2,1
14,241,1,7,NaN,NaN,1,NaN,6.878418e-01,NaN,2,0,1,1
14,242,1,132,NaN,NaN,2,NaN,5.109806e+00,NaN,2,0,3,1
14,243,1,86,NaN,NaN,1,NaN,4.930971e+00,NaN,0,0,2,1
14,244,1,65,NaN,NaN,1,NaN,3.670272e-01,NaN,0,0,2,1
14,245,1,46,NaN,NaN,2,NaN,3.300089e-01,NaN,1,0,1,1
14,246,1,80,NaN,NaN,1,NaN,5.738825e-01,NaN,2,1,2,1
14,247,1,11,NaN,NaN,1,NaN,4.014644e-01,NaN,0,0,1,1
14,248,1,3,NaN,NaN,2,NaN,3.711139e-01,NaN,0,1,1,1
14,249,1,31,NaN,NaN,1,NaN,3.901273e-01,NaN,0,0,1,1
14,250,1,44,NaN,NaN,1,NaN,4.484452e-01,NaN,1,1,1,1
14,251,1,102,NaN,NaN,2,NaN,6.804079e-01,NaN,0,0,3,1
14,252,1,139,NaN,NaN,1,NaN,4.146615e-01,NaN,1,0,3,1
14,253,1,124,NaN,NaN,2,NaN,4.511412e+00,NaN,1,0,3,1
14,254,1,86,NaN,NaN,1,NaN,4.040811e-01,NaN,2,0,2,1
14,255,1,72,NaN,NaN,1,NaN,6.374770e-01,NaN,0,0,2,1
14,256,1,37,NaN,NaN,1,NaN,8.856453e-01,NaN,1,1,1,1
14,257,1,75,NaN,NaN,1,NaN,6.844717e-01,NaN,0,1,2,1
14,258,1,81,NaN,NaN,1,NaN,3.070120e-01,NaN,1,0,2,1
14,259,1,123,NaN,NaN,1,NaN,4.085813e-01,NaN,0,0,3,1
14,260,1,121,NaN,NaN,2,NaN,1.146481e+00,NaN,0,0,3,1
14,261,1,127,NaN,NaN,1,NaN,4.470687e-01,NaN,0,0,3,1
14,262,1,130,NaN,NaN,2,NaN,6.306589e-01,NaN,2,0,3,1
14,263,1,27,NaN,NaN,1,NaN,4.951407e-01,NaN,0,0,1,1
14,264,1,13,NaN,NaN,1,NaN,6.442263e-01,NaN,2,1,1,1
14,265,1,44,NaN,NaN,1,NaN,6.360357e-01,NaN,0,1,1,1
14,266,1,110,NaN,NaN,1,NaN,1.212762e+00,NaN,1,0,3,1
14,267,1,32,NaN,NaN,2,NaN,2.605250e+00,NaN,1,0,1,1
14,268,1,31,NaN,NaN,1,NaN,9.580492e-01,NaN,2,0,1,1
14,269,1,4,NaN,NaN,1,NaN,4.411610e-01,NaN,1,0,1,1
14,270,1,140,NaN,NaN,1,NaN,4.256197e-01,NaN,2,1,3,1
14,271,1,25,NaN,NaN,1,NaN,9.460607e-01,NaN,2,0,1,1
14,272,1,77,NaN,NaN,2,NaN,3.309805e+00,NaN,0,0,2,1
14,273,1,41,NaN,NaN,2,NaN,7.076744e-01,NaN,2,1,1,1
14,274,1,116,NaN,NaN,1,NaN,1.192965e+00,NaN,0,0,3,1
14,275,1,65,NaN,NaN,1,NaN,7.062382e-01,NaN,2,0,2,1
14,276,1,125,NaN,NaN,1,NaN,3.597753e-01,NaN,1,1,3,1
14,277,1,108,NaN,NaN,2,NaN,4.591526e-01,NaN,1,0,3,1
14,278,1,48,NaN,NaN,1,NaN,6.832546e-01,NaN,1,0,1,1
14,279,1,14,NaN,NaN,1,NaN,6.252950e-01,NaN,2,0,1,1
14,280,1,20,NaN,NaN,2,NaN,1.714408e+00,NaN,0,0,1,1
14,281,1,142,NaN,NaN,2,NaN,2.175152e+00,NaN,2,1,3,1
14,282,1,62,NaN,NaN,1,NaN,3.219888e-01,NaN,0,0,2,1
14,283,1,96,NaN,NaN,1,NaN,9.742817e-01,NaN,0,0,2,1
14,284,1,38,NaN,NaN,1,NaN,4.408256e-01,NaN,2,0,1,1
14,285,1,8,NaN,NaN,2,NaN,1.320744e+00,NaN,2,0,1,1
14,286,1,115,NaN,NaN,2,NaN,1.261109e+00,NaN,0,0,3,1
14,287,1,110,NaN,NaN,1,NaN,3.252436e-01,NaN,0,0,3,1
14,288,1,144,NaN,NaN,1,NaN,2.415962e-01,NaN,0,0,3,1
14,384,2,67,10,1,1,1,1.722701e+00,NaN,1,1,2,1
14,385,2,124,4,2,2,1,9.882017e-01,NaN,1,0,3,1
14,386,2,116,31,1,1,1,3.017783e+00,NaN,1,0,3,1
14,387,2,95,18,2,2,1,1.726960e+00,NaN,1,0,2,1
14,388,2,100,52,1,1,1,1.495575e+00,NaN,1,0,3,1
14,389,2,79,62,1,1,1,1.561231e+00,NaN,1,1,2,1
14,390,2,57,26,1,1,1,1.272249e+00,NaN,1,0,2,1
14,391,2,17,20,2,0,0,3.499940e+00,NaN,1,0,1,1
14,392,2,46,39,2,2,1,1.228210e+00,NaN,1,0,1,1
14,393,2,66,17,2,2,1,1.224756e+00,NaN,1,1,2,1
14,394,2,12,67,2,2,1,2.733195e+00,NaN,1,0,1,1
14,395,2,102,29,2,2,1,2.661662e+00,NaN,1,0,3,1
14,396,2,126,5,1,1,1,2.224073e+00,NaN,1,1,3,1
14,397,2,89,42,1,1,1,1.116738e+00,NaN,1,0,2,1
14,398,2,123,66,1,1,1,2.333879e+00,NaN,1,0,3,1
14,399,2,117,57,2,2,1,2.493946e+00,NaN,1,1,3,1
14,400,2,44,71,1,1,1,1.607933e+00,NaN,1,1,1,1
14,401,2,98,53,1,1,1,2.869028e+00,NaN,1,0,3,1
14,402,2,56,12,1,1,1,1.056086e+00,NaN,1,0,2,1
14,403,2,69,61,2,2,1,2.075324e+00,NaN,1,0,2,1
14,404,2,131,65,2,2,1,6.695830e-01,NaN,1,0,3,1
14,405,2,106,6,2,2,1,3.320110e+00,NaN,1,1,3,1
14,406,2,21,15,2,2,1,1.048843e+00,NaN,1,0,1,1
14,407,2,137,64,2,0,0,3.500117e+00,NaN,1,0,3,1
14,408,3,124,4,1,1,1,1.249691e+00,NaN,1,0,3,1
14,409,3,69,61,1,1,1,1.741329e+00,NaN,1,0,2,1
14,410,3,56,12,2,2,1,8.690570e-01,NaN,1,0,2,1
14,411,3,44,71,1,1,1,1.423769e+00,NaN,1,1,1,1
14,412,3,21,15,1,1,1,9.484366e-01,NaN,1,0,1,1
14,413,3,116,31,2,2,1,1.691764e+00,NaN,1,0,3,1
14,414,3,106,6,2,2,1,1.117796e+00,NaN,1,1,3,1
14,415,3,17,20,2,2,1,2.102974e+00,NaN,1,0,1,1
14,416,3,137,64,2,2,1,1.032373e+00,NaN,1,0,3,1
14,417,3,131,65,2,2,1,7.888693e-01,NaN,1,0,3,1
14,418,3,79,62,1,1,1,8.587480e-01,NaN,1,1,2,1
14,419,3,98,53,1,1,1,1.646039e+00,NaN,1,0,3,1
14,420,3,46,39,2,2,1,1.409521e+00,NaN,1,0,1,1
14,421,3,66,17,2,2,1,7.747081e-01,NaN,1,1,2,1
14,422,3,57,26,2,2,1,6.054452e-01,NaN,1,0,2,1
14,423,3,67,10,1,1,1,1.178876e+00,NaN,1,1,2,1
14,424,3,100,52,2,2,1,1.505294e+00,NaN,1,0,3,1
14,425,3,117,57,1,1,1,1.010424e+00,NaN,1,1,3,1
14,426,3,89,42,2,2,1,8.319095e-01,NaN,1,0,2,1
14,427,3,95,18,1,1,1,9.320094e-01,NaN,1,0,2,1
14,428,3,123,66,1,1,1,7.962637e-01,NaN,1,0,3,1
14,429,3,102,29,1,1,1,1.553906e+00,NaN,1,0,3,1
14,430,3,126,5,2,2,1,1.504959e+00,NaN,1,1,3,1
14,431,3,12,67,2,2,1,2.530228e+00,NaN,1,0,1,1
14,456,2,11,70,2,0,0,3.499632e+00,NaN,1,0,1,2
14,457,2,114,7,1,1,1,1.131849e+00,NaN,1,1,3,2
14,458,2,58,3,2,2,1,2.788006e+00,NaN,1,0,2,2
14,459,2,97,48,2,2,1,1.274356e+00,NaN,1,0,3,2
14,460,2,37,58,1,2,0,1.644895e+00,NaN,1,1,1,2
14,461,2,70,63,2,1,0,1.776293e+00,NaN,1,0,2,2
14,462,2,94,33,2,2,1,6.554019e-01,NaN,1,1,2,2
14,463,2,26,43,2,2,1,8.985596e-01,NaN,1,0,1,2
14,464,2,83,72,1,1,1,6.841807e-01,NaN,1,1,2,2
14,465,2,20,35,2,2,1,1.062652e+00,NaN,1,0,1,2
14,466,2,32,9,1,1,1,1.265645e+00,NaN,1,0,1,2
14,467,2,87,50,1,1,1,1.012528e+00,NaN,1,0,2,2
14,468,2,96,51,1,1,1,5.057688e-01,NaN,1,0,2,2
14,469,2,127,22,2,2,1,1.066686e+00,NaN,1,0,3,2
14,470,2,43,40,1,2,0,1.534838e+00,NaN,1,0,1,2
14,471,2,133,16,2,2,1,1.869484e+00,NaN,1,0,3,2
14,472,2,60,27,1,1,1,1.064343e+00,NaN,1,0,2,2
14,473,2,9,45,1,2,0,1.731347e+00,NaN,1,0,1,2
14,474,2,4,59,1,1,1,1.563908e+00,NaN,1,0,1,2
14,475,2,5,21,1,1,1,9.144383e-01,NaN,1,0,1,2
14,476,2,39,41,1,1,1,2.971818e+00,NaN,1,0,1,2
14,477,2,51,47,2,2,1,1.242014e+00,NaN,1,0,2,2
14,478,2,110,28,2,2,1,1.557916e+00,NaN,1,0,3,2
14,479,2,24,1,2,2,1,2.965243e+00,NaN,1,0,1,2
14,480,3,58,3,2,2,1,8.652896e-01,NaN,1,0,2,2
14,481,3,97,48,2,2,1,2.091958e+00,NaN,1,0,3,2
14,482,3,94,33,2,2,1,6.147228e-01,NaN,1,1,2,2
14,483,3,127,22,2,2,1,8.513237e-01,NaN,1,0,3,2
14,484,3,4,59,1,1,1,7.428891e-01,NaN,1,0,1,2
14,485,3,5,21,1,1,1,1.070744e+00,NaN,1,0,1,2
14,486,3,110,28,2,2,1,9.134732e-01,NaN,1,0,3,2
14,487,3,96,51,1,1,1,3.626875e-01,NaN,1,0,2,2
14,488,3,24,1,2,2,1,1.833794e+00,NaN,1,0,1,2
14,489,3,87,50,2,2,1,2.230169e+00,NaN,1,0,2,2
14,490,3,70,63,2,1,0,1.322379e+00,NaN,1,0,2,2
14,491,3,43,40,1,1,1,1.866996e+00,NaN,1,0,1,2
14,492,3,39,41,2,0,0,3.499688e+00,NaN,1,0,1,2
14,493,3,60,27,1,1,1,1.135107e+00,NaN,1,0,2,2
14,494,3,26,43,1,1,1,1.527232e+00,NaN,1,0,1,2
14,495,3,11,70,1,2,0,1.271716e+00,NaN,1,0,1,2
14,496,3,32,9,2,2,1,8.023788e-01,NaN,1,0,1,2
14,497,3,114,7,2,2,1,8.001986e-01,NaN,1,1,3,2
14,498,3,20,35,2,2,1,8.699646e-01,NaN,1,0,1,2
14,499,3,83,72,2,2,1,1.312720e+00,NaN,1,1,2,2
14,500,3,9,45,2,2,1,2.345308e+00,NaN,1,0,1,2
14,501,3,37,58,1,1,1,2.785085e+00,NaN,1,1,1,2
14,502,3,51,47,2,2,1,9.909938e-01,NaN,1,0,2,2
14,503,3,133,16,2,2,1,2.253116e+00,NaN,1,0,3,2
14,528,2,48,11,1,1,1,9.140458e-01,NaN,1,0,1,3
14,529,2,125,19,1,1,1,1.874616e+00,NaN,1,1,3,3
14,530,2,139,14,1,1,1,1.045558e+00,NaN,1,0,3,3
14,531,2,23,36,2,0,0,3.499608e+00,NaN,1,1,1,3
14,532,2,81,69,1,1,1,1.074546e+00,NaN,1,0,2,3
14,533,2,82,68,2,2,1,7.649433e-01,NaN,1,0,2,3
14,534,2,36,55,1,2,0,2.108169e+00,NaN,1,0,1,3
14,535,2,122,44,2,2,1,1.277226e+00,NaN,1,1,3,3
14,536,2,22,30,2,2,1,1.447991e+00,NaN,1,1,1,3
14,537,2,33,38,1,1,1,9.074659e-01,NaN,1,0,1,3
14,538,2,120,13,1,1,1,8.369464e-01,NaN,1,0,3,3
14,539,2,104,60,1,1,1,2.704584e+00,NaN,1,0,3,3
14,540,2,92,24,2,1,0,1.329972e+00,NaN,1,1,2,3
14,541,2,77,56,2,2,1,1.130194e+00,NaN,1,0,2,3
14,542,2,76,54,2,2,1,1.378527e+00,NaN,1,0,2,3
14,543,2,49,32,2,2,1,6.249935e-01,NaN,1,0,2,3
14,544,2,35,49,1,1,1,2.157234e+00,NaN,1,0,1,3
14,545,2,108,25,1,1,1,1.412834e+00,NaN,1,0,3,3
14,546,2,6,23,1,1,1,2.209483e+00,NaN,1,0,1,3
14,547,2,18,2,1,1,1,1.806855e+00,NaN,1,1,1,3
14,548,2,54,46,1,1,1,2.507967e+00,NaN,1,0,2,3
14,549,2,105,37,1,1,1,1.109388e+00,NaN,1,0,3,3
14,550,2,75,8,1,1,1,1.486351e+00,NaN,1,1,2,3
14,551,2,129,34,1,1,1,1.456625e+00,NaN,1,0,3,3
14,552,3,129,34,1,1,1,5.633836e-01,NaN,1,0,3,3
14,553,3,35,49,2,2,1,1.914282e+00,NaN,1,0,1,3
14,554,3,108,25,2,2,1,1.131213e+00,NaN,1,0,3,3
14,555,3,81,69,1,1,1,9.393651e-01,NaN,1,0,2,3
14,556,3,6,23,1,1,1,9.315926e-01,NaN,1,0,1,3
14,557,3,54,46,1,1,1,1.075754e+00,NaN,1,0,2,3
14,558,3,76,54,1,1,1,9.582680e-01,NaN,1,0,2,3
14,559,3,77,56,1,1,1,5.820085e-01,NaN,1,0,2,3
14,560,3,22,30,2,2,1,2.267835e+00,NaN,1,1,1,3
14,561,3,36,55,2,2,1,2.454680e+00,NaN,1,0,1,3
14,562,3,139,14,1,1,1,9.619880e-01,NaN,1,0,3,3
14,563,3,49,32,1,1,1,8.492642e-01,NaN,1,0,2,3
14,564,3,33,38,1,2,0,2.556749e+00,NaN,1,0,1,3
14,565,3,23,36,2,0,0,3.500051e+00,NaN,1,1,1,3
14,566,3,120,13,1,1,1,9.890103e-01,NaN,1,0,3,3
14,567,3,48,11,2,2,1,1.162982e+00,NaN,1,0,1,3
14,568,3,122,44,2,2,1,1.194103e+00,NaN,1,1,3,3
14,569,3,92,24,1,1,1,9.121711e-01,NaN,1,1,2,3
14,570,3,75,8,2,2,1,9.851817e-01,NaN,1,1,2,3
14,571,3,105,37,2,2,1,3.431347e+00,NaN,1,0,3,3
14,572,3,104,60,2,2,1,1.211426e+00,NaN,1,0,3,3
14,573,3,125,19,2,2,1,2.184507e+00,NaN,1,1,3,3
14,574,3,82,68,2,2,1,6.706298e-01,NaN,1,0,2,3
14,575,3,18,2,2,2,1,1.009433e+00,NaN,1,1,1,3
14,600,4,50,25,1,1,1,1.444390e+00,NaN,2,0,2,1
14,601,4,135,42,2,2,1,8.879858e-01,NaN,2,0,3,1
14,602,4,140,24,2,2,1,9.383654e-01,NaN,2,1,3,1
14,603,4,91,38,1,1,1,6.741569e-01,NaN,2,0,2,1
14,604,4,19,63,1,1,1,7.652527e-01,NaN,2,0,1,1
14,605,4,109,23,2,2,1,1.307779e+00,NaN,2,0,3,1
14,606,4,143,17,2,2,1,6.852251e-01,NaN,2,1,3,1
14,607,4,136,72,2,2,1,9.274268e-01,NaN,2,1,3,1
14,608,4,141,33,1,1,1,1.088028e+00,NaN,2,1,3,1
14,609,4,84,40,1,1,1,1.090208e+00,NaN,2,0,2,1
14,610,4,103,1,2,2,1,8.842653e-01,NaN,2,0,3,1
14,611,4,72,59,1,1,1,7.665036e-01,NaN,2,0,2,1
14,612,4,142,62,2,2,1,1.781374e+00,NaN,2,1,3,1
14,613,4,52,22,1,1,1,1.163858e+00,NaN,2,0,2,1
14,614,4,30,7,1,1,1,8.028289e-01,NaN,2,1,1,1
14,615,4,45,53,2,2,1,3.080103e+00,NaN,2,0,1,1
14,616,4,55,13,1,1,1,1.714653e+00,NaN,2,0,2,1
14,617,4,28,64,2,2,1,1.795485e+00,NaN,2,0,1,1
14,618,4,53,34,1,1,1,8.968768e-01,NaN,2,0,2,1
14,619,4,99,15,1,1,1,1.634667e+00,NaN,2,0,3,1
14,620,4,27,16,2,2,1,2.206726e+00,NaN,2,0,1,1
14,621,4,130,26,1,0,0,3.500121e+00,NaN,2,0,3,1
14,622,4,64,28,2,2,1,1.309656e+00,NaN,2,0,2,1
14,623,4,10,27,2,2,1,1.774695e+00,NaN,2,0,1,1
14,648,4,29,5,1,1,1,9.953337e-01,NaN,2,1,1,2
14,649,4,86,11,1,1,1,7.610239e-01,NaN,2,0,2,2
14,650,4,112,71,1,1,1,2.808127e+00,NaN,2,1,3,2
14,651,4,121,49,1,1,1,6.855031e-01,NaN,2,0,3,2
14,652,4,134,47,2,2,1,1.007740e+00,NaN,2,0,3,2
14,653,4,1,18,2,2,1,1.876874e+00,NaN,2,0,1,2
14,654,4,119,2,1,1,1,8.797013e-01,NaN,2,1,3,2
14,655,4,144,61,2,2,1,1.161805e+00,NaN,2,0,3,2
14,656,4,25,69,1,1,1,2.112985e+00,NaN,2,0,1,2
14,657,4,61,52,1,1,1,1.306001e+00,NaN,2,0,2,2
14,658,4,132,54,2,2,1,1.235242e+00,NaN,2,0,3,2
14,659,4,40,44,2,2,1,1.671290e+00,NaN,2,1,1,2
14,660,4,80,30,1,1,1,8.902156e-01,NaN,2,1,2,2
14,661,4,138,12,2,2,1,6.440464e-01,NaN,2,0,3,2
14,662,4,62,4,1,1,1,9.521620e-01,NaN,2,0,2,2
14,663,4,8,32,1,1,1,9.196913e-01,NaN,2,0,1,2
14,664,4,65,65,2,2,1,1.200440e+00,NaN,2,0,2,2
14,665,4,111,43,1,1,1,1.014302e+00,NaN,2,0,3,2
14,666,4,73,39,1,1,1,1.467407e+00,NaN,2,0,2,2
14,667,4,47,6,1,0,0,3.499529e+00,NaN,2,1,1,2
14,668,4,7,51,2,2,1,1.183682e+00,NaN,2,0,1,2
14,669,4,88,45,2,1,0,1.181687e+00,NaN,2,0,2,2
14,670,4,31,29,1,1,1,1.044259e+00,NaN,2,0,1,2
14,671,4,2,68,2,2,1,1.351995e+00,NaN,2,0,1,2
14,696,4,85,55,2,2,1,5.731723e-01,NaN,2,0,2,3
14,697,4,42,37,2,2,1,1.460943e+00,NaN,2,0,1,3
14,698,4,15,46,1,1,1,7.034663e-01,NaN,2,0,1,3
14,699,4,3,8,2,2,1,1.104276e+00,NaN,2,1,1,3
14,700,4,90,20,1,1,1,6.016561e-01,NaN,2,0,2,3
14,701,4,128,56,1,0,0,3.499512e+00,NaN,2,0,3,3
14,702,4,41,19,1,0,0,3.499934e+00,NaN,2,1,1,3
14,703,4,63,66,2,2,1,7.543370e-01,NaN,2,0,2,3
14,704,4,34,57,2,1,0,8.259118e-01,NaN,2,1,1,3
14,705,4,59,14,1,1,1,1.150447e+00,NaN,2,0,2,3
14,706,4,113,58,1,1,1,8.941997e-01,NaN,2,1,3,3
14,707,4,101,36,2,2,1,9.917179e-01,NaN,2,1,3,3
14,708,4,13,10,2,2,1,1.974050e+00,NaN,2,1,1,3
14,709,4,71,31,1,1,1,8.441415e-01,NaN,2,0,2,3
14,710,4,118,70,1,1,1,1.304446e+00,NaN,2,0,3,3
14,711,4,74,41,2,2,1,1.305968e+00,NaN,2,0,2,3
14,712,4,38,48,2,2,1,1.291369e+00,NaN,2,0,1,3
14,713,4,93,21,1,1,1,8.128499e-01,NaN,2,0,2,3
14,714,4,68,60,2,2,1,4.258688e-01,NaN,2,0,2,3
14,715,4,78,9,2,2,1,9.346418e-01,NaN,2,0,2,3
14,716,4,107,67,1,1,1,7.430962e-01,NaN,2,0,3,3
14,717,4,115,35,2,2,1,2.175129e+00,NaN,2,0,3,3
14,718,4,14,50,1,1,1,1.149619e+00,NaN,2,0,1,3
14,719,4,16,3,2,2,1,1.181049e+00,NaN,2,0,1,3
14,720,5,7.044000e+01,61,2,2,1,2.309319e+00,1,1,0,2.300000e+00,1
14,721,5,4.720000e+00,59,1,0,0,2.500523e+00,1,1,0,1.200000e+00,1
14,722,5,3.621000e+01,49,1,0,0,2.500576e+00,1,1,0,1.300000e+00,1
14,723,5,5.816000e+01,3,2,1,0,1.460756e+00,1,1,0,2.100000e+00,1
14,724,5,1.790000e+01,20,1,4,0,4.781962e-01,1,1,0,1.200000e+00,1
14,725,5,2.115000e+01,35,1,4,0,3.439956e-01,1,1,0,1.300000e+00,1
14,726,5,5.738000e+01,12,2,2,1,3.143469e-01,1,1,0,2.300000e+00,1
14,727,5,1.246200e+02,4,3,3,1,1.387914e+00,1,1,0,3.200000e+00,1
14,728,5,1.218000e+01,70,1,1,1,9.171042e-01,1,1,0,1.300000e+00,1
14,729,5,7.019000e+01,63,2,2,1,1.383510e+00,1,1,0,2.100000e+00,1
14,730,5,2.711000e+01,43,1,3,0,1.241720e+00,1,1,0,1.300000e+00,1
14,731,5,3.685000e+01,55,1,2,0,1.635521e+00,1,1,0,1.200000e+00,1
14,732,5,1.006100e+02,52,3,3,1,5.658832e-01,1,1,0,3.200000e+00,1
14,733,5,1.790000e+01,20,1,2,0,5.915285e-01,2,1,0,1.200000e+00,1
14,734,5,4.384000e+01,40,1,1,1,4.416147e-01,1,1,0,1.200000e+00,1
14,735,5,1.167100e+02,31,3,3,1,1.179755e+00,1,1,0,3.200000e+00,1
14,736,5,1.006100e+02,52,3,3,1,4.212523e-01,2,1,0,3.200000e+00,1
14,737,5,7.732000e+01,54,2,2,1,3.592975e-01,1,1,0,2.300000e+00,1
14,738,5,1.790000e+01,20,1,1,1,3.289213e-01,3,1,0,1.200000e+00,1
14,739,5,1.295300e+02,34,3,3,1,4.585341e-01,1,1,0,3.200000e+00,1
14,740,5,1.085000e+02,25,3,3,1,7.569142e-01,1,1,0,3.200000e+00,1
14,741,5,7.828000e+01,56,2,2,1,4.943982e-01,1,1,0,2.300000e+00,1
14,742,5,4.886000e+01,11,1,2,0,6.002866e-01,1,1,0,1.200000e+00,1
14,743,5,1.332700e+02,16,3,3,1,1.634638e+00,1,1,0,3.100000e+00,1
14,744,5,1.395900e+02,14,3,3,1,3.648192e-01,1,1,0,3.200000e+00,1
14,745,5,4.908000e+01,32,2,2,1,3.026177e-01,1,1,0,2.100000e+00,1
14,746,5,3.278000e+01,9,1,2,0,4.322432e-01,1,1,0,1.200000e+00,1
14,747,5,5.830000e+01,26,2,2,1,3.063247e-01,1,1,0,2.300000e+00,1
14,748,5,1.167100e+02,31,3,2,0,1.172192e+00,2,1,0,3.200000e+00,1
14,749,5,3.974000e+01,41,1,4,0,3.095614e-01,1,1,0,1.200000e+00,1
14,750,5,5.830000e+01,26,2,2,1,5.758131e-01,2,1,0,2.300000e+00,1
14,751,5,5.415000e+01,46,2,3,0,7.535024e-01,1,1,0,2.100000e+00,1
14,752,5,9.607000e+01,51,2,2,1,2.912900e-01,1,1,0,2.100000e+00,1
14,753,5,1.332700e+02,16,3,3,1,2.688458e-01,2,1,0,3.100000e+00,1
14,754,5,1.275200e+02,22,3,3,1,3.429669e-01,1,1,0,3.200000e+00,1
14,755,5,1.316500e+02,65,3,3,1,3.691136e-01,1,1,0,3.200000e+00,1
14,756,5,2.199000e+01,15,1,1,1,2.993964e-01,1,1,0,1.300000e+00,1
14,757,5,2.199000e+01,15,1,1,1,3.486549e-01,2,1,0,1.300000e+00,1
14,758,5,7.732000e+01,54,2,2,1,7.184500e-01,2,1,0,2.300000e+00,1
14,759,5,9.035000e+01,42,2,3,0,3.446343e-01,1,1,0,2.300000e+00,1
14,760,5,5.816000e+01,3,2,1,0,4.824646e-01,2,1,0,2.100000e+00,1
14,761,5,9.738000e+01,48,3,1,0,1.156057e+00,1,1,0,3.100000e+00,1
14,762,5,1.236300e+02,66,3,3,1,3.736530e-01,1,1,0,3.200000e+00,1
14,763,5,5.816000e+01,3,2,2,1,3.433819e-01,3,1,0,2.100000e+00,1
14,764,5,1.372800e+02,64,3,3,1,3.129892e-01,1,1,0,3.100000e+00,1
14,765,5,1.106400e+02,28,3,2,0,3.150107e-01,1,1,0,3.200000e+00,1
14,766,5,7.090000e+00,23,1,3,0,1.108944e+00,1,1,0,1.300000e+00,1
14,767,5,1.316500e+02,65,3,3,1,3.668198e-01,2,1,0,3.200000e+00,1
14,768,5,2.199000e+01,15,1,1,1,3.209619e-01,3,1,0,1.300000e+00,1
14,769,5,8.714000e+01,50,2,2,1,2.662771e-01,1,1,0,2.100000e+00,1
14,770,5,5.234000e+01,47,2,2,1,1.242309e-01,1,1,0,2.300000e+00,1
14,771,5,4.908000e+01,32,2,2,1,2.935759e-01,2,1,0,2.100000e+00,1
14,772,5,8.714000e+01,50,2,2,1,2.716644e-01,2,1,0,2.100000e+00,1
14,773,5,4.384000e+01,40,1,1,1,2.815270e-01,2,1,0,1.200000e+00,1
14,774,5,9.501000e+01,18,2,2,1,2.675524e-01,1,1,0,2.100000e+00,1
14,775,5,1.275200e+02,22,3,3,1,2.372257e-01,2,1,0,3.200000e+00,1
14,776,5,3.685000e+01,55,1,2,0,6.949011e-01,2,1,0,1.200000e+00,1
14,777,5,1.167100e+02,31,3,3,1,1.272544e+00,3,1,0,3.200000e+00,1
14,778,5,9.501000e+01,18,2,2,1,2.663791e-01,2,1,0,2.100000e+00,1
14,779,5,2.711000e+01,43,1,1,1,2.682059e-01,2,1,0,1.300000e+00,1
14,780,5,1.106400e+02,28,3,3,1,3.737457e-01,2,1,0,3.200000e+00,1
14,781,5,5.415000e+01,46,2,2,1,4.076284e-01,2,1,0,2.100000e+00,1
14,782,5,1.236300e+02,66,3,3,1,4.091304e-01,2,1,0,3.200000e+00,1
14,783,5,8.202000e+01,68,2,2,1,2.674962e-01,1,1,0,2.100000e+00,1
14,784,5,2.199000e+01,15,1,1,1,3.974613e-01,4,1,0,1.300000e+00,1
14,785,5,9.501000e+01,18,2,2,1,6.789961e-01,3,1,0,2.100000e+00,1
14,786,5,1.307000e+01,67,1,1,1,4.100417e-01,1,1,0,1.300000e+00,1
14,787,5,3.391000e+01,38,1,2,0,3.868574e-01,1,1,0,1.200000e+00,1
14,788,5,1.205500e+02,13,3,3,1,3.081699e-01,1,1,0,3.200000e+00,1
14,789,5,5.415000e+01,46,2,2,1,2.384023e-01,3,1,0,2.100000e+00,1
14,790,5,2.711000e+01,43,1,1,1,3.359942e-01,3,1,0,1.300000e+00,1
14,791,5,3.974000e+01,41,1,2,0,1.321653e+00,2,1,0,1.200000e+00,1
14,792,5,6.010000e+01,27,2,2,1,1.409629e-04,1,1,0,2.100000e+00,1
14,793,5,1.790000e+01,20,1,1,1,4.057111e-01,4,1,0,1.200000e+00,1
14,794,5,3.391000e+01,38,1,1,1,3.034013e-01,2,1,0,1.200000e+00,1
14,795,5,1.246200e+02,4,3,3,1,1.218029e+00,2,1,0,3.200000e+00,1
14,796,5,9.607000e+01,51,2,2,1,3.711863e-01,2,1,0,2.100000e+00,1
14,797,5,9.738000e+01,48,3,3,1,2.927150e-01,2,1,0,3.100000e+00,1
14,798,5,3.685000e+01,55,1,1,1,3.508171e-01,3,1,0,1.200000e+00,1
14,799,5,1.023100e+02,29,3,3,1,3.366332e-01,1,1,0,3.100000e+00,1
14,800,5,1.085000e+02,25,3,3,1,5.941570e-01,2,1,0,3.200000e+00,1
14,801,5,7.828000e+01,56,2,2,1,6.442997e-01,2,1,0,2.300000e+00,1
14,802,5,2.503000e+01,1,1,1,1,3.502004e-01,1,1,0,1.300000e+00,1
14,803,5,1.316500e+02,65,3,3,1,7.680427e-01,3,1,0,3.200000e+00,1
14,804,5,1.246200e+02,4,3,3,1,7.223581e-01,3,1,0,3.200000e+00,1
14,805,5,1.054200e+02,37,3,3,1,3.238192e-01,1,1,0,3.100000e+00,1
14,806,5,9.880000e+00,45,1,1,1,6.052870e-01,1,1,0,1.200000e+00,1
14,807,5,8.125000e+01,69,2,2,1,1.054937e+00,1,1,0,2.100000e+00,1
14,808,5,1.295300e+02,34,3,3,1,3.207283e-01,2,1,0,3.200000e+00,1
14,809,5,9.880000e+00,45,1,1,1,3.945635e-01,2,1,0,1.200000e+00,1
14,810,5,9.035000e+01,42,2,2,1,2.442226e-01,2,1,0,2.300000e+00,1
14,811,5,1.085000e+02,25,3,3,1,3.902963e-01,3,1,0,3.200000e+00,1
14,812,5,5.738000e+01,12,2,2,1,3.038299e-01,2,1,0,2.300000e+00,1
14,813,5,1.205500e+02,13,3,3,1,8.416054e-01,2,1,0,3.200000e+00,1
14,814,5,1.106400e+02,28,3,3,1,3.479374e-01,3,1,0,3.200000e+00,1
14,815,5,5.930000e+00,21,1,1,1,2.693722e-01,1,1,0,1.200000e+00,1
14,816,5,3.278000e+01,9,1,1,1,3.587372e-01,2,1,0,1.200000e+00,1
14,817,5,1.372800e+02,64,3,3,1,6.172438e-01,2,1,0,3.100000e+00,1
14,818,5,3.974000e+01,41,1,1,1,2.747765e-01,3,1,0,1.200000e+00,1
14,819,5,3.621000e+01,49,1,3,0,1.212979e+00,2,1,0,1.300000e+00,1
14,820,5,7.732000e+01,54,2,2,1,3.026367e-01,3,1,0,2.300000e+00,1
14,821,5,1.295300e+02,34,3,3,1,3.605088e-01,3,1,0,3.200000e+00,1
14,822,5,7.044000e+01,61,2,2,1,3.145413e-01,2,1,0,2.300000e+00,1
14,823,5,1.246200e+02,4,3,3,1,4.280587e-01,4,1,0,3.200000e+00,1
14,824,5,7.090000e+00,23,1,1,1,2.536538e-01,2,1,0,1.300000e+00,1
14,825,5,4.673000e+01,39,1,2,0,3.434468e-01,1,1,0,1.200000e+00,1
14,826,5,9.880000e+00,45,1,1,1,2.817166e-01,3,1,0,1.200000e+00,1
14,827,5,1.307000e+01,67,1,1,1,2.910591e-01,2,1,0,1.300000e+00,1
14,828,5,4.720000e+00,59,1,1,1,2.846095e-01,2,1,0,1.200000e+00,1
14,829,5,1.046800e+02,60,3,2,0,3.667368e-01,1,1,0,3.200000e+00,1
14,830,5,3.278000e+01,9,1,1,1,3.130185e-01,3,1,0,1.200000e+00,1
14,831,5,1.295300e+02,34,3,3,1,3.386182e-01,4,1,0,3.200000e+00,1
14,832,5,1.054200e+02,37,3,3,1,1.300030e+00,2,1,0,3.100000e+00,1
14,833,5,7.732000e+01,54,2,2,1,3.900941e-01,4,1,0,2.300000e+00,1
14,834,5,1.395900e+02,14,3,2,0,2.960232e-01,2,1,0,3.200000e+00,1
14,835,5,1.316500e+02,65,3,3,1,8.014914e-01,4,1,0,3.200000e+00,1
14,836,5,5.830000e+01,26,2,2,1,4.594964e-01,3,1,0,2.300000e+00,1
14,837,5,5.930000e+00,21,1,1,1,2.617542e-01,2,1,0,1.200000e+00,1
14,838,5,2.115000e+01,35,1,1,1,2.233060e-01,2,1,0,1.300000e+00,1
14,839,5,7.019000e+01,63,2,2,1,3.130028e-01,2,1,0,2.100000e+00,1
14,840,5,1.332700e+02,16,3,3,1,3.069755e-01,3,1,0,3.100000e+00,1
14,841,5,1.023100e+02,29,3,3,1,2.686665e-01,2,1,0,3.100000e+00,1
14,842,5,7.828000e+01,56,2,2,1,3.662723e-01,3,1,0,2.300000e+00,1
14,843,5,2.503000e+01,1,1,1,1,2.643643e-01,2,1,0,1.300000e+00,1
14,844,5,1.218000e+01,70,1,1,1,2.738897e-01,2,1,0,1.300000e+00,1
14,845,5,1.332700e+02,16,3,1,0,1.187388e+00,4,1,0,3.100000e+00,1
14,846,5,8.714000e+01,50,2,2,1,3.173201e-01,3,1,0,2.100000e+00,1
14,847,5,5.234000e+01,47,2,2,1,3.030385e-01,2,1,0,2.300000e+00,1
14,848,5,3.621000e+01,49,1,1,1,3.129807e-01,3,1,0,1.300000e+00,1
14,849,5,3.685000e+01,55,1,1,1,2.349395e-01,4,1,0,1.200000e+00,1
14,850,5,3.391000e+01,38,1,1,1,2.924204e-01,3,1,0,1.200000e+00,1
14,851,5,1.372800e+02,64,3,3,1,4.226197e-01,3,1,0,3.100000e+00,1
14,852,5,5.738000e+01,12,2,2,1,3.041514e-01,3,1,0,2.300000e+00,1
14,853,5,3.621000e+01,49,1,1,1,2.417338e-01,4,1,0,1.300000e+00,1
14,854,5,7.019000e+01,63,2,2,1,1.364014e+00,3,1,0,2.100000e+00,1
14,855,5,1.085000e+02,25,3,3,1,5.817840e-01,4,1,0,3.200000e+00,1
14,856,5,1.046800e+02,60,3,0,0,2.500477e+00,2,1,0,3.200000e+00,1
14,857,5,1.395900e+02,14,3,3,1,2.576859e-01,3,1,0,3.200000e+00,1
14,858,5,6.010000e+01,27,2,2,1,2.675931e-01,2,1,0,2.100000e+00,1
14,859,5,9.607000e+01,51,2,2,1,3.016919e-01,3,1,0,2.100000e+00,1
14,860,5,8.202000e+01,68,2,2,1,2.632094e-01,2,1,0,2.100000e+00,1
14,861,5,4.720000e+00,59,1,1,1,6.573316e-01,3,1,0,1.200000e+00,1
14,862,5,1.236300e+02,66,3,3,1,2.988805e-01,3,1,0,3.200000e+00,1
14,863,5,4.908000e+01,32,2,2,1,3.006083e-01,3,1,0,2.100000e+00,1
14,864,5,9.845000e+01,53,3,3,1,4.945781e-01,1,1,0,3.100000e+00,1
14,865,5,2.503000e+01,1,1,1,1,2.326159e-01,3,1,0,1.300000e+00,1
14,866,5,1.054200e+02,37,3,1,0,3.300185e-01,3,1,0,3.100000e+00,1
14,867,5,5.816000e+01,3,2,1,0,3.875999e-01,4,1,0,2.100000e+00,1
14,868,5,1.275200e+02,22,3,3,1,3.812406e-01,3,1,0,3.200000e+00,1
14,869,5,1.218000e+01,70,1,1,1,2.788907e-01,3,1,0,1.300000e+00,1
14,870,5,9.845000e+01,53,3,3,1,3.047361e-01,2,1,0,3.100000e+00,1
14,871,5,4.908000e+01,32,2,2,1,4.580394e-01,4,1,0,2.100000e+00,1
14,872,5,1.054200e+02,37,3,1,0,2.681075e-01,4,1,0,3.100000e+00,1
14,873,5,2.711000e+01,43,1,1,1,1.501101e-01,4,1,0,1.300000e+00,1
14,874,5,1.307000e+01,67,1,1,1,7.920112e-01,3,1,0,1.300000e+00,1
14,875,5,2.115000e+01,35,1,1,1,4.260816e-01,3,1,0,1.300000e+00,1
14,876,5,4.673000e+01,39,1,1,1,3.641515e-01,2,1,0,1.200000e+00,1
14,877,5,4.720000e+00,59,1,1,1,3.498542e-01,4,1,0,1.200000e+00,1
14,878,5,9.738000e+01,48,3,0,0,2.500452e+00,3,1,0,3.100000e+00,1
14,879,5,5.930000e+00,21,1,1,1,2.183898e-01,3,1,0,1.200000e+00,1
14,880,5,7.828000e+01,56,2,2,1,2.363250e-01,4,1,0,2.300000e+00,1
14,881,5,4.384000e+01,40,1,1,1,2.460170e-01,3,1,0,1.200000e+00,1
14,882,5,5.234000e+01,47,2,2,1,2.635278e-01,3,1,0,2.300000e+00,1
14,883,5,6.010000e+01,27,2,2,1,3.129795e-01,3,1,0,2.100000e+00,1
14,884,5,4.886000e+01,11,1,2,0,3.951256e-01,2,1,0,1.200000e+00,1
14,885,5,8.202000e+01,68,2,2,1,2.925318e-01,3,1,0,2.100000e+00,1
14,886,5,9.501000e+01,18,2,2,1,5.987490e-01,4,1,0,2.100000e+00,1
14,887,5,5.930000e+00,21,1,1,1,3.283862e-01,4,1,0,1.200000e+00,1
14,888,5,1.046800e+02,60,3,3,1,6.979848e-01,3,1,0,3.200000e+00,1
14,889,5,9.845000e+01,53,3,3,1,3.078149e-01,3,1,0,3.100000e+00,1
14,890,5,1.167100e+02,31,3,3,1,7.731231e-01,4,1,0,3.200000e+00,1
14,891,5,7.090000e+00,23,1,3,0,3.830049e-01,3,1,0,1.300000e+00,1
14,892,5,3.974000e+01,41,1,3,0,1.320792e+00,4,1,0,1.200000e+00,1
14,893,5,4.673000e+01,39,1,1,1,9.703284e-01,3,1,0,1.200000e+00,1
14,894,5,8.125000e+01,69,2,2,1,4.762631e-01,2,1,0,2.100000e+00,1
14,895,5,9.880000e+00,45,1,1,1,5.502844e-01,4,1,0,1.200000e+00,1
14,896,5,7.019000e+01,63,2,2,1,4.079716e-01,4,1,0,2.100000e+00,1
14,897,5,8.714000e+01,50,2,2,1,2.661995e-01,4,1,0,2.100000e+00,1
14,898,5,7.090000e+00,23,1,1,1,2.273399e-01,4,1,0,1.300000e+00,1
14,899,5,1.023100e+02,29,3,3,1,6.135305e-01,3,1,0,3.100000e+00,1
14,900,5,9.845000e+01,53,3,0,0,2.500041e+00,4,1,0,3.100000e+00,1
14,901,5,1.023100e+02,29,3,3,1,3.454469e-01,4,1,0,3.100000e+00,1
14,902,5,9.738000e+01,48,3,3,1,2.109701e-01,4,1,0,3.100000e+00,1
14,903,5,4.886000e+01,11,1,1,1,2.531328e-01,3,1,0,1.200000e+00,1
14,904,5,4.886000e+01,11,1,1,1,2.547208e-01,4,1,0,1.200000e+00,1
14,905,5,1.372800e+02,64,3,3,1,2.881960e-01,4,1,0,3.100000e+00,1
14,906,5,1.046800e+02,60,3,3,1,7.383961e-01,4,1,0,3.200000e+00,1
14,907,5,8.125000e+01,69,2,2,1,2.678929e-01,3,1,0,2.100000e+00,1
14,908,5,1.218000e+01,70,1,1,1,3.338466e-01,4,1,0,1.300000e+00,1
14,909,5,7.044000e+01,61,2,2,1,3.998570e-01,3,1,0,2.300000e+00,1
14,910,5,5.415000e+01,46,2,1,0,2.813079e-01,4,1,0,2.100000e+00,1
14,911,5,2.115000e+01,35,1,1,1,3.231898e-01,4,1,0,1.300000e+00,1
14,912,5,8.125000e+01,69,2,2,1,2.850571e-01,4,1,0,2.100000e+00,1
14,913,5,1.205500e+02,13,3,3,1,5.590044e-01,3,1,0,3.200000e+00,1
14,914,5,1.006100e+02,52,3,3,1,3.132645e-01,3,1,0,3.200000e+00,1
14,915,5,4.673000e+01,39,1,1,1,2.744949e-01,4,1,0,1.200000e+00,1
14,916,5,4.384000e+01,40,1,1,1,3.562087e-01,4,1,0,1.200000e+00,1
14,917,5,3.391000e+01,38,1,1,1,2.699922e-01,4,1,0,1.200000e+00,1
14,918,5,1.006100e+02,52,3,3,1,1.639647e+00,4,1,0,3.200000e+00,1
14,919,5,7.044000e+01,61,2,2,1,2.902767e-01,4,1,0,2.300000e+00,1
14,920,5,1.236300e+02,66,3,3,1,5.394707e-01,4,1,0,3.200000e+00,1
14,921,5,5.234000e+01,47,2,2,1,2.934461e-01,4,1,0,2.300000e+00,1
14,922,5,1.307000e+01,67,1,1,1,6.873003e-01,4,1,0,1.300000e+00,1
14,923,5,2.503000e+01,1,1,1,1,2.972017e-01,4,1,0,1.300000e+00,1
14,924,5,3.278000e+01,9,1,1,1,2.908598e-01,4,1,0,1.200000e+00,1
14,925,5,1.205500e+02,13,3,3,1,2.765710e-01,4,1,0,3.200000e+00,1
14,926,5,8.202000e+01,68,2,2,1,3.423563e-01,4,1,0,2.100000e+00,1
14,927,5,9.035000e+01,42,2,2,1,3.362921e-01,3,1,0,2.300000e+00,1
14,928,5,1.106400e+02,28,3,3,1,2.504135e-01,4,1,0,3.200000e+00,1
14,929,5,1.275200e+02,22,3,3,1,2.526037e-01,4,1,0,3.200000e+00,1
14,930,5,6.010000e+01,27,2,2,1,3.022461e-02,4,1,0,2.100000e+00,1
14,931,5,1.395900e+02,14,3,3,1,2.480334e-01,4,1,0,3.200000e+00,1
14,932,5,5.738000e+01,12,2,1,0,1.161797e+00,4,1,0,2.300000e+00,1
14,933,5,9.035000e+01,42,2,2,1,6.593136e-01,4,1,0,2.300000e+00,1
14,934,5,5.830000e+01,26,2,2,1,3.094989e-01,4,1,0,2.300000e+00,1
14,935,5,9.607000e+01,51,2,1,0,1.463198e+00,4,1,0,2.100000e+00,1
14,936,6,64,28,1,1,1,7.406691e-01,NaN,2,0,2,1
14,937,6,88,45,1,1,1,6.063951e-01,NaN,2,0,2,1
14,938,6,55,13,1,1,1,8.845716e-01,NaN,2,0,2,1
14,939,6,8,32,2,2,1,7.595276e-01,NaN,2,0,1,1
14,940,6,103,1,1,1,1,7.915452e-01,NaN,2,0,3,1
14,941,6,138,12,2,1,0,7.191449e-01,NaN,2,0,3,1
14,942,6,73,39,1,1,1,8.805054e-01,NaN,2,0,2,1
14,943,6,119,2,1,1,1,6.759943e-01,NaN,2,1,3,1
14,944,6,53,34,2,2,1,7.682917e-01,NaN,2,0,2,1
14,945,6,121,49,2,1,0,6.952407e-01,NaN,2,0,3,1
14,946,6,38,48,2,2,1,6.500151e-01,NaN,2,0,1,1
14,947,6,28,64,1,1,1,7.594238e-01,NaN,2,0,1,1
14,948,6,85,55,2,2,1,5.433889e-01,NaN,2,0,2,1
14,949,6,84,40,1,1,1,1.008644e+00,NaN,2,0,2,1
14,950,6,71,31,2,2,1,1.190742e+00,NaN,2,0,2,1
14,951,6,27,16,2,1,0,8.935981e-01,NaN,2,0,1,1
14,952,6,1,18,2,2,1,8.964258e-01,NaN,2,0,1,1
14,953,6,80,30,1,1,1,6.595119e-01,NaN,2,1,2,1
14,954,6,52,22,1,1,1,7.033794e-01,NaN,2,0,2,1
14,955,6,132,54,1,1,1,9.938064e-01,NaN,2,0,3,1
14,956,6,68,60,1,1,1,7.448554e-01,NaN,2,0,2,1
14,957,6,140,24,2,2,1,8.893396e-01,NaN,2,1,3,1
14,958,6,135,42,2,2,1,7.970364e-01,NaN,2,0,3,1
14,959,6,14,50,2,2,1,1.051134e+00,NaN,2,0,1,1
14,960,6,13,10,2,2,1,9.679112e-01,NaN,2,1,1,1
14,961,6,45,53,2,1,0,1.599692e+00,NaN,2,0,1,1
14,962,6,15,46,2,2,1,1.014214e+00,NaN,2,0,1,1
14,963,6,86,11,1,1,1,7.076028e-01,NaN,2,0,2,1
14,964,6,31,29,1,2,0,7.498335e-01,NaN,2,0,1,1
14,965,6,59,14,1,1,1,9.422961e-01,NaN,2,0,2,1
14,966,6,141,33,1,1,1,9.834575e-01,NaN,2,1,3,1
14,967,6,115,35,2,2,1,2.030238e+00,NaN,2,0,3,1
14,968,6,61,52,1,1,1,6.591318e-01,NaN,2,0,2,1
14,969,6,113,58,1,1,1,1.047847e+00,NaN,2,1,3,1
14,970,6,72,59,1,1,1,7.962939e-01,NaN,2,0,2,1
14,971,6,16,3,2,1,0,1.138767e+00,NaN,2,0,1,1
14,972,6,42,37,2,2,1,1.123613e+00,NaN,2,0,1,1
14,973,6,47,6,2,1,0,9.091973e-01,NaN,2,1,1,1
14,974,6,109,23,2,2,1,9.115426e-01,NaN,2,0,3,1
14,975,6,99,15,1,1,1,8.738669e-01,NaN,2,0,3,1
14,976,6,112,71,2,1,0,1.405160e+00,NaN,2,1,3,1
14,977,6,19,63,2,1,0,1.667023e+00,NaN,2,0,1,1
14,978,6,7,51,1,1,1,1.518816e+00,NaN,2,0,1,1
14,979,6,128,56,1,1,1,1.304594e+00,NaN,2,0,3,1
14,980,6,111,43,2,1,0,1.034463e+00,NaN,2,0,3,1
14,981,6,10,27,2,2,1,1.255922e+00,NaN,2,0,1,1
14,982,6,118,70,2,2,1,1.739858e+00,NaN,2,0,3,1
14,983,6,40,44,1,2,0,2.108693e+00,NaN,2,1,1,1
14,984,6,142,62,1,1,1,9.748606e-01,NaN,2,1,3,1
14,985,6,65,65,2,2,1,1.534316e+00,NaN,2,0,2,1
14,986,6,2,68,1,1,1,1.023112e+00,NaN,2,0,1,1
14,987,6,144,61,2,2,1,1.436653e+00,NaN,2,0,3,1
14,988,6,101,36,1,1,1,1.017787e+00,NaN,2,1,3,1
14,989,6,107,67,1,1,1,7.363255e-01,NaN,2,0,3,1
14,990,6,3,8,2,2,1,9.448908e-01,NaN,2,1,1,1
14,991,6,130,26,1,2,0,1.482536e+00,NaN,2,0,3,1
14,992,6,41,19,1,1,1,2.589401e+00,NaN,2,1,1,1
14,993,6,143,17,2,1,0,9.243038e-01,NaN,2,1,3,1
14,994,6,136,72,2,2,1,8.294407e-01,NaN,2,1,3,1
14,995,6,34,57,1,2,0,3.162793e+00,NaN,2,1,1,1
14,996,6,30,7,2,2,1,9.462817e-01,NaN,2,1,1,1
14,997,6,62,4,1,1,1,1.346969e+00,NaN,2,0,2,1
14,998,6,93,21,2,2,1,1.179162e+00,NaN,2,0,2,1
14,999,6,25,69,2,2,1,1.322421e+00,NaN,2,0,1,1
14,1000,6,90,20,2,1,0,1.156102e+00,NaN,2,0,2,1
14,1001,6,74,41,2,2,1,1.564345e+00,NaN,2,0,2,1
14,1002,6,50,25,1,1,1,1.003785e+00,NaN,2,0,2,1
14,1003,6,134,47,1,2,0,9.219681e-01,NaN,2,0,3,1
14,1004,6,29,5,1,1,1,9.315500e-01,NaN,2,1,1,1
14,1005,6,78,9,2,2,1,1.084607e+00,NaN,2,0,2,1
14,1006,6,63,66,1,1,1,8.795694e-01,NaN,2,0,2,1
14,1007,6,91,38,2,2,1,8.350436e-01,NaN,2,0,2,1
14,1008,6,87,50,1,1,1,1.655838e+00,NaN,1,0,2,1
14,1009,6,12,67,1,1,1,2.356338e+00,NaN,1,0,1,1
14,1010,6,96,51,1,1,1,7.403778e-01,NaN,1,0,2,1
14,1011,6,67,10,2,2,1,9.810053e-01,NaN,1,1,2,1
14,1012,6,89,42,1,1,1,9.960995e-01,NaN,1,0,2,1
14,1013,6,102,29,1,1,1,8.911036e-01,NaN,1,0,3,1
14,1014,6,126,5,2,2,1,3.301530e+00,NaN,1,1,3,1
14,1015,6,95,18,2,1,0,7.922186e-01,NaN,1,0,2,1
14,1016,6,49,32,1,1,1,7.988411e-01,NaN,1,0,2,1
14,1017,6,44,71,2,2,1,2.340995e+00,NaN,1,1,1,1
14,1018,6,105,37,1,1,1,1.182171e+00,NaN,1,0,3,1
14,1019,6,32,9,1,1,1,1.005148e+00,NaN,1,0,1,1
14,1020,6,21,15,1,1,1,6.349173e-01,NaN,1,0,1,1
14,1021,6,137,64,2,2,1,1.592220e+00,NaN,1,0,3,1
14,1022,6,26,43,2,2,1,1.415415e+00,NaN,1,0,1,1
14,1023,6,5,21,2,1,0,1.165161e+00,NaN,1,0,1,1
14,1024,6,120,13,1,1,1,1.796601e+00,NaN,1,0,3,1
14,1025,6,100,52,2,0,0,3.499727e+00,NaN,1,0,3,1
14,1026,6,116,31,1,1,1,1.149553e+00,NaN,1,0,3,1
14,1027,6,92,24,2,2,1,7.814704e-01,NaN,1,1,2,1
14,1028,6,129,34,1,1,1,9.013595e-01,NaN,1,0,3,1
14,1029,6,131,65,1,2,0,7.996329e-01,NaN,1,0,3,1
14,1030,6,75,8,1,1,1,6.145523e-01,NaN,1,1,2,1
14,1031,6,9,45,2,1,0,9.005934e-01,NaN,1,0,1,1
14,1032,6,17,20,1,2,0,1.454557e+00,NaN,1,0,1,1
14,1033,6,83,72,2,2,1,8.188971e-01,NaN,1,1,2,1
14,1034,6,79,62,2,2,1,1.112722e+00,NaN,1,1,2,1
14,1035,6,46,39,1,1,1,1.242753e+00,NaN,1,0,1,1
14,1036,6,60,27,2,2,1,1.223301e+00,NaN,1,0,2,1
14,1037,6,18,2,2,2,1,1.948952e+00,NaN,1,1,1,1
14,1038,6,94,33,2,2,1,7.009414e-01,NaN,1,1,2,1
14,1039,6,133,16,1,1,1,1.240036e+00,NaN,1,0,3,1
14,1040,6,117,57,1,1,1,9.730215e-01,NaN,1,1,3,1
14,1041,6,11,70,2,2,1,1.124019e+00,NaN,1,0,1,1
14,1042,6,110,28,1,1,1,1.485328e+00,NaN,1,0,3,1
14,1043,6,43,40,2,1,0,1.360849e+00,NaN,1,0,1,1
14,1044,6,54,46,1,1,1,1.176866e+00,NaN,1,0,2,1
14,1045,6,114,7,2,2,1,1.136627e+00,NaN,1,1,3,1
14,1046,6,69,61,2,2,1,1.785383e+00,NaN,1,0,2,1
14,1047,6,82,68,1,1,1,1.072752e+00,NaN,1,0,2,1
14,1048,6,81,69,2,2,1,1.012535e+00,NaN,1,0,2,1
14,1049,6,98,53,2,1,0,1.346647e+00,NaN,1,0,3,1
14,1050,6,125,19,2,2,1,3.139070e+00,NaN,1,1,3,1
14,1051,6,106,6,1,2,0,2.283698e+00,NaN,1,1,3,1
14,1052,6,76,54,2,2,1,7.665057e-01,NaN,1,0,2,1
14,1053,6,123,66,1,1,1,2.062680e+00,NaN,1,0,3,1
14,1054,6,48,11,1,1,1,8.744950e-01,NaN,1,0,1,1
14,1055,6,20,35,2,2,1,7.980307e-01,NaN,1,0,1,1
14,1056,6,77,56,2,2,1,1.052885e+00,NaN,1,0,2,1
14,1057,6,104,60,2,2,1,1.473221e+00,NaN,1,0,3,1
14,1058,6,22,30,2,2,1,1.908766e+00,NaN,1,1,1,1
14,1059,6,97,48,2,2,1,1.134806e+00,NaN,1,0,3,1
14,1060,6,36,55,1,2,0,1.711988e+00,NaN,1,0,1,1
14,1061,6,51,47,2,2,1,7.135710e-01,NaN,1,0,2,1
14,1062,6,56,12,2,2,1,1.363492e+00,NaN,1,0,2,1
14,1063,6,108,25,1,1,1,1.051589e+00,NaN,1,0,3,1
14,1064,6,23,36,1,1,1,2.360324e+00,NaN,1,1,1,1
14,1065,6,139,14,2,2,1,2.711942e+00,NaN,1,0,3,1
14,1066,6,124,4,2,2,1,1.105975e+00,NaN,1,0,3,1
14,1067,6,122,44,1,1,1,1.060051e+00,NaN,1,1,3,1
14,1068,6,70,63,1,2,0,6.726507e-01,NaN,1,0,2,1
14,1069,6,37,58,2,2,1,1.660008e+00,NaN,1,1,1,1
14,1070,6,39,41,2,1,0,1.135793e+00,NaN,1,0,1,1
14,1071,6,33,38,2,1,0,9.291627e-01,NaN,1,0,1,1
14,1072,6,127,22,2,2,1,1.026324e+00,NaN,1,0,3,1
14,1073,6,57,26,2,2,1,7.437594e-01,NaN,1,0,2,1
14,1074,6,66,17,1,1,1,6.885240e-01,NaN,1,1,2,1
14,1075,6,4,59,2,2,1,1.387564e+00,NaN,1,0,1,1
14,1076,6,24,1,2,2,1,1.466299e+00,NaN,1,0,1,1
14,1077,6,35,49,1,1,1,2.349723e+00,NaN,1,0,1,1
14,1078,6,6,23,2,2,1,1.317879e+00,NaN,1,0,1,1
14,1079,6,58,3,1,1,1,8.157446e-01,NaN,1,0,2,1
