Subject,Trial,Cond,ImageNum,CueNum,Correct,Resp,Accuracy,RT,CueRep,ImageType,Baseline,Category,Block
37,1,1,97,NaN,NaN,1,NaN,7.579716e+00,NaN,1,0,3,1
37,2,1,26,NaN,NaN,2,NaN,3.641822e+00,NaN,0,0,1,1
37,3,1,56,NaN,NaN,1,NaN,1.417991e+00,NaN,1,0,2,1
37,4,1,69,NaN,NaN,1,NaN,2.931009e+00,NaN,1,1,2,1
37,5,1,67,NaN,NaN,1,NaN,2.062589e+00,NaN,0,0,2,1
37,6,1,6,NaN,NaN,1,NaN,4.695954e-01,NaN,2,1,1,1
37,7,1,130,NaN,NaN,2,NaN,8.763326e-01,NaN,0,0,3,1
37,8,1,15,NaN,NaN,1,NaN,4.028451e-01,NaN,2,0,1,1
37,9,1,137,NaN,NaN,1,NaN,5.158061e-01,NaN,0,0,3,1
37,10,1,22,NaN,NaN,2,NaN,5.525038e-01,NaN,0,0,1,1
37,11,1,105,NaN,NaN,2,NaN,3.499913e+00,NaN,2,0,3,1
37,12,1,12,NaN,NaN,2,NaN,6.486834e-01,NaN,1,0,1,1
37,13,1,65,NaN,NaN,1,NaN,5.358474e-01,NaN,2,0,2,1
37,14,1,109,NaN,NaN,1,NaN,1.019558e+00,NaN,0,0,3,1
37,15,1,101,NaN,NaN,2,NaN,1.027630e+00,NaN,0,1,3,1
37,16,1,139,NaN,NaN,1,NaN,6.521574e-01,NaN,0,0,3,1
37,17,1,115,NaN,NaN,1,NaN,1.443055e+00,NaN,1,0,3,1
37,18,1,46,NaN,NaN,2,NaN,4.669751e-01,NaN,0,0,1,1
37,19,1,85,NaN,NaN,1,NaN,7.373900e-01,NaN,0,0,2,1
37,20,1,133,NaN,NaN,2,NaN,5.577629e-01,NaN,0,0,3,1
37,21,1,19,NaN,NaN,2,NaN,7.050799e-01,NaN,2,1,1,1
37,22,1,53,NaN,NaN,1,NaN,3.661888e-01,NaN,1,0,2,1
37,23,1,50,NaN,NaN,1,NaN,4.494790e-01,NaN,2,1,2,1
37,24,1,117,NaN,NaN,2,NaN,3.844136e-01,NaN,2,0,3,1
37,25,1,1,NaN,NaN,1,NaN,2.746470e-01,NaN,0,0,1,1
37,26,1,58,NaN,NaN,1,NaN,8.892591e-01,NaN,0,0,2,1
37,27,1,30,NaN,NaN,1,NaN,4.871257e-01,NaN,0,0,1,1
37,28,1,67,NaN,NaN,1,NaN,3.003533e-01,NaN,2,0,2,1
37,29,1,123,NaN,NaN,1,NaN,5.218684e-01,NaN,0,0,3,1
37,30,1,34,NaN,NaN,1,NaN,5.102003e-01,NaN,1,0,1,1
37,31,1,32,NaN,NaN,1,NaN,3.152120e-01,NaN,1,0,1,1
37,32,1,18,NaN,NaN,1,NaN,3.439533e-01,NaN,1,0,1,1
37,33,1,45,NaN,NaN,1,NaN,3.963060e-01,NaN,1,0,1,1
37,34,1,72,NaN,NaN,1,NaN,5.169797e-01,NaN,0,0,2,1
37,35,1,76,NaN,NaN,1,NaN,3.617335e-01,NaN,0,0,2,1
37,36,1,32,NaN,NaN,1,NaN,7.723433e-01,NaN,0,0,1,1
37,37,1,9,NaN,NaN,1,NaN,1.086376e+00,NaN,1,0,1,1
37,38,1,95,NaN,NaN,1,NaN,6.046337e-01,NaN,2,0,2,1
37,39,1,56,NaN,NaN,1,NaN,3.736646e-01,NaN,0,0,2,1
37,40,1,96,NaN,NaN,1,NaN,6.164720e-01,NaN,2,0,2,1
37,41,1,134,NaN,NaN,0,NaN,9.995143e+00,NaN,0,1,3,1
37,42,1,23,NaN,NaN,1,NaN,4.901339e-01,NaN,0,0,1,1
37,43,1,62,NaN,NaN,1,NaN,1.039842e+00,NaN,2,1,2,1
37,44,1,41,NaN,NaN,2,NaN,4.231777e-01,NaN,2,0,1,1
37,45,1,104,NaN,NaN,1,NaN,8.402020e-01,NaN,2,0,3,1
37,46,1,135,NaN,NaN,2,NaN,2.031298e+00,NaN,2,0,3,1
37,47,1,100,NaN,NaN,2,NaN,1.767421e+00,NaN,2,0,3,1
37,48,1,55,NaN,NaN,1,NaN,6.021323e-01,NaN,2,1,2,1
37,49,1,42,NaN,NaN,1,NaN,4.679543e-01,NaN,0,0,1,1
37,50,1,126,NaN,NaN,1,NaN,6.902400e-01,NaN,2,1,3,1
37,51,1,16,NaN,NaN,1,NaN,3.275318e-01,NaN,2,0,1,1
37,52,1,43,NaN,NaN,1,NaN,2.363812e-01,NaN,0,0,1,1
37,53,1,90,NaN,NaN,1,NaN,3.082919e-01,NaN,0,0,2,1
37,54,1,80,NaN,NaN,1,NaN,2.659487e-01,NaN,0,0,2,1
37,55,1,112,NaN,NaN,1,NaN,3.207049e-01,NaN,0,0,3,1
37,56,1,74,NaN,NaN,1,NaN,2.364144e-01,NaN,0,0,2,1
37,57,1,93,NaN,NaN,1,NaN,3.479042e-01,NaN,0,1,2,1
37,58,1,143,NaN,NaN,2,NaN,5.592063e-01,NaN,0,1,3,1
37,59,1,29,NaN,NaN,1,NaN,2.988963e-01,NaN,2,0,1,1
37,60,1,34,NaN,NaN,1,NaN,2.555526e-01,NaN,0,0,1,1
37,61,1,99,NaN,NaN,2,NaN,1.094832e+00,NaN,1,1,3,1
37,62,1,128,NaN,NaN,1,NaN,3.243376e-01,NaN,0,0,3,1
37,63,1,52,NaN,NaN,1,NaN,2.968390e-01,NaN,0,1,2,1
37,64,1,90,NaN,NaN,1,NaN,4.144345e-01,NaN,1,0,2,1
37,65,1,43,NaN,NaN,1,NaN,1.030764e+00,NaN,1,0,1,1
37,66,1,68,NaN,NaN,1,NaN,2.708018e-01,NaN,2,0,2,1
37,67,1,131,NaN,NaN,1,NaN,2.069700e+00,NaN,0,0,3,1
37,68,1,114,NaN,NaN,1,NaN,5.084991e-01,NaN,0,1,3,1
37,69,1,76,NaN,NaN,1,NaN,1.216436e-04,NaN,1,0,2,1
37,70,1,8,NaN,NaN,2,NaN,4.267199e-01,NaN,1,0,1,1
37,71,1,127,NaN,NaN,2,NaN,4.130225e+00,NaN,0,0,3,1
37,72,1,113,NaN,NaN,1,NaN,3.106900e-01,NaN,2,0,3,1
37,73,1,65,NaN,NaN,1,NaN,7.481643e-01,NaN,0,0,2,1
37,74,1,54,NaN,NaN,1,NaN,3.654862e+00,NaN,1,0,2,1
37,75,1,139,NaN,NaN,1,NaN,3.269936e-01,NaN,1,0,3,1
37,76,1,77,NaN,NaN,1,NaN,1.210399e-04,NaN,0,0,2,1
37,77,1,120,NaN,NaN,2,NaN,9.560526e-01,NaN,0,1,3,1
37,78,1,38,NaN,NaN,1,NaN,5.988742e-01,NaN,2,1,1,1
37,79,1,88,NaN,NaN,1,NaN,6.239198e-01,NaN,1,1,2,1
37,80,1,125,NaN,NaN,1,NaN,2.728015e-01,NaN,1,0,3,1
37,81,1,23,NaN,NaN,2,NaN,1.647403e+00,NaN,2,0,1,1
37,82,1,54,NaN,NaN,1,NaN,6.312365e-01,NaN,0,0,2,1
37,83,1,129,NaN,NaN,2,NaN,9.828836e-01,NaN,1,1,3,1
37,84,1,122,NaN,NaN,2,NaN,8.242392e-01,NaN,2,0,3,1
37,85,1,142,NaN,NaN,1,NaN,9.450890e-01,NaN,1,1,3,1
37,86,1,94,NaN,NaN,1,NaN,3.008269e-01,NaN,1,0,2,1
37,87,1,39,NaN,NaN,2,NaN,1.081619e+00,NaN,2,0,1,1
37,88,1,73,NaN,NaN,1,NaN,2.478109e-01,NaN,0,0,2,1
37,89,1,119,NaN,NaN,1,NaN,3.591503e-01,NaN,0,0,3,1
37,90,1,111,NaN,NaN,1,NaN,2.987424e-01,NaN,2,1,3,1
37,91,1,71,NaN,NaN,1,NaN,2.712814e-01,NaN,0,0,2,1
37,92,1,4,NaN,NaN,1,NaN,2.378524e-01,NaN,0,0,1,1
37,93,1,125,NaN,NaN,1,NaN,2.382276e-01,NaN,0,0,3,1
37,94,1,14,NaN,NaN,1,NaN,2.941513e-01,NaN,1,1,1,1
37,95,1,29,NaN,NaN,1,NaN,2.521638e-01,NaN,0,0,1,1
37,96,1,116,NaN,NaN,1,NaN,2.670465e-01,NaN,2,0,3,1
37,97,1,61,NaN,NaN,1,NaN,3.933621e-01,NaN,1,0,2,1
37,98,1,109,NaN,NaN,1,NaN,3.234321e-01,NaN,1,0,3,1
37,99,1,75,NaN,NaN,1,NaN,3.122322e-01,NaN,2,0,2,1
37,100,1,27,NaN,NaN,1,NaN,1.231528e-04,NaN,1,0,1,1
37,101,1,124,NaN,NaN,2,NaN,3.906283e-01,NaN,1,1,3,1
37,102,1,95,NaN,NaN,1,NaN,5.125592e-01,NaN,0,0,2,1
37,103,1,59,NaN,NaN,1,NaN,1.228509e-04,NaN,2,0,2,1
37,104,1,116,NaN,NaN,1,NaN,2.260216e-02,NaN,0,0,3,1
37,105,1,81,NaN,NaN,1,NaN,1.231528e-04,NaN,2,0,2,1
37,106,1,35,NaN,NaN,1,NaN,6.883764e-01,NaN,2,0,1,1
37,107,1,22,NaN,NaN,2,NaN,5.994924e-01,NaN,1,0,1,1
37,108,1,82,NaN,NaN,1,NaN,9.530223e-01,NaN,0,0,2,1
37,109,1,25,NaN,NaN,1,NaN,1.183233e-04,NaN,2,0,1,1
37,110,1,144,NaN,NaN,1,NaN,2.848439e-01,NaN,0,0,3,1
37,111,1,88,NaN,NaN,1,NaN,2.590733e-01,NaN,0,1,2,1
37,112,1,33,NaN,NaN,1,NaN,5.060182e-01,NaN,1,0,1,1
37,113,1,28,NaN,NaN,2,NaN,4.234385e-01,NaN,0,1,1,1
37,114,1,48,NaN,NaN,1,NaN,2.564077e-01,NaN,2,0,1,1
37,115,1,66,NaN,NaN,1,NaN,2.635578e-01,NaN,2,0,2,1
37,116,1,74,NaN,NaN,1,NaN,2.707979e-01,NaN,2,0,2,1
37,117,1,2,NaN,NaN,2,NaN,7.651051e-01,NaN,2,1,1,1
37,118,1,53,NaN,NaN,1,NaN,2.558792e-01,NaN,0,0,2,1
37,119,1,24,NaN,NaN,1,NaN,5.271238e-01,NaN,0,0,1,1
37,120,1,117,NaN,NaN,1,NaN,1.944727e-02,NaN,0,0,3,1
37,121,1,38,NaN,NaN,1,NaN,2.993681e-01,NaN,0,1,1,1
37,122,1,77,NaN,NaN,1,NaN,2.643692e-01,NaN,1,0,2,1
37,123,1,83,NaN,NaN,1,NaN,2.871935e-01,NaN,1,1,2,1
37,124,1,78,NaN,NaN,1,NaN,7.089900e-01,NaN,0,0,2,1
37,125,1,20,NaN,NaN,1,NaN,9.218131e-01,NaN,1,0,1,1
37,126,1,113,NaN,NaN,1,NaN,3.180780e-01,NaN,0,0,3,1
37,127,1,2,NaN,NaN,1,NaN,2.818717e-01,NaN,0,1,1,1
37,128,1,27,NaN,NaN,1,NaN,3.203636e-01,NaN,0,0,1,1
37,129,1,93,NaN,NaN,1,NaN,2.688600e-01,NaN,1,1,2,1
37,130,1,47,NaN,NaN,1,NaN,2.909418e-01,NaN,0,0,1,1
37,131,1,112,NaN,NaN,1,NaN,2.112198e+00,NaN,1,0,3,1
37,132,1,42,NaN,NaN,1,NaN,7.444408e+00,NaN,2,0,1,1
37,133,1,105,NaN,NaN,1,NaN,5.646145e-01,NaN,0,0,3,1
37,134,1,92,NaN,NaN,1,NaN,1.835055e-01,NaN,1,1,2,1
37,135,1,47,NaN,NaN,1,NaN,4.939966e-02,NaN,2,0,1,1
37,136,1,83,NaN,NaN,1,NaN,2.723325e-01,NaN,0,1,2,1
37,137,1,108,NaN,NaN,1,NaN,4.789717e-01,NaN,0,1,3,1
37,138,1,64,NaN,NaN,1,NaN,5.487685e-01,NaN,0,0,2,1
37,139,1,39,NaN,NaN,2,NaN,3.679422e-01,NaN,0,0,1,1
37,140,1,59,NaN,NaN,1,NaN,3.469806e-01,NaN,0,0,2,1
37,141,1,75,NaN,NaN,1,NaN,3.737871e-01,NaN,0,0,2,1
37,142,1,110,NaN,NaN,1,NaN,2.360615e+00,NaN,1,0,3,1
37,143,1,129,NaN,NaN,1,NaN,1.636019e+00,NaN,0,1,3,1
37,144,1,60,NaN,NaN,1,NaN,1.332351e+00,NaN,0,1,2,1
37,145,1,98,NaN,NaN,2,NaN,5.279180e-01,NaN,0,0,3,1
37,146,1,66,NaN,NaN,1,NaN,4.365917e-02,NaN,0,0,2,1
37,147,1,12,NaN,NaN,2,NaN,6.276786e-01,NaN,0,0,1,1
37,148,1,89,NaN,NaN,1,NaN,2.606224e-01,NaN,1,0,2,1
37,149,1,121,NaN,NaN,1,NaN,4.368181e-02,NaN,0,0,3,1
37,150,1,70,NaN,NaN,1,NaN,2.751680e-01,NaN,0,0,2,1
37,151,1,144,NaN,NaN,1,NaN,3.380363e-01,NaN,2,0,3,1
37,152,1,104,NaN,NaN,1,NaN,3.261400e-01,NaN,0,0,3,1
37,153,1,14,NaN,NaN,1,NaN,4.187415e-01,NaN,0,1,1,1
37,154,1,127,NaN,NaN,1,NaN,3.063501e-01,NaN,1,0,3,1
37,155,1,46,NaN,NaN,2,NaN,3.839795e-01,NaN,2,0,1,1
37,156,1,79,NaN,NaN,1,NaN,2.659243e-01,NaN,1,1,2,1
37,157,1,91,NaN,NaN,1,NaN,1.136562e+00,NaN,0,0,2,1
37,158,1,60,NaN,NaN,1,NaN,5.561821e-01,NaN,2,1,2,1
37,159,1,140,NaN,NaN,1,NaN,9.676036e-01,NaN,1,0,3,1
37,160,1,15,NaN,NaN,1,NaN,2.579785e-01,NaN,0,0,1,1
37,161,1,81,NaN,NaN,1,NaN,3.379454e-01,NaN,0,0,2,1
37,162,1,136,NaN,NaN,2,NaN,5.734851e-01,NaN,0,0,3,1
37,163,1,45,NaN,NaN,1,NaN,2.489422e-01,NaN,0,0,1,1
37,164,1,85,NaN,NaN,1,NaN,2.400335e-01,NaN,1,0,2,1
37,165,1,5,NaN,NaN,1,NaN,2.715087e-01,NaN,0,0,1,1
37,166,1,79,NaN,NaN,1,NaN,4.370330e-01,NaN,0,1,2,1
37,167,1,49,NaN,NaN,1,NaN,2.772878e-01,NaN,1,0,2,1
37,168,1,5,NaN,NaN,1,NaN,2.918190e-01,NaN,2,0,1,1
37,169,1,36,NaN,NaN,2,NaN,5.539829e-01,NaN,0,1,1,1
37,170,1,100,NaN,NaN,1,NaN,2.846743e-01,NaN,0,0,3,1
37,171,1,97,NaN,NaN,1,NaN,3.630001e-01,NaN,0,0,3,1
37,172,1,71,NaN,NaN,1,NaN,2.535218e-01,NaN,1,0,2,1
37,173,1,13,NaN,NaN,2,NaN,1.003770e+00,NaN,1,0,1,1
37,174,1,84,NaN,NaN,1,NaN,3.407680e-01,NaN,0,0,2,1
37,175,1,31,NaN,NaN,1,NaN,7.766036e-01,NaN,0,0,1,1
37,176,1,87,NaN,NaN,1,NaN,2.593836e-01,NaN,2,0,2,1
37,177,1,143,NaN,NaN,1,NaN,9.066605e-01,NaN,1,1,3,1
37,178,1,135,NaN,NaN,1,NaN,3.275372e-01,NaN,0,0,3,1
37,179,1,92,NaN,NaN,1,NaN,4.674291e-01,NaN,0,1,2,1
37,180,1,140,NaN,NaN,1,NaN,2.902461e-01,NaN,0,0,3,1
37,181,1,72,NaN,NaN,1,NaN,2.961725e-01,NaN,2,0,2,1
37,182,1,63,NaN,NaN,1,NaN,2.541511e-01,NaN,1,0,2,1
37,183,1,99,NaN,NaN,2,NaN,1.924888e+00,NaN,0,1,3,1
37,184,1,138,NaN,NaN,1,NaN,1.941567e-01,NaN,0,0,3,1
37,185,1,114,NaN,NaN,1,NaN,3.160764e-01,NaN,2,1,3,1
37,186,1,19,NaN,NaN,1,NaN,7.449168e-01,NaN,0,1,1,1
37,187,1,128,NaN,NaN,1,NaN,2.679415e-01,NaN,2,0,3,1
37,188,1,3,NaN,NaN,1,NaN,2.265866e-01,NaN,1,0,1,1
37,189,1,118,NaN,NaN,1,NaN,3.551624e-01,NaN,1,1,3,1
37,190,1,119,NaN,NaN,1,NaN,3.745490e-01,NaN,2,0,3,1
37,191,1,80,NaN,NaN,1,NaN,2.416641e-01,NaN,2,0,2,1
37,192,1,70,NaN,NaN,1,NaN,2.975896e-01,NaN,2,0,2,1
37,193,1,98,NaN,NaN,1,NaN,2.870882e-01,NaN,1,0,3,1
37,194,1,51,NaN,NaN,1,NaN,2.520717e-01,NaN,0,0,2,1
37,195,1,137,NaN,NaN,1,NaN,3.154033e-01,NaN,1,0,3,1
37,196,1,52,NaN,NaN,1,NaN,3.033247e-01,NaN,2,1,2,1
37,197,1,1,NaN,NaN,1,NaN,2.845098e-01,NaN,1,0,1,1
37,198,1,103,NaN,NaN,1,NaN,1.945593e+00,NaN,1,0,3,1
37,199,1,84,NaN,NaN,1,NaN,3.330112e-01,NaN,2,0,2,1
37,200,1,50,NaN,NaN,1,NaN,4.057733e-02,NaN,0,1,2,1
37,201,1,115,NaN,NaN,1,NaN,4.790480e-01,NaN,0,0,3,1
37,202,1,55,NaN,NaN,1,NaN,5.324725e-01,NaN,0,1,2,1
37,203,1,108,NaN,NaN,1,NaN,5.447645e-01,NaN,1,1,3,1
37,204,1,107,NaN,NaN,1,NaN,8.368292e-02,NaN,2,0,3,1
37,205,1,111,NaN,NaN,1,NaN,2.971816e-01,NaN,0,1,3,1
37,206,1,78,NaN,NaN,1,NaN,2.391262e-01,NaN,1,0,2,1
37,207,1,136,NaN,NaN,1,NaN,1.827189e-01,NaN,1,0,3,1
37,208,1,69,NaN,NaN,1,NaN,3.529287e-01,NaN,0,1,2,1
37,209,1,107,NaN,NaN,1,NaN,2.522969e-01,NaN,0,0,3,1
37,210,1,94,NaN,NaN,1,NaN,2.512800e-01,NaN,0,0,2,1
37,211,1,17,NaN,NaN,1,NaN,7.308849e-01,NaN,0,0,1,1
37,212,1,106,NaN,NaN,1,NaN,7.107174e-01,NaN,0,1,3,1
37,213,1,21,NaN,NaN,1,NaN,4.044268e-01,NaN,1,1,1,1
37,214,1,7,NaN,NaN,1,NaN,8.053268e-01,NaN,0,1,1,1
37,215,1,89,NaN,NaN,1,NaN,6.229744e-01,NaN,0,0,2,1
37,216,1,18,NaN,NaN,1,NaN,3.355910e-01,NaN,0,0,1,1
37,217,1,123,NaN,NaN,1,NaN,3.719211e-01,NaN,2,0,3,1
37,218,1,37,NaN,NaN,1,NaN,1.814407e+00,NaN,1,0,1,1
37,219,1,141,NaN,NaN,1,NaN,3.350166e-01,NaN,2,1,3,1
37,220,1,102,NaN,NaN,2,NaN,9.391474e-01,NaN,2,0,3,1
37,221,1,73,NaN,NaN,1,NaN,2.313141e-01,NaN,1,0,2,1
37,222,1,41,NaN,NaN,2,NaN,8.791802e-01,NaN,0,0,1,1
37,223,1,25,NaN,NaN,1,NaN,7.173417e-01,NaN,0,0,1,1
37,224,1,120,NaN,NaN,1,NaN,2.660921e-01,NaN,1,1,3,1
37,225,1,106,NaN,NaN,1,NaN,3.052909e-01,NaN,1,1,3,1
37,226,1,8,NaN,NaN,1,NaN,2.779531e-01,NaN,0,0,1,1
37,227,1,33,NaN,NaN,1,NaN,3.867993e-01,NaN,0,0,1,1
37,228,1,36,NaN,NaN,2,NaN,6.207939e-01,NaN,2,1,1,1
37,229,1,64,NaN,NaN,1,NaN,3.335394e-01,NaN,1,0,2,1
37,230,1,62,NaN,NaN,1,NaN,2.815345e-01,NaN,0,1,2,1
37,231,1,17,NaN,NaN,1,NaN,2.477538e-01,NaN,1,0,1,1
37,232,1,3,NaN,NaN,1,NaN,3.350097e-01,NaN,0,0,1,1
37,233,1,68,NaN,NaN,1,NaN,3.305638e-01,NaN,0,0,2,1
37,234,1,122,NaN,NaN,1,NaN,5.827698e-01,NaN,0,0,3,1
37,235,1,130,NaN,NaN,2,NaN,1.168844e+00,NaN,2,0,3,1
37,236,1,26,NaN,NaN,2,NaN,6.509518e-01,NaN,1,0,1,1
37,237,1,44,NaN,NaN,1,NaN,8.278644e-02,NaN,2,1,1,1
37,238,1,134,NaN,NaN,1,NaN,9.204342e-01,NaN,2,1,3,1
37,239,1,124,NaN,NaN,1,NaN,3.652968e-01,NaN,0,1,3,1
37,240,1,132,NaN,NaN,1,NaN,2.482027e-01,NaN,2,0,3,1
37,241,1,58,NaN,NaN,1,NaN,3.117507e-01,NaN,2,0,2,1
37,242,1,24,NaN,NaN,1,NaN,2.437535e-01,NaN,2,0,1,1
37,243,1,11,NaN,NaN,1,NaN,7.471372e-01,NaN,0,0,1,1
37,244,1,44,NaN,NaN,1,NaN,1.597299e+00,NaN,0,1,1,1
37,245,1,21,NaN,NaN,1,NaN,2.789024e-01,NaN,0,1,1,1
37,246,1,138,NaN,NaN,1,NaN,4.059297e-01,NaN,2,0,3,1
37,247,1,86,NaN,NaN,1,NaN,6.063041e-01,NaN,0,0,2,1
37,248,1,10,NaN,NaN,1,NaN,2.716180e-01,NaN,0,0,1,1
37,249,1,49,NaN,NaN,1,NaN,5.906628e-01,NaN,0,0,2,1
37,250,1,86,NaN,NaN,1,NaN,1.040743e+00,NaN,1,0,2,1
37,251,1,37,NaN,NaN,1,NaN,6.086509e-01,NaN,0,0,1,1
37,252,1,10,NaN,NaN,1,NaN,3.378159e-01,NaN,2,0,1,1
37,253,1,9,NaN,NaN,1,NaN,2.858050e-01,NaN,0,0,1,1
37,254,1,142,NaN,NaN,1,NaN,5.319581e-01,NaN,0,1,3,1
37,255,1,82,NaN,NaN,1,NaN,2.962694e-01,NaN,2,0,2,1
37,256,1,4,NaN,NaN,1,NaN,3.004895e-01,NaN,1,0,1,1
37,257,1,141,NaN,NaN,1,NaN,5.381034e-01,NaN,0,1,3,1
37,258,1,16,NaN,NaN,1,NaN,5.975427e-01,NaN,0,0,1,1
37,259,1,13,NaN,NaN,1,NaN,9.268403e-01,NaN,0,0,1,1
37,260,1,131,NaN,NaN,1,NaN,6.195059e-01,NaN,1,0,3,1
37,261,1,133,NaN,NaN,2,NaN,3.564398e-01,NaN,2,0,3,1
37,262,1,57,NaN,NaN,1,NaN,3.268816e-01,NaN,0,0,2,1
37,263,1,118,NaN,NaN,1,NaN,3.398993e-01,NaN,0,1,3,1
37,264,1,91,NaN,NaN,1,NaN,9.599790e-01,NaN,2,0,2,1
37,265,1,30,NaN,NaN,1,NaN,6.025751e-01,NaN,1,0,1,1
37,266,1,132,NaN,NaN,1,NaN,3.077256e-01,NaN,0,0,3,1
37,267,1,40,NaN,NaN,1,NaN,3.120493e+00,NaN,1,0,1,1
37,268,1,63,NaN,NaN,1,NaN,6.933592e-01,NaN,0,0,2,1
37,269,1,102,NaN,NaN,1,NaN,3.392681e-01,NaN,0,0,3,1
37,270,1,11,NaN,NaN,1,NaN,2.951311e-01,NaN,1,0,1,1
37,271,1,40,NaN,NaN,1,NaN,6.607714e-01,NaN,0,0,1,1
37,272,1,6,NaN,NaN,1,NaN,2.835213e-01,NaN,0,1,1,1
37,273,1,20,NaN,NaN,1,NaN,2.496379e-01,NaN,0,0,1,1
37,274,1,101,NaN,NaN,1,NaN,2.238592e-01,NaN,1,1,3,1
37,275,1,110,NaN,NaN,1,NaN,4.248282e-01,NaN,0,0,3,1
37,276,1,35,NaN,NaN,1,NaN,2.487463e-01,NaN,0,0,1,1
37,277,1,28,NaN,NaN,1,NaN,3.362886e-01,NaN,2,1,1,1
37,278,1,121,NaN,NaN,1,NaN,3.405461e-01,NaN,2,0,3,1
37,279,1,61,NaN,NaN,1,NaN,2.876288e-01,NaN,0,0,2,1
37,280,1,103,NaN,NaN,1,NaN,3.018611e-01,NaN,0,0,3,1
37,281,1,51,NaN,NaN,1,NaN,2.913104e-01,NaN,1,0,2,1
37,282,1,96,NaN,NaN,1,NaN,5.293137e-01,NaN,0,0,2,1
37,283,1,31,NaN,NaN,1,NaN,4.613439e-01,NaN,2,0,1,1
37,284,1,57,NaN,NaN,1,NaN,5.087215e-01,NaN,2,0,2,1
37,285,1,7,NaN,NaN,1,NaN,2.660185e-01,NaN,2,1,1,1
37,286,1,87,NaN,NaN,1,NaN,2.485543e-01,NaN,0,0,2,1
37,287,1,48,NaN,NaN,1,NaN,3.041509e-01,NaN,0,0,1,1
37,288,1,126,NaN,NaN,1,NaN,2.614189e-01,NaN,0,1,3,1
37,353,2,37,31,2,0,0,3.499567e+00,NaN,1,0,1,1
37,354,2,92,8,1,1,1,2.051443e+00,NaN,1,1,2,1
37,355,2,26,10,2,2,1,2.966915e+00,NaN,1,0,1,1
37,356,2,71,5,1,0,0,3.499601e+00,NaN,1,0,2,1
37,357,2,79,36,1,1,1,1.823420e+00,NaN,1,1,2,1
37,358,2,142,68,2,2,1,1.259737e+00,NaN,1,1,3,1
37,359,2,106,71,2,2,1,1.247455e+00,NaN,1,1,3,1
37,360,2,64,13,2,2,1,2.179035e+00,NaN,1,0,2,1
37,361,2,18,50,1,1,1,1.665196e+00,NaN,1,0,1,1
37,362,2,9,69,2,2,1,2.203911e+00,NaN,1,0,1,1
37,363,2,51,67,1,1,1,1.073378e+00,NaN,1,0,2,1
37,364,2,33,25,1,0,0,3.499756e+00,NaN,1,0,1,1
37,365,2,140,30,1,1,1,1.685371e+00,NaN,1,0,3,1
37,366,2,94,48,1,1,1,1.063463e+00,NaN,1,0,2,1
37,367,2,86,45,2,2,1,1.874185e+00,NaN,1,0,2,1
37,368,2,124,39,2,2,1,1.972902e+00,NaN,1,1,3,1
37,369,2,1,15,1,1,1,1.275746e+00,NaN,1,0,1,1
37,370,2,97,41,2,2,1,1.062528e+00,NaN,1,0,3,1
37,371,2,90,37,1,1,1,2.337334e+00,NaN,1,0,2,1
37,372,2,12,35,2,2,1,1.369674e+00,NaN,1,0,1,1
37,373,2,85,19,1,1,1,1.912427e+00,NaN,1,0,2,1
37,374,2,131,56,2,2,1,9.449936e-01,NaN,1,0,3,1
37,375,2,4,9,2,2,1,1.176286e+00,NaN,1,0,1,1
37,376,2,136,47,1,1,1,1.374875e+00,NaN,1,0,3,1
37,377,3,9,69,2,2,1,2.788233e+00,NaN,1,0,1,1
37,378,3,4,9,1,1,1,1.570516e+00,NaN,1,0,1,1
37,379,3,79,36,2,2,1,1.080916e+00,NaN,1,1,2,1
37,380,3,106,71,1,1,1,1.370978e+00,NaN,1,1,3,1
37,381,3,124,39,2,2,1,9.456169e-01,NaN,1,1,3,1
37,382,3,140,30,1,1,1,1.737139e+00,NaN,1,0,3,1
37,383,3,131,56,2,2,1,1.729513e+00,NaN,1,0,3,1
37,384,3,94,48,1,1,1,6.494897e-01,NaN,1,0,2,1
37,385,3,1,15,1,1,1,1.541196e+00,NaN,1,0,1,1
37,386,3,90,37,1,1,1,2.605203e+00,NaN,1,0,2,1
37,387,3,26,10,2,2,1,1.282573e+00,NaN,1,0,1,1
37,388,3,18,50,2,2,1,1.244822e+00,NaN,1,0,1,1
37,389,3,51,67,1,1,1,8.806025e-01,NaN,1,0,2,1
37,390,3,85,19,2,2,1,1.394586e+00,NaN,1,0,2,1
37,391,3,12,35,1,1,1,1.552990e+00,NaN,1,0,1,1
37,392,3,136,47,2,2,1,1.384057e+00,NaN,1,0,3,1
37,393,3,33,25,1,2,0,2.990440e+00,NaN,1,0,1,1
37,394,3,37,31,2,2,1,9.884212e-01,NaN,1,0,1,1
37,395,3,142,68,2,2,1,1.786536e+00,NaN,1,1,3,1
37,396,3,97,41,2,2,1,9.767655e-01,NaN,1,0,3,1
37,397,3,64,13,2,2,1,1.103590e+00,NaN,1,0,2,1
37,398,3,71,5,2,1,0,1.248766e+00,NaN,1,0,2,1
37,399,3,92,8,2,2,1,8.281877e-01,NaN,1,1,2,1
37,400,3,86,45,2,2,1,9.369856e-01,NaN,1,0,2,1
37,425,2,89,24,1,1,1,1.278618e+00,NaN,1,0,2,2
37,426,2,17,26,2,2,1,1.633225e+00,NaN,1,0,1,2
37,427,2,69,60,1,1,1,8.128600e-01,NaN,1,1,2,2
37,428,2,118,4,1,1,1,1.353721e+00,NaN,1,1,3,2
37,429,2,56,65,2,2,1,9.055753e-01,NaN,1,0,2,2
37,430,2,112,12,1,1,1,1.258560e+00,NaN,1,0,3,2
37,431,2,77,3,1,1,1,8.304911e-01,NaN,1,0,2,2
37,432,2,32,20,2,2,1,1.138366e+00,NaN,1,0,1,2
37,433,2,3,51,1,1,1,1.386216e+00,NaN,1,0,1,2
37,434,2,21,17,2,2,1,1.080396e+00,NaN,1,1,1,2
37,435,2,53,59,2,2,1,1.898410e+00,NaN,1,0,2,2
37,436,2,73,58,1,2,0,3.203631e+00,NaN,1,0,2,2
37,437,2,78,61,1,1,1,1.033149e+00,NaN,1,0,2,2
37,438,2,11,44,2,2,1,8.215462e-01,NaN,1,0,1,2
37,439,2,45,11,2,2,1,1.418192e+00,NaN,1,0,1,2
37,440,2,108,42,1,1,1,9.271569e-01,NaN,1,1,3,2
37,441,2,43,23,2,2,1,2.959466e+00,NaN,1,0,1,2
37,442,2,127,63,1,1,1,1.375480e+00,NaN,1,0,3,2
37,443,2,120,16,2,2,1,7.899527e-01,NaN,1,1,3,2
37,444,2,40,70,2,2,1,8.760685e-01,NaN,1,0,1,2
37,445,2,63,62,2,2,1,7.267436e-01,NaN,1,0,2,2
37,446,2,61,27,1,1,1,1.087791e+00,NaN,1,0,2,2
37,447,2,22,52,2,2,1,1.441605e+00,NaN,1,0,1,2
37,448,2,129,14,1,1,1,7.816936e-01,NaN,1,1,3,2
37,449,3,89,24,2,2,1,1.097312e+00,NaN,1,0,2,2
37,450,3,127,63,2,2,1,1.786591e+00,NaN,1,0,3,2
37,451,3,78,61,1,1,1,9.367079e-01,NaN,1,0,2,2
37,452,3,118,4,2,2,1,8.648039e-01,NaN,1,1,3,2
37,453,3,45,11,1,1,1,8.517222e-01,NaN,1,0,1,2
37,454,3,3,51,1,1,1,1.246937e+00,NaN,1,0,1,2
37,455,3,112,12,1,1,1,8.265834e-01,NaN,1,0,3,2
37,456,3,73,58,2,1,0,1.847194e+00,NaN,1,0,2,2
37,457,3,108,42,1,1,1,7.146309e-01,NaN,1,1,3,2
37,458,3,77,3,2,2,1,8.676965e-01,NaN,1,0,2,2
37,459,3,61,27,1,1,1,8.144921e-01,NaN,1,0,2,2
37,460,3,43,23,1,1,1,1.043376e+00,NaN,1,0,1,2
37,461,3,21,17,1,1,1,9.028620e-01,NaN,1,1,1,2
37,462,3,11,44,2,2,1,9.047305e-01,NaN,1,0,1,2
37,463,3,53,59,1,1,1,1.105911e+00,NaN,1,0,2,2
37,464,3,40,70,2,2,1,7.635714e-01,NaN,1,0,1,2
37,465,3,56,65,2,2,1,8.900418e-01,NaN,1,0,2,2
37,466,3,22,52,1,1,1,1.132099e+00,NaN,1,0,1,2
37,467,3,69,60,1,1,1,6.133875e-01,NaN,1,1,2,2
37,468,3,120,16,1,1,1,9.930615e-01,NaN,1,1,3,2
37,469,3,32,20,2,2,1,7.990243e-01,NaN,1,0,1,2
37,470,3,129,14,1,1,1,1.508420e+00,NaN,1,1,3,2
37,471,3,63,62,1,1,1,7.738794e-01,NaN,1,0,2,2
37,472,3,17,26,2,2,1,1.260904e+00,NaN,1,0,1,2
37,497,2,99,22,1,1,1,1.517568e+00,NaN,1,1,3,3
37,498,2,109,2,1,1,1,9.109322e-01,NaN,1,0,3,3
37,499,2,30,57,2,2,1,1.272033e+00,NaN,1,0,1,3
37,500,2,93,72,1,1,1,1.074688e+00,NaN,1,1,2,3
37,501,2,110,33,1,1,1,7.498033e-01,NaN,1,0,3,3
37,502,2,115,55,1,1,1,2.213164e+00,NaN,1,0,3,3
37,503,2,49,38,2,2,1,1.721750e+00,NaN,1,0,2,3
37,504,2,103,18,2,2,1,9.704518e-01,NaN,1,0,3,3
37,505,2,76,6,2,2,1,1.025312e+00,NaN,1,0,2,3
37,506,2,88,21,2,2,1,1.150251e+00,NaN,1,1,2,3
37,507,2,125,40,2,2,1,1.453623e+00,NaN,1,0,3,3
37,508,2,137,64,2,2,1,1.312991e+00,NaN,1,0,3,3
37,509,2,101,54,1,1,1,1.345698e+00,NaN,1,1,3,3
37,510,2,8,53,1,1,1,1.249384e+00,NaN,1,0,1,3
37,511,2,20,66,2,2,1,1.404462e+00,NaN,1,0,1,3
37,512,2,143,34,2,2,1,1.146115e+00,NaN,1,1,3,3
37,513,2,54,32,2,2,1,2.713355e+00,NaN,1,0,2,3
37,514,2,139,43,2,2,1,2.194064e+00,NaN,1,0,3,3
37,515,2,98,1,1,1,1,1.208105e+00,NaN,1,0,3,3
37,516,2,34,28,2,2,1,1.173807e+00,NaN,1,0,1,3
37,517,2,14,29,2,2,1,1.164865e+00,NaN,1,1,1,3
37,518,2,13,46,2,2,1,1.283369e+00,NaN,1,0,1,3
37,519,2,27,49,2,2,1,8.134978e-01,NaN,1,0,1,3
37,520,2,83,7,1,1,1,1.234151e+00,NaN,1,1,2,3
37,521,3,8,53,2,2,1,7.298740e-01,NaN,1,0,1,3
37,522,3,103,18,2,2,1,9.617152e-01,NaN,1,0,3,3
37,523,3,49,38,2,2,1,8.965435e-01,NaN,1,0,2,3
37,524,3,110,33,2,2,1,8.340332e-01,NaN,1,0,3,3
37,525,3,14,29,2,2,1,1.110433e+00,NaN,1,1,1,3
37,526,3,83,7,1,1,1,9.598214e-01,NaN,1,1,2,3
37,527,3,125,40,1,2,0,7.429312e-01,NaN,1,0,3,3
37,528,3,139,43,2,2,1,1.575007e+00,NaN,1,0,3,3
37,529,3,30,57,2,2,1,6.458434e-01,NaN,1,0,1,3
37,530,3,34,28,1,1,1,1.273265e+00,NaN,1,0,1,3
37,531,3,99,22,2,2,1,1.643938e+00,NaN,1,1,3,3
37,532,3,76,6,1,1,1,9.674702e-01,NaN,1,0,2,3
37,533,3,143,34,2,2,1,1.030267e+00,NaN,1,1,3,3
37,534,3,20,66,1,1,1,1.426525e+00,NaN,1,0,1,3
37,535,3,115,55,1,1,1,1.383042e+00,NaN,1,0,3,3
37,536,3,54,32,2,2,1,6.610718e-01,NaN,1,0,2,3
37,537,3,109,2,1,1,1,8.484382e-01,NaN,1,0,3,3
37,538,3,27,49,2,2,1,6.282153e-01,NaN,1,0,1,3
37,539,3,98,1,2,1,0,1.312654e+00,NaN,1,0,3,3
37,540,3,137,64,1,1,1,8.415479e-01,NaN,1,0,3,3
37,541,3,101,54,1,1,1,8.854930e-01,NaN,1,1,3,3
37,542,3,88,21,2,2,1,1.087895e+00,NaN,1,1,2,3
37,543,3,13,46,2,2,1,7.779806e-01,NaN,1,0,1,3
37,544,3,93,72,1,1,1,6.724208e-01,NaN,1,1,2,3
37,569,4,16,63,2,2,1,1.297471e+00,NaN,2,0,1,1
37,570,4,62,71,2,2,1,7.070829e-01,NaN,2,1,2,1
37,571,4,134,36,1,1,1,9.564036e-01,NaN,2,1,3,1
37,572,4,67,18,1,1,1,1.107789e+00,NaN,2,0,2,1
37,573,4,36,60,2,2,1,1.173484e+00,NaN,2,1,1,1
37,574,4,42,67,1,1,1,1.317039e+00,NaN,2,0,1,1
37,575,4,113,28,2,2,1,1.221020e+00,NaN,2,0,3,1
37,576,4,47,45,1,1,1,1.041935e+00,NaN,2,0,1,1
37,577,4,52,68,1,1,1,9.416576e-01,NaN,2,1,2,1
37,578,4,104,20,1,1,1,8.462048e-01,NaN,2,0,3,1
37,579,4,72,10,1,1,1,8.015360e-01,NaN,2,0,2,1
37,580,4,102,53,1,1,1,1.254961e+00,NaN,2,0,3,1
37,581,4,50,4,1,1,1,1.098351e+00,NaN,2,1,2,1
37,582,4,7,34,1,1,1,1.163636e+00,NaN,2,1,1,1
37,583,4,132,24,2,2,1,9.945825e-01,NaN,2,0,3,1
37,584,4,46,59,2,2,1,2.432598e+00,NaN,2,0,1,1
37,585,4,65,1,2,2,1,2.156519e+00,NaN,2,0,2,1
37,586,4,57,30,1,1,1,7.399813e-01,NaN,2,0,2,1
37,587,4,60,42,2,2,1,2.931829e+00,NaN,2,1,2,1
37,588,4,111,17,1,1,1,1.036320e+00,NaN,2,1,3,1
37,589,4,74,51,2,2,1,1.416289e+00,NaN,2,0,2,1
37,590,4,80,46,1,1,1,1.556948e+00,NaN,2,0,2,1
37,591,4,23,43,2,2,1,2.108416e+00,NaN,2,0,1,1
37,592,4,35,48,2,2,1,1.261771e+00,NaN,2,0,1,1
37,617,4,58,56,2,2,1,1.202111e+00,NaN,2,0,2,2
37,618,4,95,23,2,2,1,7.999332e-01,NaN,2,0,2,2
37,619,4,100,35,1,1,1,1.597093e+00,NaN,2,0,3,2
37,620,4,91,49,1,1,1,1.530381e+00,NaN,2,0,2,2
37,621,4,141,21,1,1,1,8.511421e-01,NaN,2,1,3,2
37,622,4,96,11,1,1,1,7.740654e-01,NaN,2,0,2,2
37,623,4,119,66,1,1,1,1.453068e+00,NaN,2,0,3,2
37,624,4,59,41,2,2,1,2.448484e+00,NaN,2,0,2,2
37,625,4,31,6,2,2,1,1.163607e+00,NaN,2,0,1,2
37,626,4,128,3,2,2,1,2.746411e+00,NaN,2,0,3,2
37,627,4,117,31,1,1,1,1.530077e+00,NaN,2,0,3,2
37,628,4,75,57,1,1,1,7.459138e-01,NaN,2,0,2,2
37,629,4,122,5,2,2,1,9.937603e-01,NaN,2,0,3,2
37,630,4,68,47,2,2,1,7.119535e-01,NaN,2,0,2,2
37,631,4,138,32,2,2,1,8.487445e-01,NaN,2,0,3,2
37,632,4,81,25,1,1,1,8.438284e-01,NaN,2,0,2,2
37,633,4,144,13,2,2,1,8.318642e-01,NaN,2,0,3,2
37,634,4,116,69,2,1,0,3.348068e+00,NaN,2,0,3,2
37,635,4,28,16,1,1,1,1.147317e+00,NaN,2,1,1,2
37,636,4,2,22,1,1,1,1.498978e+00,NaN,2,1,1,2
37,637,4,29,61,1,1,1,2.748558e+00,NaN,2,0,1,2
37,638,4,105,26,2,2,1,1.683640e+00,NaN,2,0,3,2
37,639,4,66,33,1,1,1,1.046654e+00,NaN,2,0,2,2
37,640,4,55,14,2,2,1,1.585245e+00,NaN,2,1,2,2
37,665,4,123,37,1,2,0,1.936151e+00,NaN,2,0,3,3
37,666,4,84,50,2,2,1,1.112870e+00,NaN,2,0,2,3
37,667,4,39,65,1,1,1,1.209553e+00,NaN,2,0,1,3
37,668,4,19,39,1,1,1,1.334653e+00,NaN,2,1,1,3
37,669,4,5,12,2,2,1,9.748880e-01,NaN,2,0,1,3
37,670,4,24,40,2,2,1,1.973801e+00,NaN,2,0,1,3
37,671,4,25,55,1,1,1,1.708444e+00,NaN,2,0,1,3
37,672,4,6,54,2,2,1,1.061836e+00,NaN,2,1,1,3
37,673,4,48,19,2,2,1,9.124510e-01,NaN,2,0,1,3
37,674,4,82,44,1,1,1,1.241072e+00,NaN,2,0,2,3
37,675,4,38,72,2,2,1,1.493389e+00,NaN,2,1,1,3
37,676,4,41,38,1,1,1,1.695382e+00,NaN,2,0,1,3
37,677,4,130,27,2,2,1,1.624994e+00,NaN,2,0,3,3
37,678,4,70,15,2,2,1,1.957421e+00,NaN,2,0,2,3
37,679,4,135,58,1,1,1,8.214949e-01,NaN,2,0,3,3
37,680,4,10,2,2,2,1,1.049801e+00,NaN,2,0,1,3
37,681,4,126,7,2,2,1,1.221265e+00,NaN,2,1,3,3
37,682,4,114,29,2,2,1,8.419805e-01,NaN,2,1,3,3
37,683,4,15,64,2,2,1,8.384435e-01,NaN,2,0,1,3
37,684,4,87,70,2,2,1,1.202444e+00,NaN,2,0,2,3
37,685,4,121,9,1,1,1,1.511595e+00,NaN,2,0,3,3
37,686,4,107,52,2,2,1,8.003887e-01,NaN,2,0,3,3
37,687,4,44,8,1,1,1,1.621876e+00,NaN,2,1,1,3
37,688,4,133,62,1,1,1,1.506870e+00,NaN,2,0,3,3
37,689,5,5.210000e+00,9,1,0,0,2.500387e+00,1,1,0,1.300000e+00,1
37,690,5,3.513000e+01,28,1,3,0,7.070253e-01,1,1,0,1.300000e+00,1
37,691,5,5.639000e+01,65,2,2,1,4.842259e-01,1,1,0,2.100000e+00,1
37,692,5,3.740000e+00,51,1,1,1,1.350008e+00,1,1,0,1.200000e+00,1
37,693,5,4.941000e+01,38,2,2,1,1.143211e+00,1,1,0,2.100000e+00,1
37,694,5,1.182000e+01,44,1,0,0,2.500153e+00,1,1,0,1.200000e+00,1
37,695,5,3.304000e+01,20,1,1,1,3.632781e-01,1,1,0,1.300000e+00,1
37,696,5,1.120500e+02,12,3,3,1,5.247075e-01,1,1,0,3.100000e+00,1
37,697,5,9.435000e+01,48,2,1,0,1.142180e+00,1,1,0,2.100000e+00,1
37,698,5,1.182000e+01,44,1,1,1,6.804786e-01,2,1,0,1.200000e+00,1
37,699,5,4.087000e+01,70,1,1,1,4.417961e-01,1,1,0,1.200000e+00,1
37,700,5,3.817000e+01,31,1,4,0,6.189309e-01,1,1,0,1.300000e+00,1
37,701,5,4.596000e+01,11,1,3,0,4.687295e-01,1,1,0,1.200000e+00,1
37,702,5,3.075000e+01,57,1,1,1,2.859765e-01,1,1,0,1.200000e+00,1
37,703,5,8.548000e+01,19,2,2,1,6.553283e-01,1,1,0,2.100000e+00,1
37,704,5,1.380000e+01,46,1,2,0,1.097085e+00,1,1,0,1.200000e+00,1
37,705,5,2.791000e+01,49,1,1,1,3.784482e-01,1,1,0,1.200000e+00,1
37,706,5,2.672000e+01,10,1,2,0,3.718701e-01,1,1,0,1.200000e+00,1
37,707,5,9.123000e+01,37,2,2,1,3.809952e-01,1,1,0,2.300000e+00,1
37,708,5,7.829000e+01,61,2,2,1,3.746030e-01,1,1,0,2.100000e+00,1
37,709,5,1.091000e+02,2,3,3,1,3.689123e-01,1,1,0,3.100000e+00,1
37,710,5,3.304000e+01,20,1,1,1,3.692148e-01,2,1,0,1.300000e+00,1
37,711,5,1.884000e+01,50,1,4,0,1.434935e+00,1,1,0,1.200000e+00,1
37,712,5,6.230000e+01,27,2,2,1,4.122192e-01,1,1,0,2.300000e+00,1
37,713,5,5.538000e+01,32,2,2,1,3.815814e-01,1,1,0,2.300000e+00,1
37,714,5,2.307000e+01,52,1,4,0,1.030855e+00,1,1,0,1.300000e+00,1
37,715,5,9.020000e+00,53,1,1,1,7.042730e-01,1,1,0,1.300000e+00,1
37,716,5,3.740000e+00,51,1,1,1,1.234050e+00,2,1,0,1.200000e+00,1
37,717,5,6.230000e+01,27,2,2,1,4.033546e-01,2,1,0,2.300000e+00,1
37,718,5,4.941000e+01,38,2,2,1,4.688641e-01,2,1,0,2.100000e+00,1
37,719,5,1.182000e+01,44,1,1,1,3.979782e-01,3,1,0,1.200000e+00,1
37,720,5,9.020000e+00,53,1,1,1,5.116047e-01,2,1,0,1.300000e+00,1
37,721,5,3.075000e+01,57,1,1,1,3.131748e-01,2,1,0,1.200000e+00,1
37,722,5,1.380000e+01,46,1,1,1,2.985999e-01,2,1,0,1.200000e+00,1
37,723,5,13,35,1,3,0,1.539976e+00,1,1,0,1.300000e+00,1
37,724,5,1.016000e+01,69,1,1,1,1.189803e+00,1,1,0,1.300000e+00,1
37,725,5,3.075000e+01,57,1,1,1,3.032562e-01,3,1,0,1.200000e+00,1
37,726,5,7.828000e+01,3,2,2,1,6.565417e-01,1,1,0,2.300000e+00,1
37,727,5,3.304000e+01,20,1,1,1,3.222718e-01,3,1,0,1.300000e+00,1
37,728,5,3.075000e+01,57,1,1,1,3.715788e-01,4,1,0,1.200000e+00,1
37,729,5,9.865000e+01,1,3,3,1,9.008662e-01,1,1,0,3.200000e+00,1
37,730,5,3.381000e+01,25,1,1,1,4.069222e-01,1,1,0,1.200000e+00,1
37,731,5,8.647000e+01,45,2,2,1,6.561475e-01,1,1,0,2.100000e+00,1
37,732,5,7.222000e+01,5,2,2,1,3.453681e-01,1,1,0,2.300000e+00,1
37,733,5,7.631000e+01,6,2,2,1,3.705377e-01,1,1,0,2.100000e+00,1
37,734,5,5.538000e+01,32,2,2,1,2.921908e-01,2,1,0,2.300000e+00,1
37,735,5,6.433000e+01,62,2,2,1,2.941688e-01,1,1,0,2.300000e+00,1
37,736,5,13,35,1,1,1,6.721271e-01,2,1,0,1.300000e+00,1
37,737,5,4.941000e+01,38,2,2,1,3.059055e-01,3,1,0,2.100000e+00,1
37,738,5,9.020000e+00,53,1,1,1,3.791204e-01,3,1,0,1.300000e+00,1
37,739,5,9.865000e+01,1,3,3,1,3.883406e-01,2,1,0,3.200000e+00,1
37,740,5,5.210000e+00,9,1,1,1,3.578923e-01,2,1,0,1.300000e+00,1
37,741,5,3.513000e+01,28,1,1,1,3.513235e-01,2,1,0,1.300000e+00,1
37,742,5,13,35,1,1,1,2.808375e-01,3,1,0,1.300000e+00,1
37,743,5,1.805000e+01,26,1,1,1,3.784751e-01,1,1,0,1.300000e+00,1
37,744,5,4.395000e+01,23,1,2,0,4.037356e-01,1,1,0,1.200000e+00,1
37,745,5,1.405700e+02,30,3,0,0,2.500470e+00,1,1,0,3.200000e+00,1
37,746,5,2.119000e+01,66,1,1,1,2.714435e-01,1,1,0,1.300000e+00,1
37,747,5,7.829000e+01,61,2,2,1,2.884178e-01,2,1,0,2.100000e+00,1
37,748,5,7.435000e+01,58,2,3,0,3.058783e-01,1,1,0,2.300000e+00,1
37,749,5,1.036700e+02,18,3,3,1,1.811611e+00,1,1,0,3.200000e+00,1
37,750,5,7.631000e+01,6,2,2,1,3.014527e-01,2,1,0,2.100000e+00,1
37,751,5,1.700000e+00,15,1,4,0,3.989700e-01,1,1,0,1.200000e+00,1
37,752,5,9.435000e+01,48,2,2,1,3.766383e-01,2,1,0,2.100000e+00,1
37,753,5,2.791000e+01,49,1,1,1,3.462175e-01,2,1,0,1.200000e+00,1
37,754,5,5.142000e+01,67,2,3,0,9.478010e-01,1,1,0,2.100000e+00,1
37,755,5,1.036700e+02,18,3,3,1,3.010898e-01,2,1,0,3.200000e+00,1
37,756,5,6.433000e+01,62,2,2,1,3.987808e-01,2,1,0,2.300000e+00,1
37,757,5,5.210000e+00,9,1,1,1,3.119949e-01,3,1,0,1.300000e+00,1
37,758,5,3.513000e+01,28,1,1,1,3.064539e-01,3,1,0,1.300000e+00,1
37,759,5,9.123000e+01,37,2,2,1,3.789752e-01,2,1,0,2.300000e+00,1
37,760,5,1.315800e+02,56,3,3,1,4.042333e-01,1,1,0,3.200000e+00,1
37,761,5,5.639000e+01,65,2,2,1,2.858041e-01,2,1,0,2.100000e+00,1
37,762,5,7.829000e+01,61,2,2,1,5.914630e-01,3,1,0,2.100000e+00,1
37,763,5,2.119000e+01,66,1,1,1,5.686145e-01,2,1,0,1.300000e+00,1
37,764,5,9.020000e+00,53,1,1,1,8.099653e-01,4,1,0,1.300000e+00,1
37,765,5,13,35,1,1,1,6.521936e-01,4,1,0,1.300000e+00,1
37,766,5,1.106600e+02,33,3,3,1,6.933725e-01,1,1,0,3.200000e+00,1
37,767,5,5.346000e+01,59,2,1,0,6.237040e-01,1,1,0,2.100000e+00,1
37,768,5,2.672000e+01,10,1,1,1,4.810133e-01,2,1,0,1.200000e+00,1
37,769,5,1.091000e+02,2,3,3,1,7.787989e-01,2,1,0,3.100000e+00,1
37,770,5,5.142000e+01,67,2,2,1,3.881368e-01,2,1,0,2.100000e+00,1
37,771,5,4.395000e+01,23,1,2,0,3.252625e-01,2,1,0,1.200000e+00,1
37,772,5,6.433000e+01,62,2,2,1,3.672129e-01,3,1,0,2.300000e+00,1
37,773,5,1.252400e+02,40,3,3,1,6.571242e-01,1,1,0,3.100000e+00,1
37,774,5,5.639000e+01,65,2,2,1,8.341283e-01,3,1,0,2.100000e+00,1
37,775,5,1.805000e+01,26,1,1,1,2.916653e-01,2,1,0,1.300000e+00,1
37,776,5,3.304000e+01,20,1,1,1,3.730705e-01,4,1,0,1.300000e+00,1
37,777,5,9.123000e+01,37,2,2,1,3.584135e-01,3,1,0,2.300000e+00,1
37,778,5,8.647000e+01,45,2,2,1,1.463874e+00,2,1,0,2.100000e+00,1
37,779,5,2.119000e+01,66,1,1,1,5.855851e-01,3,1,0,1.300000e+00,1
37,780,5,1.252400e+02,40,3,3,1,4.750489e-01,2,1,0,3.100000e+00,1
37,781,5,6.230000e+01,27,2,2,1,5.324007e-01,3,1,0,2.300000e+00,1
37,782,5,1.271600e+02,63,3,1,0,9.495898e-01,1,1,0,3.100000e+00,1
37,783,5,1.120500e+02,12,3,3,1,3.829744e-01,2,1,0,3.100000e+00,1
37,784,5,1.091000e+02,2,3,3,1,3.046984e-01,3,1,0,3.100000e+00,1
37,785,5,6.544000e+01,13,2,3,0,3.939890e-01,1,1,0,2.300000e+00,1
37,786,5,4.087000e+01,70,1,1,1,5.398852e-01,2,1,0,1.200000e+00,1
37,787,5,5.346000e+01,59,2,2,1,2.852240e-01,2,1,0,2.100000e+00,1
37,788,5,1.371500e+02,64,3,3,1,7.111141e-01,1,1,0,3.100000e+00,1
37,789,5,4.395000e+01,23,1,2,0,8.561745e-01,3,1,0,1.200000e+00,1
37,790,5,5.538000e+01,32,2,2,1,4.100203e-01,3,1,0,2.300000e+00,1
37,791,5,8.548000e+01,19,2,2,1,8.359213e-01,2,1,0,2.100000e+00,1
37,792,5,9.435000e+01,48,2,2,1,2.935298e-01,3,1,0,2.100000e+00,1
37,793,5,1.315800e+02,56,3,3,1,4.474747e-01,2,1,0,3.200000e+00,1
37,794,5,1.371500e+02,64,3,3,1,4.008726e-01,2,1,0,3.100000e+00,1
37,795,5,9.759000e+01,41,3,3,1,3.220494e-01,1,1,0,3.200000e+00,1
37,796,5,3.381000e+01,25,1,1,1,3.557178e-01,2,1,0,1.200000e+00,1
37,797,5,1.366800e+02,47,3,0,0,2.500511e+00,1,1,0,3.200000e+00,1
37,798,5,1.271600e+02,63,3,3,1,5.111254e-01,2,1,0,3.100000e+00,1
37,799,5,3.817000e+01,31,1,3,0,9.523848e-01,2,1,0,1.300000e+00,1
37,800,5,3.817000e+01,31,1,1,1,3.456576e-01,3,1,0,1.300000e+00,1
37,801,5,7.631000e+01,6,2,2,1,3.314174e-01,3,1,0,2.100000e+00,1
37,802,5,5.346000e+01,59,2,2,1,4.524839e-01,3,1,0,2.100000e+00,1
37,803,5,7.435000e+01,58,2,3,0,2.943276e-01,2,1,0,2.300000e+00,1
37,804,5,7.829000e+01,61,2,2,1,9.522116e-01,4,1,0,2.100000e+00,1
37,805,5,1.884000e+01,50,1,1,1,3.536175e-01,2,1,0,1.200000e+00,1
37,806,5,2.672000e+01,10,1,1,1,3.871794e-01,3,1,0,1.200000e+00,1
37,807,5,1.884000e+01,50,1,1,1,5.163226e-01,3,1,0,1.200000e+00,1
37,808,5,1.106600e+02,33,3,3,1,5.419290e-01,2,1,0,3.200000e+00,1
37,809,5,4.087000e+01,70,1,1,1,2.962805e-01,3,1,0,1.200000e+00,1
37,810,5,1.120500e+02,12,3,3,1,4.096315e-01,3,1,0,3.100000e+00,1
37,811,5,9.123000e+01,37,2,2,1,3.876035e-01,4,1,0,2.300000e+00,1
37,812,5,1.016000e+01,69,1,1,1,2.932500e-01,2,1,0,1.300000e+00,1
37,813,5,7.828000e+01,3,2,2,1,3.028879e-01,2,1,0,2.300000e+00,1
37,814,5,7.631000e+01,6,2,2,1,3.605337e-01,4,1,0,2.100000e+00,1
37,815,5,8.647000e+01,45,2,2,1,3.626376e-01,3,1,0,2.100000e+00,1
37,816,5,9.435000e+01,48,2,2,1,5.478907e-01,4,1,0,2.100000e+00,1
37,817,5,3.817000e+01,31,1,1,1,5.338519e-01,4,1,0,1.300000e+00,1
37,818,5,6.544000e+01,13,2,3,0,4.070103e-01,2,1,0,2.300000e+00,1
37,819,5,2.791000e+01,49,1,1,1,3.523947e-01,3,1,0,1.200000e+00,1
37,820,5,7.222000e+01,5,2,0,0,2.500498e+00,2,1,0,2.300000e+00,1
37,821,5,2.307000e+01,52,1,1,1,4.520347e-01,2,1,0,1.300000e+00,1
37,822,5,1.271600e+02,63,3,1,0,7.009684e-01,3,1,0,3.100000e+00,1
37,823,5,1.016000e+01,69,1,1,1,4.466214e-01,3,1,0,1.300000e+00,1
37,824,5,9.865000e+01,1,3,3,1,7.360018e-01,3,1,0,3.200000e+00,1
37,825,5,5.142000e+01,67,2,2,1,2.815182e-01,3,1,0,2.100000e+00,1
37,826,5,6.544000e+01,13,2,2,1,2.751589e-01,3,1,0,2.300000e+00,1
37,827,5,1.016000e+01,69,1,1,1,3.010120e-01,4,1,0,1.300000e+00,1
37,828,5,4.596000e+01,11,1,2,0,3.255127e-01,2,1,0,1.200000e+00,1
37,829,5,4.395000e+01,23,1,1,1,4.160451e-01,4,1,0,1.200000e+00,1
37,830,5,1.036700e+02,18,3,3,1,2.731517e-01,3,1,0,3.200000e+00,1
37,831,5,6.544000e+01,13,2,2,1,2.824434e-01,4,1,0,2.300000e+00,1
37,832,5,1.366800e+02,47,3,1,0,2.757714e-01,2,1,0,3.200000e+00,1
37,833,5,1.036700e+02,18,3,3,1,2.863103e-01,4,1,0,3.200000e+00,1
37,834,5,1.152500e+02,55,3,3,1,3.038765e-01,1,1,0,3.100000e+00,1
37,835,5,1.805000e+01,26,1,1,1,2.888715e-01,3,1,0,1.300000e+00,1
37,836,5,2.119000e+01,66,1,1,1,3.386188e-01,4,1,0,1.300000e+00,1
37,837,5,1.271600e+02,63,3,3,1,2.840130e-01,4,1,0,3.100000e+00,1
37,838,5,4.596000e+01,11,1,1,1,2.932213e-01,3,1,0,1.200000e+00,1
37,839,5,2.672000e+01,10,1,1,1,5.195082e-01,4,1,0,1.200000e+00,1
37,840,5,4.596000e+01,11,1,1,1,4.407330e-01,4,1,0,1.200000e+00,1
37,841,5,6.433000e+01,62,2,2,1,6.903836e-01,4,1,0,2.300000e+00,1
37,842,5,7.222000e+01,5,2,2,1,2.597965e-01,3,1,0,2.300000e+00,1
37,843,5,1.152500e+02,55,3,3,1,5.257927e-01,2,1,0,3.100000e+00,1
37,844,5,1.392300e+02,43,3,3,1,2.958423e-01,1,1,0,3.100000e+00,1
37,845,5,3.513000e+01,28,1,1,1,2.809049e-01,4,1,0,1.300000e+00,1
37,846,5,5.142000e+01,67,2,2,1,3.706992e-01,4,1,0,2.100000e+00,1
37,847,5,5.346000e+01,59,2,2,1,4.359814e-01,4,1,0,2.100000e+00,1
37,848,5,9.865000e+01,1,3,3,1,4.532022e-01,4,1,0,3.200000e+00,1
37,849,5,9.032000e+01,24,2,3,0,4.386482e-01,1,1,0,2.300000e+00,1
37,850,5,1.405700e+02,30,3,3,1,3.922975e-01,2,1,0,3.200000e+00,1
37,851,5,1.091000e+02,2,3,3,1,6.822842e-01,4,1,0,3.100000e+00,1
37,852,5,9.032000e+01,24,2,2,1,3.400194e-01,2,1,0,2.300000e+00,1
37,853,5,1.700000e+00,15,1,2,0,3.412434e-01,2,1,0,1.200000e+00,1
37,854,5,5.538000e+01,32,2,2,1,2.544780e-01,4,1,0,2.300000e+00,1
37,855,5,1.371500e+02,64,3,3,1,3.599291e-01,3,1,0,3.100000e+00,1
37,856,5,1.252400e+02,40,3,3,1,3.141594e-01,3,1,0,3.100000e+00,1
37,857,5,5.210000e+00,9,1,1,1,4.913304e-01,4,1,0,1.300000e+00,1
37,858,5,1.120500e+02,12,3,3,1,3.330453e-01,4,1,0,3.100000e+00,1
37,859,5,2.307000e+01,52,1,1,1,4.463356e-01,3,1,0,1.300000e+00,1
37,860,5,1.106600e+02,33,3,3,1,5.198028e-01,3,1,0,3.200000e+00,1
37,861,5,6.230000e+01,27,2,2,1,2.733473e-01,4,1,0,2.300000e+00,1
37,862,5,1.366800e+02,47,3,3,1,3.069634e-01,3,1,0,3.200000e+00,1
37,863,5,1.392300e+02,43,3,3,1,2.919738e-01,2,1,0,3.100000e+00,1
37,864,5,1.152500e+02,55,3,3,1,2.624501e-01,3,1,0,3.100000e+00,1
37,865,5,1.700000e+00,15,1,1,1,2.877637e-01,3,1,0,1.200000e+00,1
37,866,5,7.435000e+01,58,2,1,0,2.888081e-01,3,1,0,2.300000e+00,1
37,867,5,1.392300e+02,43,3,3,1,3.142648e-01,3,1,0,3.100000e+00,1
37,868,5,7.435000e+01,58,2,2,1,2.922035e-01,4,1,0,2.300000e+00,1
37,869,5,1.884000e+01,50,1,1,1,2.622348e-01,4,1,0,1.200000e+00,1
37,870,5,7.828000e+01,3,2,2,1,2.793935e-01,3,1,0,2.300000e+00,1
37,871,5,7.828000e+01,3,2,2,1,3.368552e-01,4,1,0,2.300000e+00,1
37,872,5,4.087000e+01,70,1,1,1,3.061388e-01,4,1,0,1.200000e+00,1
37,873,5,1.315800e+02,56,3,3,1,7.078221e-01,3,1,0,3.200000e+00,1
37,874,5,1.380000e+01,46,1,1,1,5.011690e-01,3,1,0,1.200000e+00,1
37,875,5,1.106600e+02,33,3,3,1,4.944077e-01,4,1,0,3.200000e+00,1
37,876,5,9.759000e+01,41,3,3,1,4.877454e-01,2,1,0,3.200000e+00,1
37,877,5,1.152500e+02,55,3,3,1,3.452576e-01,4,1,0,3.100000e+00,1
37,878,5,2.791000e+01,49,1,1,1,3.225462e-01,4,1,0,1.200000e+00,1
37,879,5,1.405700e+02,30,3,3,1,3.329164e-01,3,1,0,3.200000e+00,1
37,880,5,9.759000e+01,41,3,3,1,2.697719e-01,3,1,0,3.200000e+00,1
37,881,5,1.315800e+02,56,3,3,1,3.907674e-01,4,1,0,3.200000e+00,1
37,882,5,7.222000e+01,5,2,2,1,3.122213e-01,4,1,0,2.300000e+00,1
37,883,5,1.805000e+01,26,1,1,1,4.978264e-01,4,1,0,1.300000e+00,1
37,884,5,2.307000e+01,52,1,1,1,2.832686e-01,4,1,0,1.300000e+00,1
37,885,5,1.366800e+02,47,3,3,1,3.727071e-01,4,1,0,3.200000e+00,1
37,886,5,9.032000e+01,24,2,2,1,3.421097e-01,3,1,0,2.300000e+00,1
37,887,5,3.740000e+00,51,1,1,1,3.519860e-01,3,1,0,1.200000e+00,1
37,888,5,1.700000e+00,15,1,1,1,4.974289e-01,4,1,0,1.200000e+00,1
37,889,5,1.392300e+02,43,3,3,1,5.072225e-01,4,1,0,3.100000e+00,1
37,890,5,1.405700e+02,30,3,3,1,3.485061e-01,4,1,0,3.200000e+00,1
37,891,5,1.371500e+02,64,3,3,1,3.660523e-01,4,1,0,3.100000e+00,1
37,892,5,8.647000e+01,45,2,2,1,6.471618e-01,4,1,0,2.100000e+00,1
37,893,5,3.381000e+01,25,1,1,1,4.803915e-01,3,1,0,1.200000e+00,1
37,894,5,1.182000e+01,44,1,2,0,4.742982e-01,4,1,0,1.200000e+00,1
37,895,5,3.740000e+00,51,1,1,1,3.795237e-01,4,1,0,1.200000e+00,1
37,896,5,5.639000e+01,65,2,2,1,2.691392e-01,4,1,0,2.100000e+00,1
37,897,5,1.380000e+01,46,1,1,1,4.786514e-01,4,1,0,1.200000e+00,1
37,898,5,1.252400e+02,40,3,3,1,5.199124e-01,4,1,0,3.100000e+00,1
37,899,5,3.381000e+01,25,1,1,1,2.649735e-01,4,1,0,1.200000e+00,1
37,900,5,9.032000e+01,24,2,2,1,2.427127e-01,4,1,0,2.300000e+00,1
37,901,5,9.759000e+01,41,3,3,1,3.808077e-01,4,1,0,3.200000e+00,1
37,902,5,8.548000e+01,19,2,2,1,2.624579e-01,3,1,0,2.100000e+00,1
37,903,5,4.941000e+01,38,2,2,1,2.955422e-01,4,1,0,2.100000e+00,1
37,904,5,8.548000e+01,19,2,2,1,2.970346e-01,4,1,0,2.100000e+00,1
37,905,6,102,53,1,1,1,9.177656e-01,NaN,2,0,3,1
37,906,6,36,60,1,1,1,1.159933e+00,NaN,2,1,1,1
37,907,6,58,56,2,2,1,6.563099e-01,NaN,2,0,2,1
37,908,6,95,23,2,2,1,6.926336e-01,NaN,2,0,2,1
37,909,6,59,41,2,2,1,6.387274e-01,NaN,2,0,2,1
37,910,6,57,30,2,2,1,7.556332e-01,NaN,2,0,2,1
37,911,6,44,8,2,2,1,8.834600e-01,NaN,2,1,1,1
37,912,6,42,67,2,2,1,1.278045e+00,NaN,2,0,1,1
37,913,6,19,39,2,2,1,8.495034e-01,NaN,2,1,1,1
37,914,6,5,12,1,1,1,7.177269e-01,NaN,2,0,1,1
37,915,6,46,59,2,2,1,8.469938e-01,NaN,2,0,1,1
37,916,6,134,36,2,1,0,9.949773e-01,NaN,2,1,3,1
37,917,6,104,20,2,2,1,8.656826e-01,NaN,2,0,3,1
37,918,6,114,29,1,1,1,1.412829e+00,NaN,2,1,3,1
37,919,6,111,17,1,1,1,1.106538e+00,NaN,2,1,3,1
37,920,6,123,37,2,2,1,1.660674e+00,NaN,2,0,3,1
37,921,6,39,65,1,1,1,1.296315e+00,NaN,2,0,1,1
37,922,6,16,63,1,1,1,1.418267e+00,NaN,2,0,1,1
37,923,6,47,45,1,1,1,1.359789e+00,NaN,2,0,1,1
37,924,6,75,57,1,1,1,8.560954e-01,NaN,2,0,2,1
37,925,6,55,14,2,2,1,7.557932e-01,NaN,2,1,2,1
37,926,6,117,31,2,2,1,1.436229e+00,NaN,2,0,3,1
37,927,6,35,48,2,2,1,1.024797e+00,NaN,2,0,1,1
37,928,6,138,32,1,1,1,9.420448e-01,NaN,2,0,3,1
37,929,6,29,61,2,2,1,9.194385e-01,NaN,2,0,1,1
37,930,6,144,13,1,1,1,1.200039e+00,NaN,2,0,3,1
37,931,6,91,49,1,1,1,8.300419e-01,NaN,2,0,2,1
37,932,6,82,44,1,1,1,8.506531e-01,NaN,2,0,2,1
37,933,6,24,40,2,2,1,9.027546e-01,NaN,2,0,1,1
37,934,6,128,3,2,2,1,8.650677e-01,NaN,2,0,3,1
37,935,6,126,7,2,2,1,7.879726e-01,NaN,2,1,3,1
37,936,6,41,38,1,1,1,9.147152e-01,NaN,2,0,1,1
37,937,6,23,43,2,2,1,1.348447e+00,NaN,2,0,1,1
37,938,6,84,50,1,1,1,7.242036e-01,NaN,2,0,2,1
37,939,6,65,1,2,2,1,7.576960e-01,NaN,2,0,2,1
37,940,6,70,15,1,2,0,6.617081e-01,NaN,2,0,2,1
37,941,6,121,9,2,2,1,1.257838e+00,NaN,2,0,3,1
37,942,6,68,47,2,2,1,5.906649e-01,NaN,2,0,2,1
37,943,6,81,25,2,2,1,6.761670e-01,NaN,2,0,2,1
37,944,6,67,18,2,2,1,7.678848e-01,NaN,2,0,2,1
37,945,6,25,55,2,2,1,9.510945e-01,NaN,2,0,1,1
37,946,6,52,68,2,2,1,7.832007e-01,NaN,2,1,2,1
37,947,6,66,33,2,2,1,6.700006e-01,NaN,2,0,2,1
37,948,6,135,58,1,1,1,6.733641e-01,NaN,2,0,3,1
37,949,6,130,27,1,1,1,1.140612e+00,NaN,2,0,3,1
37,950,6,6,54,1,1,1,1.173511e+00,NaN,2,1,1,1
37,951,6,100,35,2,2,1,1.005180e+00,NaN,2,0,3,1
37,952,6,132,24,2,2,1,9.786218e-01,NaN,2,0,3,1
37,953,6,50,4,2,2,1,7.932884e-01,NaN,2,1,2,1
37,954,6,80,46,2,2,1,7.360456e-01,NaN,2,0,2,1
37,955,6,107,52,2,2,1,7.287168e-01,NaN,2,0,3,1
37,956,6,31,6,1,1,1,2.625076e+00,NaN,2,0,1,1
37,957,6,28,16,1,1,1,8.307389e-01,NaN,2,1,1,1
37,958,6,74,51,1,1,1,6.114738e-01,NaN,2,0,2,1
37,959,6,10,2,1,1,1,8.257421e-01,NaN,2,0,1,1
37,960,6,122,5,2,2,1,8.866683e-01,NaN,2,0,3,1
37,961,6,72,10,1,2,0,2.145532e+00,NaN,2,0,2,1
37,962,6,141,21,2,2,1,1.777770e+00,NaN,2,1,3,1
37,963,6,62,71,1,1,1,1.224682e+00,NaN,2,1,2,1
37,964,6,96,11,2,2,1,7.421295e-01,NaN,2,0,2,1
37,965,6,113,28,1,1,1,1.462789e+00,NaN,2,0,3,1
37,966,6,133,62,2,2,1,2.010074e+00,NaN,2,0,3,1
37,967,6,60,42,2,2,1,7.844817e-01,NaN,2,1,2,1
37,968,6,87,70,1,1,1,8.869497e-01,NaN,2,0,2,1
37,969,6,116,69,1,2,0,1.609709e+00,NaN,2,0,3,1
37,970,6,38,72,1,1,1,1.216023e+00,NaN,2,1,1,1
37,971,6,119,66,2,2,1,9.810834e-01,NaN,2,0,3,1
37,972,6,48,19,1,1,1,9.719695e-01,NaN,2,0,1,1
37,973,6,105,26,2,2,1,9.234566e-01,NaN,2,0,3,1
37,974,6,7,34,2,2,1,1.108778e+00,NaN,2,1,1,1
37,975,6,15,64,1,1,1,1.174721e+00,NaN,2,0,1,1
37,976,6,2,22,1,1,1,1.421982e+00,NaN,2,1,1,1
37,977,6,37,31,2,2,1,9.953972e-01,NaN,1,0,1,1
37,978,6,79,36,1,1,1,6.734067e-01,NaN,1,1,2,1
37,979,6,32,20,2,2,1,1.156754e+00,NaN,1,0,1,1
37,980,6,30,57,1,1,1,1.093189e+00,NaN,1,0,1,1
37,981,6,78,61,2,2,1,1.831747e+00,NaN,1,0,2,1
37,982,6,99,22,2,2,1,1.036161e+00,NaN,1,1,3,1
37,983,6,1,15,1,1,1,8.330006e-01,NaN,1,0,1,1
37,984,6,8,53,1,1,1,1.125248e+00,NaN,1,0,1,1
37,985,6,12,35,2,2,1,1.062820e+00,NaN,1,0,1,1
37,986,6,63,62,1,1,1,7.221115e-01,NaN,1,0,2,1
37,987,6,45,11,1,1,1,1.107510e+00,NaN,1,0,1,1
37,988,6,11,44,1,1,1,1.373612e+00,NaN,1,0,1,1
37,989,6,131,56,1,1,1,1.052839e+00,NaN,1,0,3,1
37,990,6,61,27,1,1,1,7.208470e-01,NaN,1,0,2,1
37,991,6,88,21,2,2,1,6.353648e-01,NaN,1,1,2,1
37,992,6,71,5,2,1,0,1.558919e+00,NaN,1,0,2,1
37,993,6,120,16,2,2,1,9.828365e-01,NaN,1,1,3,1
37,994,6,98,1,2,1,0,2.397862e+00,NaN,1,0,3,1
37,995,6,143,34,1,1,1,3.204828e+00,NaN,1,1,3,1
37,996,6,4,9,2,2,1,1.609727e+00,NaN,1,0,1,1
37,997,6,89,24,1,1,1,7.837386e-01,NaN,1,0,2,1
37,998,6,93,72,2,2,1,8.865796e-01,NaN,1,1,2,1
37,999,6,21,17,1,1,1,7.934574e-01,NaN,1,1,1,1
37,1000,6,34,28,2,2,1,1.024402e+00,NaN,1,0,1,1
37,1001,6,142,68,2,2,1,7.972567e-01,NaN,1,1,3,1
37,1002,6,51,67,2,2,1,6.433885e-01,NaN,1,0,2,1
37,1003,6,86,45,1,1,1,1.407922e+00,NaN,1,0,2,1
37,1004,6,18,50,2,2,1,1.030248e+00,NaN,1,0,1,1
37,1005,6,129,14,2,2,1,1.307071e+00,NaN,1,1,3,1
37,1006,6,90,37,1,1,1,1.661006e+00,NaN,1,0,2,1
37,1007,6,3,51,1,1,1,1.400868e+00,NaN,1,0,1,1
37,1008,6,124,39,2,2,1,1.007008e+00,NaN,1,1,3,1
37,1009,6,9,69,1,1,1,1.397073e+00,NaN,1,0,1,1
37,1010,6,76,6,1,1,1,8.591537e-01,NaN,1,0,2,1
37,1011,6,33,25,2,1,0,1.823206e+00,NaN,1,0,1,1
37,1012,6,40,70,2,2,1,8.042435e-01,NaN,1,0,1,1
37,1013,6,136,47,1,1,1,1.178772e+00,NaN,1,0,3,1
37,1014,6,139,43,2,2,1,8.175488e-01,NaN,1,0,3,1
37,1015,6,118,4,2,2,1,7.837211e-01,NaN,1,1,3,1
37,1016,6,127,63,2,1,0,1.829042e+00,NaN,1,0,3,1
37,1017,6,94,48,1,1,1,9.458288e-01,NaN,1,0,2,1
37,1018,6,64,13,2,2,1,7.058411e-01,NaN,1,0,2,1
37,1019,6,17,26,1,2,0,1.051815e+00,NaN,1,0,1,1
37,1020,6,108,42,2,1,0,2.760103e+00,NaN,1,1,3,1
37,1021,6,103,18,2,2,1,1.255881e+00,NaN,1,0,3,1
37,1022,6,14,29,2,2,1,9.406880e-01,NaN,1,1,1,1
37,1023,6,137,64,1,1,1,8.446171e-01,NaN,1,0,3,1
37,1024,6,77,3,1,1,1,1.033230e+00,NaN,1,0,2,1
37,1025,6,106,71,1,1,1,1.934109e+00,NaN,1,1,3,1
37,1026,6,112,12,1,1,1,1.134858e+00,NaN,1,0,3,1
37,1027,6,140,30,2,1,0,2.191285e+00,NaN,1,0,3,1
37,1028,6,22,52,1,1,1,1.462271e+00,NaN,1,0,1,1
37,1029,6,83,7,2,2,1,6.737254e-01,NaN,1,1,2,1
37,1030,6,85,19,2,2,1,7.647489e-01,NaN,1,0,2,1
37,1031,6,101,54,2,2,1,1.052384e+00,NaN,1,1,3,1
37,1032,6,125,40,1,2,0,1.928482e+00,NaN,1,0,3,1
37,1033,6,109,2,1,1,1,1.105162e+00,NaN,1,0,3,1
37,1034,6,20,66,2,2,1,1.003061e+00,NaN,1,0,1,1
37,1035,6,115,55,2,2,1,1.369230e+00,NaN,1,0,3,1
37,1036,6,92,8,1,1,1,6.967535e-01,NaN,1,1,2,1
37,1037,6,69,60,1,1,1,6.266092e-01,NaN,1,1,2,1
37,1038,6,49,38,1,1,1,1.128000e+00,NaN,1,0,2,1
37,1039,6,43,23,2,2,1,9.450328e-01,NaN,1,0,1,1
37,1040,6,13,46,1,1,1,9.938040e-01,NaN,1,0,1,1
37,1041,6,73,58,2,2,1,1.304614e+00,NaN,1,0,2,1
37,1042,6,26,10,1,1,1,2.114333e+00,NaN,1,0,1,1
37,1043,6,27,49,2,2,1,6.838158e-01,NaN,1,0,1,1
37,1044,6,56,65,1,1,1,1.486660e+00,NaN,1,0,2,1
37,1045,6,97,41,2,2,1,1.089588e+00,NaN,1,0,3,1
37,1046,6,53,59,2,2,1,1.060200e+00,NaN,1,0,2,1
37,1047,6,54,32,2,2,1,6.563213e-01,NaN,1,0,2,1
37,1048,6,110,33,1,1,1,1.028011e+00,NaN,1,0,3,1
