Subject,Trial,Cond,ImageNum,CueNum,Correct,Resp,Accuracy,RT,CueRep,ImageType,Baseline,Category,Block
53,1,1,104,NaN,NaN,1,NaN,4.792168e+00,NaN,0,0,3,1
53,2,1,12,NaN,NaN,1,NaN,2.583333e+00,NaN,1,0,1,1
53,3,1,97,NaN,NaN,0,NaN,9.995586e+00,NaN,1,1,3,1
53,4,1,2,NaN,NaN,1,NaN,8.906792e+00,NaN,0,1,1,1
53,5,1,120,NaN,NaN,1,NaN,9.202340e-01,NaN,0,0,3,1
53,6,1,1,NaN,NaN,1,NaN,5.890932e-01,NaN,1,0,1,1
53,7,1,25,NaN,NaN,1,NaN,7.272543e-01,NaN,0,0,1,1
53,8,1,82,NaN,NaN,1,NaN,5.314139e-01,NaN,0,0,2,1
53,9,1,140,NaN,NaN,1,NaN,3.753362e-01,NaN,1,0,3,1
53,10,1,91,NaN,NaN,1,NaN,9.618232e-01,NaN,0,1,2,1
53,11,1,69,NaN,NaN,1,NaN,2.207697e-01,NaN,0,0,2,1
53,12,1,119,NaN,NaN,1,NaN,3.097036e-01,NaN,0,1,3,1
53,13,1,101,NaN,NaN,2,NaN,1.228549e-04,NaN,2,0,3,1
53,14,1,3,NaN,NaN,1,NaN,5.323077e-01,NaN,0,1,1,1
53,15,1,98,NaN,NaN,1,NaN,1.171197e-04,NaN,2,0,3,1
53,16,1,26,NaN,NaN,1,NaN,8.979124e-02,NaN,1,0,1,1
53,17,1,61,NaN,NaN,1,NaN,5.197445e-01,NaN,1,0,2,1
53,18,1,113,NaN,NaN,1,NaN,5.559203e-01,NaN,2,0,3,1
53,19,1,137,NaN,NaN,1,NaN,2.957441e-01,NaN,0,0,3,1
53,20,1,53,NaN,NaN,1,NaN,4.369366e-01,NaN,0,0,2,1
53,21,1,95,NaN,NaN,1,NaN,4.450360e-01,NaN,1,0,2,1
53,22,1,122,NaN,NaN,2,NaN,4.446804e-02,NaN,1,0,3,1
53,23,1,128,NaN,NaN,1,NaN,6.282604e-01,NaN,2,0,3,1
53,24,1,63,NaN,NaN,1,NaN,2.367142e-01,NaN,0,0,2,1
53,25,1,130,NaN,NaN,2,NaN,2.928173e-01,NaN,2,0,3,1
53,26,1,70,NaN,NaN,1,NaN,2.986908e-01,NaN,0,0,2,1
53,27,1,134,NaN,NaN,2,NaN,3.054037e-01,NaN,2,0,3,1
53,28,1,133,NaN,NaN,2,NaN,6.535205e-01,NaN,0,1,3,1
53,29,1,56,NaN,NaN,1,NaN,5.566834e-01,NaN,0,0,2,1
53,30,1,22,NaN,NaN,1,NaN,1.040340e+00,NaN,1,0,1,1
53,31,1,117,NaN,NaN,2,NaN,2.804581e-01,NaN,0,0,3,1
53,32,1,139,NaN,NaN,1,NaN,3.899892e-01,NaN,0,0,3,1
53,33,1,112,NaN,NaN,1,NaN,5.925060e-01,NaN,0,0,3,1
53,34,1,42,NaN,NaN,2,NaN,3.221817e-01,NaN,2,0,1,1
53,35,1,36,NaN,NaN,2,NaN,2.869673e-01,NaN,1,0,1,1
53,36,1,132,NaN,NaN,2,NaN,9.967234e-01,NaN,1,1,3,1
53,37,1,132,NaN,NaN,2,NaN,3.019873e-01,NaN,0,1,3,1
53,38,1,109,NaN,NaN,1,NaN,2.995797e-01,NaN,1,0,3,1
53,39,1,123,NaN,NaN,1,NaN,4.652878e-01,NaN,0,1,3,1
53,40,1,21,NaN,NaN,1,NaN,4.234624e-01,NaN,2,1,1,1
53,41,1,52,NaN,NaN,1,NaN,4.723303e-01,NaN,2,0,2,1
53,42,1,106,NaN,NaN,1,NaN,2.950057e-01,NaN,1,0,3,1
53,43,1,16,NaN,NaN,1,NaN,5.642678e-01,NaN,0,0,1,1
53,44,1,7,NaN,NaN,1,NaN,5.193687e-01,NaN,1,1,1,1
53,45,1,80,NaN,NaN,1,NaN,5.956326e-01,NaN,0,0,2,1
53,46,1,139,NaN,NaN,1,NaN,6.695508e-01,NaN,2,0,3,1
53,47,1,42,NaN,NaN,1,NaN,7.240555e-01,NaN,0,0,1,1
53,48,1,75,NaN,NaN,1,NaN,4.891412e-01,NaN,2,0,2,1
53,49,1,39,NaN,NaN,2,NaN,9.343985e-01,NaN,0,0,1,1
53,50,1,9,NaN,NaN,1,NaN,3.227743e-01,NaN,0,0,1,1
53,51,1,55,NaN,NaN,1,NaN,4.315328e-01,NaN,1,1,2,1
53,52,1,68,NaN,NaN,1,NaN,7.119849e-02,NaN,1,0,2,1
53,53,1,114,NaN,NaN,1,NaN,3.510010e-01,NaN,0,1,3,1
53,54,1,80,NaN,NaN,1,NaN,4.096577e-01,NaN,1,0,2,1
53,55,1,142,NaN,NaN,1,NaN,4.113294e-01,NaN,1,0,3,1
53,56,1,18,NaN,NaN,1,NaN,4.756453e-01,NaN,0,0,1,1
53,57,1,53,NaN,NaN,1,NaN,4.906997e-01,NaN,2,0,2,1
53,58,1,7,NaN,NaN,1,NaN,6.087062e-01,NaN,0,1,1,1
53,59,1,121,NaN,NaN,1,NaN,2.737636e-01,NaN,1,0,3,1
53,60,1,111,NaN,NaN,1,NaN,4.006166e-01,NaN,1,0,3,1
53,61,1,11,NaN,NaN,1,NaN,3.297205e-01,NaN,1,0,1,1
53,62,1,108,NaN,NaN,2,NaN,1.397654e+00,NaN,2,0,3,1
53,63,1,32,NaN,NaN,1,NaN,8.553648e-01,NaN,2,0,1,1
53,64,1,95,NaN,NaN,1,NaN,2.704459e-01,NaN,0,0,2,1
53,65,1,47,NaN,NaN,1,NaN,5.652307e-01,NaN,0,0,1,1
53,66,1,44,NaN,NaN,1,NaN,6.081771e-01,NaN,0,0,1,1
53,67,1,35,NaN,NaN,2,NaN,4.735314e-01,NaN,1,0,1,1
53,68,1,38,NaN,NaN,1,NaN,4.640251e-01,NaN,2,0,1,1
53,69,1,91,NaN,NaN,1,NaN,3.346649e-01,NaN,2,1,2,1
53,70,1,87,NaN,NaN,1,NaN,2.426713e-01,NaN,1,1,2,1
53,71,1,13,NaN,NaN,1,NaN,2.591888e-01,NaN,2,0,1,1
53,72,1,96,NaN,NaN,1,NaN,2.902956e-01,NaN,2,1,2,1
53,73,1,141,NaN,NaN,1,NaN,2.804563e-01,NaN,0,1,3,1
53,74,1,118,NaN,NaN,1,NaN,2.382784e-01,NaN,0,0,3,1
53,75,1,62,NaN,NaN,1,NaN,9.428103e-02,NaN,2,1,2,1
53,76,1,41,NaN,NaN,1,NaN,6.527179e-01,NaN,1,0,1,1
53,77,1,28,NaN,NaN,2,NaN,3.558892e-01,NaN,2,1,1,1
53,78,1,15,NaN,NaN,1,NaN,3.432140e-01,NaN,0,0,1,1
53,79,1,83,NaN,NaN,1,NaN,1.192327e-04,NaN,0,0,2,1
53,80,1,38,NaN,NaN,1,NaN,2.286912e-01,NaN,0,0,1,1
53,81,1,135,NaN,NaN,1,NaN,2.527225e-01,NaN,2,0,3,1
53,82,1,127,NaN,NaN,1,NaN,2.678457e-01,NaN,1,1,3,1
53,83,1,15,NaN,NaN,1,NaN,5.865733e-01,NaN,2,0,1,1
53,84,1,66,NaN,NaN,1,NaN,4.367190e-01,NaN,0,0,2,1
53,85,1,45,NaN,NaN,1,NaN,2.448365e-01,NaN,1,0,1,1
53,86,1,105,NaN,NaN,1,NaN,1.052202e+00,NaN,1,0,3,1
53,87,1,92,NaN,NaN,1,NaN,3.318030e-01,NaN,1,1,2,1
53,88,1,79,NaN,NaN,1,NaN,3.356801e-01,NaN,0,0,2,1
53,89,1,106,NaN,NaN,1,NaN,3.394732e-01,NaN,0,0,3,1
53,90,1,81,NaN,NaN,1,NaN,4.160598e-01,NaN,0,0,2,1
53,91,1,84,NaN,NaN,1,NaN,2.561320e-01,NaN,0,0,2,1
53,92,1,71,NaN,NaN,1,NaN,5.117278e-01,NaN,0,0,2,1
53,93,1,60,NaN,NaN,1,NaN,5.003355e-01,NaN,1,0,2,1
53,94,1,122,NaN,NaN,2,NaN,1.113770e+00,NaN,0,0,3,1
53,95,1,86,NaN,NaN,1,NaN,8.622452e-01,NaN,0,1,2,1
53,96,1,73,NaN,NaN,1,NaN,3.089348e-01,NaN,2,0,2,1
53,97,1,49,NaN,NaN,1,NaN,2.747661e-01,NaN,0,0,2,1
53,98,1,24,NaN,NaN,1,NaN,4.889825e-01,NaN,0,0,1,1
53,99,1,19,NaN,NaN,2,NaN,3.912965e-01,NaN,0,0,1,1
53,100,1,130,NaN,NaN,2,NaN,1.228549e-04,NaN,0,0,3,1
53,101,1,101,NaN,NaN,1,NaN,7.785110e-01,NaN,0,0,3,1
53,102,1,30,NaN,NaN,1,NaN,3.648401e-01,NaN,0,0,1,1
53,103,1,17,NaN,NaN,1,NaN,7.430808e-01,NaN,0,1,1,1
53,104,1,125,NaN,NaN,1,NaN,6.278372e-01,NaN,1,1,3,1
53,105,1,70,NaN,NaN,1,NaN,2.517816e-01,NaN,1,0,2,1
53,106,1,98,NaN,NaN,1,NaN,2.587753e-01,NaN,0,0,3,1
53,107,1,76,NaN,NaN,1,NaN,2.421926e-01,NaN,0,1,2,1
53,108,1,129,NaN,NaN,2,NaN,4.106040e-01,NaN,0,0,3,1
53,109,1,31,NaN,NaN,1,NaN,3.238111e-01,NaN,2,0,1,1
53,110,1,133,NaN,NaN,1,NaN,6.447921e-02,NaN,2,1,3,1
53,111,1,60,NaN,NaN,1,NaN,2.474419e-01,NaN,0,0,2,1
53,112,1,81,NaN,NaN,1,NaN,2.947407e-01,NaN,2,0,2,1
53,113,1,27,NaN,NaN,1,NaN,3.161398e-01,NaN,0,0,1,1
53,114,1,112,NaN,NaN,1,NaN,2.643364e-01,NaN,2,0,3,1
53,115,1,107,NaN,NaN,1,NaN,3.750881e-01,NaN,2,0,3,1
53,116,1,138,NaN,NaN,1,NaN,5.298744e-01,NaN,1,0,3,1
53,117,1,138,NaN,NaN,1,NaN,4.940814e-01,NaN,0,0,3,1
53,118,1,34,NaN,NaN,1,NaN,2.593494e-01,NaN,2,0,1,1
53,119,1,104,NaN,NaN,1,NaN,2.430393e-01,NaN,1,0,3,1
53,120,1,131,NaN,NaN,2,NaN,8.350059e-01,NaN,0,0,3,1
53,121,1,137,NaN,NaN,1,NaN,2.668412e-01,NaN,2,0,3,1
53,122,1,109,NaN,NaN,1,NaN,3.378096e-01,NaN,0,0,3,1
53,123,1,45,NaN,NaN,1,NaN,3.736573e-01,NaN,0,0,1,1
53,124,1,3,NaN,NaN,1,NaN,3.040662e-01,NaN,2,1,1,1
53,125,1,89,NaN,NaN,1,NaN,3.177855e-01,NaN,1,1,2,1
53,126,1,54,NaN,NaN,1,NaN,5.540584e-01,NaN,1,1,2,1
53,127,1,2,NaN,NaN,1,NaN,3.175718e-01,NaN,1,1,1,1
53,128,1,11,NaN,NaN,1,NaN,3.142592e-01,NaN,0,0,1,1
53,129,1,62,NaN,NaN,1,NaN,2.869857e-01,NaN,0,1,2,1
53,130,1,96,NaN,NaN,1,NaN,1.972014e-01,NaN,0,1,2,1
53,131,1,41,NaN,NaN,1,NaN,2.865982e-01,NaN,0,0,1,1
53,132,1,69,NaN,NaN,1,NaN,3.643185e-01,NaN,1,0,2,1
53,133,1,92,NaN,NaN,1,NaN,5.273174e-01,NaN,0,1,2,1
53,134,1,30,NaN,NaN,1,NaN,2.123256e-01,NaN,1,0,1,1
53,135,1,43,NaN,NaN,1,NaN,2.526866e-01,NaN,2,0,1,1
53,136,1,17,NaN,NaN,1,NaN,1.397413e-01,NaN,2,1,1,1
53,137,1,64,NaN,NaN,1,NaN,7.975427e-02,NaN,0,1,2,1
53,138,1,144,NaN,NaN,1,NaN,3.809860e-02,NaN,0,0,3,1
53,139,1,39,NaN,NaN,2,NaN,6.780211e-01,NaN,2,0,1,1
53,140,1,14,NaN,NaN,1,NaN,2.921656e-01,NaN,0,1,1,1
53,141,1,46,NaN,NaN,2,NaN,2.980846e-01,NaN,2,0,1,1
53,142,1,82,NaN,NaN,1,NaN,4.234836e-01,NaN,2,0,2,1
53,143,1,93,NaN,NaN,1,NaN,2.565349e-01,NaN,0,0,2,1
53,144,1,86,NaN,NaN,1,NaN,3.116817e-01,NaN,1,1,2,1
53,145,1,74,NaN,NaN,1,NaN,3.960770e-01,NaN,0,0,2,1
53,146,1,90,NaN,NaN,1,NaN,1.291939e-04,NaN,1,0,2,1
53,147,1,128,NaN,NaN,1,NaN,2.069827e-01,NaN,0,0,3,1
53,148,1,1,NaN,NaN,1,NaN,2.406737e-01,NaN,0,0,1,1
53,149,1,44,NaN,NaN,1,NaN,2.726760e-01,NaN,1,0,1,1
53,150,1,107,NaN,NaN,1,NaN,5.431539e-01,NaN,0,0,3,1
53,151,1,6,NaN,NaN,1,NaN,4.269881e-01,NaN,2,1,1,1
53,152,1,19,NaN,NaN,1,NaN,3.157966e-01,NaN,1,0,1,1
53,153,1,32,NaN,NaN,1,NaN,3.209378e-01,NaN,0,0,1,1
53,154,1,136,NaN,NaN,2,NaN,2.215717e-01,NaN,0,0,3,1
53,155,1,59,NaN,NaN,1,NaN,2.620350e-01,NaN,0,0,2,1
53,156,1,100,NaN,NaN,1,NaN,4.848368e-01,NaN,2,1,3,1
53,157,1,34,NaN,NaN,1,NaN,2.669876e-01,NaN,0,0,1,1
53,158,1,16,NaN,NaN,1,NaN,2.334624e-01,NaN,2,0,1,1
53,159,1,4,NaN,NaN,1,NaN,2.731375e-01,NaN,2,1,1,1
53,160,1,68,NaN,NaN,1,NaN,3.039853e-01,NaN,0,0,2,1
53,161,1,57,NaN,NaN,1,NaN,1.095413e-01,NaN,2,0,2,1
53,162,1,100,NaN,NaN,1,NaN,2.747292e-01,NaN,0,1,3,1
53,163,1,83,NaN,NaN,1,NaN,2.657442e-01,NaN,1,0,2,1
53,164,1,31,NaN,NaN,1,NaN,7.244576e-02,NaN,0,0,1,1
53,165,1,63,NaN,NaN,1,NaN,2.389960e-01,NaN,1,0,2,1
53,166,1,87,NaN,NaN,1,NaN,3.673860e-01,NaN,0,1,2,1
53,167,1,88,NaN,NaN,1,NaN,4.580728e-01,NaN,1,0,2,1
53,168,1,103,NaN,NaN,1,NaN,2.409855e-01,NaN,0,0,3,1
53,169,1,9,NaN,NaN,1,NaN,2.494570e-01,NaN,2,0,1,1
53,170,1,72,NaN,NaN,1,NaN,1.766735e-01,NaN,0,0,2,1
53,171,1,102,NaN,NaN,1,NaN,6.510522e-01,NaN,1,0,3,1
53,172,1,88,NaN,NaN,1,NaN,3.627525e-01,NaN,0,0,2,1
53,173,1,118,NaN,NaN,1,NaN,2.693010e-01,NaN,1,0,3,1
53,174,1,36,NaN,NaN,2,NaN,5.797852e-01,NaN,0,0,1,1
53,175,1,79,NaN,NaN,1,NaN,2.943709e-01,NaN,2,0,2,1
53,176,1,48,NaN,NaN,1,NaN,3.555862e-01,NaN,2,1,1,1
53,177,1,5,NaN,NaN,1,NaN,5.349972e-01,NaN,1,0,1,1
53,178,1,57,NaN,NaN,1,NaN,4.427969e-01,NaN,0,0,2,1
53,179,1,140,NaN,NaN,1,NaN,2.989796e-01,NaN,0,0,3,1
53,180,1,102,NaN,NaN,1,NaN,4.015816e-02,NaN,0,0,3,1
53,181,1,37,NaN,NaN,1,NaN,1.760124e-01,NaN,0,0,1,1
53,182,1,23,NaN,NaN,1,NaN,2.727952e-02,NaN,2,0,1,1
53,183,1,66,NaN,NaN,1,NaN,3.601550e-02,NaN,1,0,2,1
53,184,1,5,NaN,NaN,1,NaN,2.276206e-01,NaN,0,0,1,1
53,185,1,136,NaN,NaN,1,NaN,2.846741e-01,NaN,1,0,3,1
53,186,1,71,NaN,NaN,1,NaN,2.423653e-01,NaN,1,0,2,1
53,187,1,90,NaN,NaN,1,NaN,2.663401e-01,NaN,0,0,2,1
53,188,1,115,NaN,NaN,2,NaN,5.131517e-01,NaN,2,0,3,1
53,189,1,134,NaN,NaN,2,NaN,4.216429e-01,NaN,0,0,3,1
53,190,1,77,NaN,NaN,1,NaN,1.185278e-01,NaN,0,0,2,1
53,191,1,61,NaN,NaN,1,NaN,3.155056e-01,NaN,0,0,2,1
53,192,1,114,NaN,NaN,1,NaN,3.199537e-01,NaN,2,1,3,1
53,193,1,55,NaN,NaN,1,NaN,3.089475e-01,NaN,0,1,2,1
53,194,1,65,NaN,NaN,1,NaN,3.701751e-01,NaN,2,1,2,1
53,195,1,56,NaN,NaN,1,NaN,3.166662e-01,NaN,2,0,2,1
53,196,1,33,NaN,NaN,1,NaN,2.576119e-01,NaN,1,0,1,1
53,197,1,13,NaN,NaN,1,NaN,8.955428e-03,NaN,0,0,1,1
53,198,1,110,NaN,NaN,2,NaN,3.541702e-01,NaN,0,0,3,1
53,199,1,76,NaN,NaN,1,NaN,1.349291e-04,NaN,2,1,2,1
53,200,1,110,NaN,NaN,1,NaN,3.668390e-01,NaN,1,0,3,1
53,201,1,51,NaN,NaN,1,NaN,3.618741e-01,NaN,2,0,2,1
53,202,1,24,NaN,NaN,1,NaN,3.082973e-01,NaN,1,0,1,1
53,203,1,29,NaN,NaN,1,NaN,4.815085e-01,NaN,0,0,1,1
53,204,1,77,NaN,NaN,1,NaN,7.358460e-01,NaN,1,0,2,1
53,205,1,6,NaN,NaN,1,NaN,1.035725e+00,NaN,0,1,1,1
53,206,1,141,NaN,NaN,1,NaN,2.164448e+00,NaN,2,1,3,1
53,207,1,124,NaN,NaN,1,NaN,5.824439e-01,NaN,1,0,3,1
53,208,1,85,NaN,NaN,1,NaN,4.338076e-01,NaN,0,1,2,1
53,209,1,105,NaN,NaN,1,NaN,2.326863e-01,NaN,0,0,3,1
53,210,1,33,NaN,NaN,1,NaN,9.692437e-02,NaN,0,0,1,1
53,211,1,126,NaN,NaN,2,NaN,6.140388e-01,NaN,0,0,3,1
53,212,1,135,NaN,NaN,1,NaN,2.549106e-01,NaN,0,0,3,1
53,213,1,43,NaN,NaN,1,NaN,2.619940e-01,NaN,0,0,1,1
53,214,1,29,NaN,NaN,1,NaN,1.410214e-01,NaN,2,0,1,1
53,215,1,27,NaN,NaN,1,NaN,5.050399e-01,NaN,1,0,1,1
53,216,1,25,NaN,NaN,1,NaN,2.223152e-01,NaN,1,0,1,1
53,217,1,22,NaN,NaN,1,NaN,1.240624e-04,NaN,0,0,1,1
53,218,1,47,NaN,NaN,1,NaN,3.602676e-01,NaN,2,0,1,1
53,219,1,59,NaN,NaN,1,NaN,1.240624e-04,NaN,2,0,2,1
53,220,1,117,NaN,NaN,1,NaN,8.531081e-02,NaN,2,0,3,1
53,221,1,54,NaN,NaN,1,NaN,2.272801e-01,NaN,0,1,2,1
53,222,1,75,NaN,NaN,1,NaN,4.517556e-01,NaN,0,0,2,1
53,223,1,78,NaN,NaN,1,NaN,4.273678e-01,NaN,2,0,2,1
53,224,1,93,NaN,NaN,1,NaN,1.203646e-02,NaN,1,0,2,1
53,225,1,8,NaN,NaN,2,NaN,1.806254e-01,NaN,1,1,1,1
53,226,1,97,NaN,NaN,1,NaN,4.628171e-01,NaN,0,1,3,1
53,227,1,20,NaN,NaN,1,NaN,2.771718e-01,NaN,1,1,1,1
53,228,1,65,NaN,NaN,1,NaN,2.681117e-01,NaN,0,1,2,1
53,229,1,58,NaN,NaN,1,NaN,1.228703e-01,NaN,1,0,2,1
53,230,1,113,NaN,NaN,1,NaN,2.715018e-01,NaN,0,0,3,1
53,231,1,74,NaN,NaN,1,NaN,3.420410e-01,NaN,2,0,2,1
53,232,1,124,NaN,NaN,1,NaN,2.663682e-01,NaN,0,0,3,1
53,233,1,37,NaN,NaN,1,NaN,3.206456e-01,NaN,1,0,1,1
53,234,1,85,NaN,NaN,1,NaN,2.955068e-02,NaN,1,1,2,1
53,235,1,94,NaN,NaN,1,NaN,2.778930e-01,NaN,0,0,2,1
53,236,1,67,NaN,NaN,1,NaN,2.595236e-01,NaN,2,0,2,1
53,237,1,49,NaN,NaN,1,NaN,2.352077e-01,NaN,2,0,2,1
53,238,1,26,NaN,NaN,1,NaN,3.470398e-01,NaN,0,0,1,1
53,239,1,20,NaN,NaN,1,NaN,3.426294e-01,NaN,0,1,1,1
53,240,1,50,NaN,NaN,1,NaN,1.542288e-01,NaN,2,0,2,1
53,241,1,58,NaN,NaN,1,NaN,1.276846e-04,NaN,0,0,2,1
53,242,1,64,NaN,NaN,1,NaN,2.311019e-01,NaN,1,1,2,1
53,243,1,120,NaN,NaN,1,NaN,3.113904e-01,NaN,2,0,3,1
53,244,1,115,NaN,NaN,2,NaN,1.348085e+00,NaN,0,0,3,1
53,245,1,121,NaN,NaN,1,NaN,3.596887e-01,NaN,0,0,3,1
53,246,1,51,NaN,NaN,1,NaN,3.629952e-01,NaN,0,0,2,1
53,247,1,10,NaN,NaN,1,NaN,7.758453e-02,NaN,2,0,1,1
53,248,1,73,NaN,NaN,1,NaN,2.680951e-01,NaN,0,0,2,1
53,249,1,142,NaN,NaN,1,NaN,2.425394e-01,NaN,0,0,3,1
53,250,1,116,NaN,NaN,1,NaN,2.107004e-01,NaN,2,1,3,1
53,251,1,116,NaN,NaN,1,NaN,1.267790e-04,NaN,0,1,3,1
53,252,1,67,NaN,NaN,1,NaN,2.775953e-01,NaN,0,0,2,1
53,253,1,103,NaN,NaN,1,NaN,1.279865e-04,NaN,1,0,3,1
53,254,1,12,NaN,NaN,2,NaN,3.175187e-01,NaN,0,0,1,1
53,255,1,21,NaN,NaN,1,NaN,1.470033e-04,NaN,0,1,1,1
53,256,1,35,NaN,NaN,2,NaN,4.757754e-01,NaN,0,0,1,1
53,257,1,111,NaN,NaN,1,NaN,3.467243e-01,NaN,0,0,3,1
53,258,1,143,NaN,NaN,2,NaN,2.220797e-01,NaN,0,0,3,1
53,259,1,50,NaN,NaN,1,NaN,6.488369e-03,NaN,0,0,2,1
53,260,1,78,NaN,NaN,1,NaN,2.078225e-01,NaN,0,0,2,1
53,261,1,123,NaN,NaN,1,NaN,2.894803e-01,NaN,2,1,3,1
53,262,1,4,NaN,NaN,1,NaN,3.190276e-01,NaN,0,1,1,1
53,263,1,125,NaN,NaN,1,NaN,6.118048e-01,NaN,0,1,3,1
53,264,1,40,NaN,NaN,1,NaN,3.164761e-01,NaN,1,0,1,1
53,265,1,144,NaN,NaN,1,NaN,2.892177e-01,NaN,1,0,3,1
53,266,1,99,NaN,NaN,2,NaN,2.231480e-01,NaN,2,0,3,1
53,267,1,52,NaN,NaN,1,NaN,4.322156e-01,NaN,0,0,2,1
53,268,1,131,NaN,NaN,1,NaN,6.798072e-01,NaN,1,0,3,1
53,269,1,129,NaN,NaN,1,NaN,3.424974e-01,NaN,1,0,3,1
53,270,1,18,NaN,NaN,1,NaN,4.583303e-01,NaN,2,0,1,1
53,271,1,89,NaN,NaN,1,NaN,2.417498e-01,NaN,0,1,2,1
53,272,1,99,NaN,NaN,2,NaN,2.014002e-01,NaN,0,0,3,1
53,273,1,119,NaN,NaN,1,NaN,2.829361e-01,NaN,1,1,3,1
53,274,1,108,NaN,NaN,1,NaN,2.812327e-01,NaN,0,0,3,1
53,275,1,28,NaN,NaN,1,NaN,4.472293e-01,NaN,0,1,1,1
53,276,1,46,NaN,NaN,2,NaN,3.824941e-01,NaN,0,0,1,1
53,277,1,94,NaN,NaN,1,NaN,3.286785e-01,NaN,2,0,2,1
53,278,1,143,NaN,NaN,1,NaN,9.403616e-01,NaN,2,0,3,1
53,279,1,8,NaN,NaN,1,NaN,5.365315e-01,NaN,0,1,1,1
53,280,1,72,NaN,NaN,1,NaN,5.328281e-01,NaN,2,0,2,1
53,281,1,126,NaN,NaN,2,NaN,2.727910e-01,NaN,2,0,3,1
53,282,1,14,NaN,NaN,1,NaN,3.037514e-01,NaN,1,1,1,1
53,283,1,10,NaN,NaN,1,NaN,3.725549e-01,NaN,0,0,1,1
53,284,1,127,NaN,NaN,1,NaN,2.553984e-01,NaN,0,1,3,1
53,285,1,48,NaN,NaN,1,NaN,2.066688e-01,NaN,0,1,1,1
53,286,1,84,NaN,NaN,1,NaN,3.680211e-01,NaN,2,0,2,1
53,287,1,40,NaN,NaN,1,NaN,3.550827e-01,NaN,0,0,1,1
53,288,1,23,NaN,NaN,1,NaN,3.824721e-01,NaN,0,0,1,1
53,349,2,20,4,2,0,0,3.499591e+00,NaN,1,1,1,1
53,350,2,19,18,1,1,1,9.270900e-01,NaN,1,0,1,1
53,351,2,140,3,2,1,0,1.591957e+00,NaN,1,0,3,1
53,352,2,27,60,1,1,1,1.062211e+00,NaN,1,0,1,1
53,353,2,95,26,1,1,1,7.210922e-01,NaN,1,0,2,1
53,354,2,26,14,1,1,1,7.058340e-01,NaN,1,0,1,1
53,355,2,97,69,1,1,1,9.472243e-01,NaN,1,1,3,1
53,356,2,86,15,2,2,1,1.218257e+00,NaN,1,1,2,1
53,357,2,89,39,2,1,0,9.349823e-01,NaN,1,1,2,1
53,358,2,70,25,1,1,1,9.032996e-01,NaN,1,0,2,1
53,359,2,41,7,2,2,1,1.584609e+00,NaN,1,0,1,1
53,360,2,40,52,2,2,1,9.910533e-01,NaN,1,0,1,1
53,361,2,54,66,1,1,1,1.156807e+00,NaN,1,1,2,1
53,362,2,103,67,2,2,1,8.524262e-01,NaN,1,0,3,1
53,363,2,71,56,2,2,1,7.994416e-01,NaN,1,0,2,1
53,364,2,124,72,1,1,1,9.812907e-01,NaN,1,0,3,1
53,365,2,142,35,2,1,0,1.459328e+00,NaN,1,0,3,1
53,366,2,105,58,1,1,1,1.319049e+00,NaN,1,0,3,1
53,367,2,104,31,2,2,1,1.032066e+00,NaN,1,0,3,1
53,368,2,77,10,2,1,0,9.476040e-01,NaN,1,0,2,1
53,369,2,66,55,2,2,1,7.630633e-01,NaN,1,0,2,1
53,370,2,110,21,2,2,1,9.699476e-01,NaN,1,0,3,1
53,371,2,37,23,2,2,1,1.120490e+00,NaN,1,0,1,1
53,372,2,132,70,1,1,1,1.393148e+00,NaN,1,1,3,1
53,373,3,110,21,1,1,1,9.268675e-01,NaN,1,0,3,1
53,374,3,95,26,1,1,1,6.238877e-01,NaN,1,0,2,1
53,375,3,103,67,2,2,1,7.324425e-01,NaN,1,0,3,1
53,376,3,142,35,1,1,1,1.620704e+00,NaN,1,0,3,1
53,377,3,41,7,2,1,0,1.449367e+00,NaN,1,0,1,1
53,378,3,54,66,1,1,1,5.887708e-01,NaN,1,1,2,1
53,379,3,40,52,2,2,1,6.987021e-01,NaN,1,0,1,1
53,380,3,105,58,1,1,1,1.188149e+00,NaN,1,0,3,1
53,381,3,132,70,2,2,1,9.141845e-01,NaN,1,1,3,1
53,382,3,104,31,2,2,1,8.590474e-01,NaN,1,0,3,1
53,383,3,89,39,2,2,1,8.302695e-01,NaN,1,1,2,1
53,384,3,77,10,2,2,1,7.788796e-01,NaN,1,0,2,1
53,385,3,20,4,2,2,1,7.849764e-01,NaN,1,1,1,1
53,386,3,37,23,2,2,1,1.838845e+00,NaN,1,0,1,1
53,387,3,124,72,2,2,1,7.388376e-01,NaN,1,0,3,1
53,388,3,71,56,1,1,1,6.828472e-01,NaN,1,0,2,1
53,389,3,19,18,2,2,1,7.647848e-01,NaN,1,0,1,1
53,390,3,97,69,2,2,1,1.155899e+00,NaN,1,1,3,1
53,391,3,27,60,1,1,1,1.435203e+00,NaN,1,0,1,1
53,392,3,70,25,1,1,1,7.672739e-01,NaN,1,0,2,1
53,393,3,140,3,1,1,1,1.878199e+00,NaN,1,0,3,1
53,394,3,26,14,2,2,1,9.682237e-01,NaN,1,0,1,1
53,395,3,66,55,2,2,1,8.230467e-01,NaN,1,0,2,1
53,396,3,86,15,2,2,1,1.028036e+00,NaN,1,1,2,1
53,421,2,5,49,2,2,1,1.048295e+00,NaN,1,0,1,2
53,422,2,12,22,1,1,1,1.227538e+00,NaN,1,0,1,2
53,423,2,129,63,2,2,1,1.488382e+00,NaN,1,0,3,2
53,424,2,80,32,1,1,1,6.660257e-01,NaN,1,0,2,2
53,425,2,24,59,1,1,1,9.647388e-01,NaN,1,0,1,2
53,426,2,64,13,2,2,1,6.596370e-01,NaN,1,1,2,2
53,427,2,44,54,1,1,1,1.175269e+00,NaN,1,0,1,2
53,428,2,106,12,1,1,1,9.661419e-01,NaN,1,0,3,2
53,429,2,2,62,2,2,1,1.028691e+00,NaN,1,1,1,2
53,430,2,85,34,1,1,1,6.090603e-01,NaN,1,1,2,2
53,431,2,63,1,1,2,0,9.261730e-01,NaN,1,0,2,2
53,432,2,45,6,1,1,1,1.183158e+00,NaN,1,0,1,2
53,433,2,33,33,2,2,1,1.093321e+00,NaN,1,0,1,2
53,434,2,93,9,2,2,1,1.151412e+00,NaN,1,0,2,2
53,435,2,61,11,2,2,1,7.909517e-01,NaN,1,0,2,2
53,436,2,14,24,2,2,1,1.204712e+00,NaN,1,1,1,2
53,437,2,22,45,2,1,0,1.026011e+00,NaN,1,0,1,2
53,438,2,30,37,1,1,1,8.554719e-01,NaN,1,0,1,2
53,439,2,144,8,2,2,1,1.009764e+00,NaN,1,0,3,2
53,440,2,36,17,2,2,1,8.709900e-01,NaN,1,0,1,2
53,441,2,58,42,2,2,1,8.819431e-01,NaN,1,0,2,2
53,442,2,109,40,1,1,1,8.280753e-01,NaN,1,0,3,2
53,443,2,83,51,2,2,1,1.536080e+00,NaN,1,0,2,2
53,444,2,87,16,1,1,1,1.535889e+00,NaN,1,1,2,2
53,445,3,63,1,2,2,1,6.888716e-01,NaN,1,0,2,2
53,446,3,58,42,1,1,1,6.827920e-01,NaN,1,0,2,2
53,447,3,83,51,2,2,1,5.970109e-01,NaN,1,0,2,2
53,448,3,2,62,2,2,1,9.064552e-01,NaN,1,1,1,2
53,449,3,44,54,2,2,1,1.116058e+00,NaN,1,0,1,2
53,450,3,30,37,2,2,1,6.769936e-01,NaN,1,0,1,2
53,451,3,144,8,1,1,1,1.007750e+00,NaN,1,0,3,2
53,452,3,5,49,2,2,1,1.332886e+00,NaN,1,0,1,2
53,453,3,22,45,1,1,1,1.197118e+00,NaN,1,0,1,2
53,454,3,14,24,2,2,1,1.050307e+00,NaN,1,1,1,2
53,455,3,109,40,1,1,1,6.697772e-01,NaN,1,0,3,2
53,456,3,64,13,2,2,1,5.844863e-01,NaN,1,1,2,2
53,457,3,93,9,2,2,1,6.065489e-01,NaN,1,0,2,2
53,458,3,33,33,1,1,1,7.799651e-01,NaN,1,0,1,2
53,459,3,87,16,1,1,1,7.540707e-01,NaN,1,1,2,2
53,460,3,85,34,2,2,1,5.454387e-01,NaN,1,1,2,2
53,461,3,80,32,1,1,1,5.529681e-01,NaN,1,0,2,2
53,462,3,45,6,1,2,0,1.424431e+00,NaN,1,0,1,2
53,463,3,36,17,1,1,1,1.517213e+00,NaN,1,0,1,2
53,464,3,61,11,2,2,1,8.061787e-01,NaN,1,0,2,2
53,465,3,106,12,1,1,1,9.072947e-01,NaN,1,0,3,2
53,466,3,24,59,1,1,1,1.308673e+00,NaN,1,0,1,2
53,467,3,129,63,2,2,1,1.246327e+00,NaN,1,0,3,2
53,468,3,12,22,1,1,1,2.257870e+00,NaN,1,0,1,2
53,493,2,88,2,2,2,1,1.003789e+00,NaN,1,0,2,3
53,494,2,122,38,1,1,1,8.575269e-01,NaN,1,0,3,3
53,495,2,60,50,1,1,1,1.148902e+00,NaN,1,0,2,3
53,496,2,68,28,2,2,1,9.803785e-01,NaN,1,0,2,3
53,497,2,102,29,2,2,1,1.066219e+00,NaN,1,0,3,3
53,498,2,92,43,1,1,1,7.731468e-01,NaN,1,1,2,3
53,499,2,25,27,2,2,1,1.819583e+00,NaN,1,0,1,3
53,500,2,90,53,1,1,1,1.152342e+00,NaN,1,0,2,3
53,501,2,127,46,2,2,1,1.104017e+00,NaN,1,1,3,3
53,502,2,1,71,1,1,1,1.121227e+00,NaN,1,0,1,3
53,503,2,119,47,2,2,1,1.170210e+00,NaN,1,1,3,3
53,504,2,131,41,1,1,1,7.452656e-01,NaN,1,0,3,3
53,505,2,69,48,1,1,1,1.424344e+00,NaN,1,0,2,3
53,506,2,11,65,2,2,1,1.085102e+00,NaN,1,0,1,3
53,507,2,111,61,2,2,1,1.495004e+00,NaN,1,0,3,3
53,508,2,136,19,1,1,1,7.764973e-01,NaN,1,0,3,3
53,509,2,125,57,2,2,1,1.047535e+00,NaN,1,1,3,3
53,510,2,121,20,1,1,1,1.026987e+00,NaN,1,0,3,3
53,511,2,138,44,1,1,1,9.036905e-01,NaN,1,0,3,3
53,512,2,118,64,2,2,1,1.880857e+00,NaN,1,0,3,3
53,513,2,7,68,2,2,1,1.059231e+00,NaN,1,1,1,3
53,514,2,8,30,1,1,1,7.826947e-01,NaN,1,1,1,3
53,515,2,55,36,1,1,1,9.406016e-01,NaN,1,1,2,3
53,516,2,35,5,1,1,1,1.620632e+00,NaN,1,0,1,3
53,517,3,111,61,1,1,1,1.022784e+00,NaN,1,0,3,3
53,518,3,102,29,2,2,1,7.715318e-01,NaN,1,0,3,3
53,519,3,90,53,1,2,0,1.314301e+00,NaN,1,0,2,3
53,520,3,88,2,2,2,1,7.231729e-01,NaN,1,0,2,3
53,521,3,7,68,2,2,1,7.557587e-01,NaN,1,1,1,3
53,522,3,127,46,2,2,1,8.671347e-01,NaN,1,1,3,3
53,523,3,1,71,1,1,1,8.059698e-01,NaN,1,0,1,3
53,524,3,69,48,2,2,1,9.156512e-01,NaN,1,0,2,3
53,525,3,60,50,2,2,1,6.443649e-01,NaN,1,0,2,3
53,526,3,119,47,1,1,1,1.023711e+00,NaN,1,1,3,3
53,527,3,118,64,2,2,1,1.548494e+00,NaN,1,0,3,3
53,528,3,121,20,2,2,1,9.639256e-01,NaN,1,0,3,3
53,529,3,8,30,2,2,1,8.103078e-01,NaN,1,1,1,3
53,530,3,138,44,1,1,1,8.484209e-01,NaN,1,0,3,3
53,531,3,25,27,1,1,1,1.571311e+00,NaN,1,0,1,3
53,532,3,11,65,2,2,1,7.859409e-01,NaN,1,0,1,3
53,533,3,68,28,2,2,1,5.204931e-01,NaN,1,0,2,3
53,534,3,92,43,2,2,1,1.096782e+00,NaN,1,1,2,3
53,535,3,131,41,1,1,1,7.546539e-01,NaN,1,0,3,3
53,536,3,122,38,2,2,1,1.106234e+00,NaN,1,0,3,3
53,537,3,125,57,1,1,1,1.035565e+00,NaN,1,1,3,3
53,538,3,35,5,1,1,1,7.916139e-01,NaN,1,0,1,3
53,539,3,136,19,1,1,1,7.893606e-01,NaN,1,0,3,3
53,540,3,55,36,2,2,1,8.197100e-01,NaN,1,1,2,3
53,565,4,76,69,1,1,1,7.123559e-01,NaN,2,1,2,1
53,566,4,81,35,1,1,1,1.425013e+00,NaN,2,0,2,1
53,567,4,46,8,1,1,1,1.014070e+00,NaN,2,0,1,1
53,568,4,13,10,1,1,1,1.098622e+00,NaN,2,0,1,1
53,569,4,29,72,2,2,1,1.084025e+00,NaN,2,0,1,1
53,570,4,51,17,2,2,1,9.259988e-01,NaN,2,0,2,1
53,571,4,137,14,1,1,1,1.174894e+00,NaN,2,0,3,1
53,572,4,98,2,1,1,1,1.013986e+00,NaN,2,0,3,1
53,573,4,108,9,1,1,1,8.262261e-01,NaN,2,0,3,1
53,574,4,53,37,2,1,0,9.270779e-01,NaN,2,0,2,1
53,575,4,18,48,1,1,1,1.376322e+00,NaN,2,0,1,1
53,576,4,56,71,2,2,1,7.747922e-01,NaN,2,0,2,1
53,577,4,75,61,1,1,1,7.574035e-01,NaN,2,0,2,1
53,578,4,128,59,1,1,1,1.260629e+00,NaN,2,0,3,1
53,579,4,57,22,1,1,1,1.207814e+00,NaN,2,0,2,1
53,580,4,15,42,2,1,0,1.317438e+00,NaN,2,0,1,1
53,581,4,115,55,1,1,1,1.630105e+00,NaN,2,0,3,1
53,582,4,48,46,1,1,1,1.514212e+00,NaN,2,1,1,1
53,583,4,3,36,1,1,1,1.586873e+00,NaN,2,1,1,1
53,584,4,96,70,1,1,1,7.690971e-01,NaN,2,1,2,1
53,585,4,84,3,2,2,1,1.391779e+00,NaN,2,0,2,1
53,586,4,114,15,1,1,1,1.565469e+00,NaN,2,1,3,1
53,587,4,120,54,2,2,1,1.820583e+00,NaN,2,0,3,1
53,588,4,49,5,2,2,1,9.694595e-01,NaN,2,0,2,1
53,613,4,141,4,1,1,1,9.883469e-01,NaN,2,1,3,2
53,614,4,67,49,2,2,1,1.458137e+00,NaN,2,0,2,2
53,615,4,43,41,1,1,1,1.373891e+00,NaN,2,0,1,2
53,616,4,107,56,1,1,1,1.436702e+00,NaN,2,0,3,2
53,617,4,139,7,2,2,1,8.808253e-01,NaN,2,0,3,2
53,618,4,112,32,1,1,1,1.266334e+00,NaN,2,0,3,2
53,619,4,101,53,1,1,1,9.333402e-01,NaN,2,0,3,2
53,620,4,47,19,1,1,1,1.269466e+00,NaN,2,0,1,2
53,621,4,100,13,2,2,1,1.112504e+00,NaN,2,1,3,2
53,622,4,72,45,2,2,1,6.492341e-01,NaN,2,0,2,2
53,623,4,10,51,1,1,1,1.324292e+00,NaN,2,0,1,2
53,624,4,21,34,1,1,1,1.412951e+00,NaN,2,1,1,2
53,625,4,74,31,1,1,1,1.002774e+00,NaN,2,0,2,2
53,626,4,62,24,1,1,1,1.567500e+00,NaN,2,1,2,2
53,627,4,116,39,1,1,1,1.181816e+00,NaN,2,1,3,2
53,628,4,79,44,1,1,1,1.916001e+00,NaN,2,0,2,2
53,629,4,82,29,2,2,1,1.908575e+00,NaN,2,0,2,2
53,630,4,134,33,2,2,1,1.430088e+00,NaN,2,0,3,2
53,631,4,28,57,2,2,1,1.170371e+00,NaN,2,1,1,2
53,632,4,39,38,1,1,1,1.385567e+00,NaN,2,0,1,2
53,633,4,32,12,1,1,1,1.375355e+00,NaN,2,0,1,2
53,634,4,9,1,1,1,1,1.686178e+00,NaN,2,0,1,2
53,635,4,4,16,2,2,1,9.119369e-01,NaN,2,1,1,2
53,636,4,52,52,1,1,1,1.209842e+00,NaN,2,0,2,2
53,661,4,59,60,2,2,1,1.098334e+00,NaN,2,0,2,3
53,662,4,126,6,2,2,1,1.733156e+00,NaN,2,0,3,3
53,663,4,17,43,2,2,1,2.388228e+00,NaN,2,1,1,3
53,664,4,42,58,1,1,1,1.314261e+00,NaN,2,0,1,3
53,665,4,94,20,1,1,1,1.091011e+00,NaN,2,0,2,3
53,666,4,50,23,2,2,1,8.851563e-01,NaN,2,0,2,3
53,667,4,78,64,1,1,1,1.271406e+00,NaN,2,0,2,3
53,668,4,31,21,1,1,1,1.362080e+00,NaN,2,0,1,3
53,669,4,135,18,1,1,1,8.008954e-01,NaN,2,0,3,3
53,670,4,73,67,2,1,0,1.557912e+00,NaN,2,0,2,3
53,671,4,143,27,2,2,1,9.737863e-01,NaN,2,0,3,3
53,672,4,23,50,1,1,1,1.276137e+00,NaN,2,0,1,3
53,673,4,117,28,1,1,1,8.869276e-01,NaN,2,0,3,3
53,674,4,113,25,1,1,1,1.409001e+00,NaN,2,0,3,3
53,675,4,34,40,1,2,0,1.118697e+00,NaN,2,0,1,3
53,676,4,133,62,1,1,1,1.287052e+00,NaN,2,1,3,3
53,677,4,91,47,1,1,1,9.133746e-01,NaN,2,1,2,3
53,678,4,123,30,1,1,1,1.538226e+00,NaN,2,1,3,3
53,679,4,65,68,1,1,1,1.017938e+00,NaN,2,1,2,3
53,680,4,130,65,2,2,1,1.478676e+00,NaN,2,0,3,3
53,681,4,38,63,2,2,1,1.841182e+00,NaN,2,0,1,3
53,682,4,16,26,1,1,1,2.261369e+00,NaN,2,0,1,3
53,683,4,99,11,2,2,1,1.495636e+00,NaN,2,0,3,3
53,684,4,6,66,2,2,1,1.025574e+00,NaN,2,1,1,3
53,685,5,1.054200e+02,58,3,3,1,2.630085e-01,1,1,0,3.100000e+00,1
53,686,5,3.434000e+01,33,1,1,1,5.941743e-01,1,1,0,1.300000e+00,1
53,687,5,4.239000e+01,7,1,1,1,5.957995e-01,1,1,0,1.300000e+00,1
53,688,5,2.035000e+01,18,1,1,1,6.292975e-01,1,1,0,1.300000e+00,1
53,689,5,1.242900e+02,72,3,3,1,8.621299e-01,1,1,0,3.100000e+00,1
53,690,5,2.035000e+01,18,1,1,1,6.956956e-01,2,1,0,1.300000e+00,1
53,691,5,8.898000e+01,2,2,0,0,2.500419e+00,1,1,0,2.300000e+00,1
53,692,5,1.293800e+02,63,3,0,0,2.500055e+00,1,1,0,3.100000e+00,1
53,693,5,6.917000e+01,28,2,2,1,4.212351e-01,1,1,0,2.300000e+00,1
53,694,5,5.815000e+01,42,2,2,1,8.948465e-01,1,1,0,2.100000e+00,1
53,695,5,4.239000e+01,7,1,1,1,4.562249e-01,2,1,0,1.300000e+00,1
53,696,5,1.223900e+02,38,3,3,1,5.296785e-01,1,1,0,3.100000e+00,1
53,697,5,3.651000e+01,17,1,1,1,4.751798e-01,1,1,0,1.200000e+00,1
53,698,5,1.028200e+02,29,3,3,1,1.204661e+00,1,1,0,3.200000e+00,1
53,699,5,3.549000e+01,5,1,1,1,6.380888e-01,1,1,0,1.200000e+00,1
53,700,5,8.112000e+01,32,2,2,1,3.512968e-01,1,1,0,2.300000e+00,1
53,701,5,7.113000e+01,25,2,2,1,4.485245e-01,1,1,0,2.300000e+00,1
53,702,5,7.113000e+01,25,2,2,1,3.779005e-01,2,1,0,2.300000e+00,1
53,703,5,2.737000e+01,14,1,1,1,6.513296e-01,1,1,0,1.300000e+00,1
53,704,5,6.023000e+01,50,2,2,1,4.290259e-01,1,1,0,2.100000e+00,1
53,705,5,1.230000e+01,65,1,1,1,5.105711e-01,1,1,0,1.300000e+00,1
53,706,5,6.023000e+01,50,2,2,1,3.366481e-01,2,1,0,2.100000e+00,1
53,707,5,1.063200e+02,12,3,3,1,6.416383e-01,1,1,0,3.100000e+00,1
53,708,5,8.310000e+01,51,2,2,1,3.876199e-01,1,1,0,2.100000e+00,1
53,709,5,1.047400e+02,31,3,3,1,4.530080e-01,1,1,0,3.200000e+00,1
53,710,5,1.047400e+02,31,3,3,1,5.021397e-01,2,1,0,3.200000e+00,1
53,711,5,4.520000e+01,54,1,1,1,4.555596e-01,1,1,0,1.300000e+00,1
53,712,5,1.037300e+02,67,3,3,1,1.290031e+00,1,1,0,3.200000e+00,1
53,713,5,2.759000e+01,60,1,1,1,8.104992e-01,1,1,0,1.200000e+00,1
53,714,5,7.113000e+01,25,2,2,1,3.643617e-01,3,1,0,2.300000e+00,1
53,715,5,1.408400e+02,3,3,3,1,6.540140e-01,1,1,0,3.200000e+00,1
53,716,5,6.918000e+01,48,2,2,1,1.063187e+00,1,1,0,2.100000e+00,1
53,717,5,1.560000e+00,71,1,1,1,3.286160e-01,1,1,0,1.200000e+00,1
53,718,5,4.626000e+01,6,1,1,1,4.579895e-01,1,1,0,1.300000e+00,1
53,719,5,1.314300e+02,41,3,3,1,4.918754e-01,1,1,0,3.100000e+00,1
53,720,5,1.103100e+02,21,3,0,0,2.500450e+00,1,1,0,3.100000e+00,1
53,721,5,1.293800e+02,63,3,3,1,6.551405e-01,2,1,0,3.100000e+00,1
53,722,5,1.560000e+00,71,1,1,1,5.123877e-01,2,1,0,1.200000e+00,1
53,723,5,2.272000e+01,45,1,1,1,4.340793e-01,1,1,0,1.200000e+00,1
53,724,5,3.053000e+01,37,1,2,0,4.595610e-01,1,1,0,1.200000e+00,1
53,725,5,1.560000e+00,71,1,1,1,6.215224e-01,3,1,0,1.200000e+00,1
53,726,5,6.309000e+01,1,2,2,1,3.350459e-01,1,1,0,2.100000e+00,1
53,727,5,1.219400e+02,20,3,3,1,3.614886e-01,1,1,0,3.200000e+00,1
53,728,5,9.101000e+01,53,2,3,0,1.257815e+00,1,1,0,2.300000e+00,1
53,729,5,1.117500e+02,61,3,3,1,1.098848e+00,1,1,0,3.200000e+00,1
53,730,5,1.314300e+02,41,3,3,1,4.286030e-01,2,1,0,3.100000e+00,1
53,731,5,3.053000e+01,37,1,1,1,4.783970e-01,2,1,0,1.200000e+00,1
53,732,5,5.815000e+01,42,2,2,1,3.837628e-01,2,1,0,2.100000e+00,1
53,733,5,6.309000e+01,1,2,2,1,4.249307e-01,2,1,0,2.100000e+00,1
53,734,5,6.309000e+01,1,2,2,1,3.863754e-01,3,1,0,2.100000e+00,1
53,735,5,1.037300e+02,67,3,3,1,2.833288e-01,2,1,0,3.200000e+00,1
53,736,5,1.103100e+02,21,3,2,0,4.933201e-01,2,1,0,3.100000e+00,1
53,737,5,3.053000e+01,37,1,1,1,3.669779e-01,3,1,0,1.200000e+00,1
53,738,5,6.199000e+01,11,2,2,1,4.406163e-01,1,1,0,2.300000e+00,1
53,739,5,6.199000e+01,11,2,2,1,3.459812e-01,2,1,0,2.300000e+00,1
53,740,5,4.052000e+01,52,1,1,1,6.190629e-01,1,1,0,1.200000e+00,1
53,741,5,3.651000e+01,17,1,1,1,4.445983e-01,2,1,0,1.200000e+00,1
53,742,5,4.239000e+01,7,1,1,1,3.104477e-01,3,1,0,1.300000e+00,1
53,743,5,1.387900e+02,44,3,1,0,1.512084e+00,1,1,0,3.200000e+00,1
53,744,5,1.364700e+02,19,3,3,1,4.260626e-01,1,1,0,3.100000e+00,1
53,745,5,1.387900e+02,44,3,2,0,4.766912e-01,2,1,0,3.200000e+00,1
53,746,5,3.434000e+01,33,1,1,1,4.067521e-01,2,1,0,1.300000e+00,1
53,747,5,1.054200e+02,58,3,3,1,5.677195e-01,2,1,0,3.100000e+00,1
53,748,5,4.626000e+01,6,1,1,1,3.532432e-01,2,1,0,1.300000e+00,1
53,749,5,1.560000e+00,71,1,1,1,4.270512e-01,4,1,0,1.200000e+00,1
53,750,5,8.112000e+01,32,2,2,1,3.570224e-01,2,1,0,2.300000e+00,1
53,751,5,1.117500e+02,61,3,3,1,5.663998e-01,2,1,0,3.200000e+00,1
53,752,5,1.187800e+02,64,3,3,1,7.513625e-01,1,1,0,3.200000e+00,1
53,753,5,1.408400e+02,3,3,3,1,6.330176e-01,2,1,0,3.200000e+00,1
53,754,5,1.223900e+02,38,3,3,1,3.224579e-01,2,1,0,3.100000e+00,1
53,755,5,1.028200e+02,29,3,3,1,4.037498e-01,2,1,0,3.200000e+00,1
53,756,5,6.715000e+01,55,2,2,1,4.613341e-01,1,1,0,2.300000e+00,1
53,757,5,9.516000e+01,26,2,2,1,7.109013e-01,1,1,0,2.100000e+00,1
53,758,5,1.314300e+02,41,3,3,1,5.364642e-01,3,1,0,3.100000e+00,1
53,759,5,4.239000e+01,7,1,1,1,3.694531e-01,4,1,0,1.300000e+00,1
53,760,5,3.549000e+01,5,1,1,1,5.712675e-01,2,1,0,1.200000e+00,1
53,761,5,3.750000e+01,23,1,2,0,3.243031e-01,1,1,0,1.200000e+00,1
53,762,5,1.408400e+02,3,3,0,0,2.500276e+00,3,1,0,3.200000e+00,1
53,763,5,1.428100e+02,35,3,3,1,4.480205e-01,1,1,0,3.200000e+00,1
53,764,5,6.918000e+01,48,2,2,1,3.292158e-01,2,1,0,2.100000e+00,1
53,765,5,1.387900e+02,44,3,3,1,3.551892e-01,3,1,0,3.200000e+00,1
53,766,5,7.207000e+01,56,2,2,1,3.000440e-01,1,1,0,2.300000e+00,1
53,767,5,1.242900e+02,72,3,3,1,3.094187e-01,2,1,0,3.100000e+00,1
53,768,5,7.713000e+01,10,2,1,0,8.555981e-01,1,1,0,2.100000e+00,1
53,769,5,5.670000e+00,49,1,1,1,3.609097e-01,1,1,0,1.200000e+00,1
53,770,5,2.643000e+01,27,1,1,1,4.263763e-01,1,1,0,1.300000e+00,1
53,771,5,7.207000e+01,56,2,2,1,2.923005e-01,2,1,0,2.300000e+00,1
53,772,5,4.052000e+01,52,1,1,1,3.669072e-01,2,1,0,1.200000e+00,1
53,773,5,1.187800e+02,64,3,3,1,3.279876e-01,2,1,0,3.200000e+00,1
53,774,5,4.626000e+01,6,1,1,1,4.095699e-01,3,1,0,1.300000e+00,1
53,775,5,1.257000e+01,22,1,1,1,2.910282e-01,1,1,0,1.200000e+00,1
53,776,5,1.364700e+02,19,3,3,1,4.363948e-01,2,1,0,3.100000e+00,1
53,777,5,1.063200e+02,12,3,3,1,3.581148e-01,2,1,0,3.100000e+00,1
53,778,5,3.434000e+01,33,1,1,1,4.391550e-01,3,1,0,1.300000e+00,1
53,779,5,1.093400e+02,40,3,3,1,4.646406e-01,1,1,0,3.100000e+00,1
53,780,5,3.434000e+01,33,1,1,1,3.941170e-01,4,1,0,1.300000e+00,1
53,781,5,1.257000e+01,22,1,1,1,3.398170e-01,2,1,0,1.200000e+00,1
53,782,5,1.063200e+02,12,3,3,1,3.086505e-01,3,1,0,3.100000e+00,1
53,783,5,3.549000e+01,5,1,1,1,4.629384e-01,3,1,0,1.200000e+00,1
53,784,5,2.759000e+01,60,1,1,1,6.806249e-01,2,1,0,1.200000e+00,1
53,785,5,3.750000e+01,23,1,1,1,3.060153e-01,2,1,0,1.200000e+00,1
53,786,5,1.219400e+02,20,3,3,1,4.110306e-01,2,1,0,3.200000e+00,1
53,787,5,1.223900e+02,38,3,3,1,2.703928e-01,3,1,0,3.100000e+00,1
53,788,5,2.643000e+01,27,1,1,1,7.349522e-01,2,1,0,1.300000e+00,1
53,789,5,1.117500e+02,61,3,3,1,4.560338e-01,3,1,0,3.200000e+00,1
53,790,5,8.898000e+01,2,2,2,1,6.817575e-01,2,1,0,2.300000e+00,1
53,791,5,2.272000e+01,45,1,1,1,4.111350e-01,2,1,0,1.200000e+00,1
53,792,5,8.898000e+01,2,2,2,1,2.442835e-01,3,1,0,2.300000e+00,1
53,793,5,1.219400e+02,20,3,3,1,2.378903e-01,3,1,0,3.200000e+00,1
53,794,5,9.101000e+01,53,2,2,1,3.435554e-01,2,1,0,2.300000e+00,1
53,795,5,2.759000e+01,60,1,1,1,4.094340e-01,3,1,0,1.200000e+00,1
53,796,5,8.112000e+01,32,2,2,1,4.993500e-01,3,1,0,2.300000e+00,1
53,797,5,2.643000e+01,27,1,1,1,5.489489e-01,3,1,0,1.300000e+00,1
53,798,5,1.314300e+02,41,3,3,1,3.179304e-01,4,1,0,3.100000e+00,1
53,799,5,2.737000e+01,14,1,3,0,3.679248e-01,2,1,0,1.300000e+00,1
53,800,5,1.428100e+02,35,3,3,1,5.213787e-01,2,1,0,3.200000e+00,1
53,801,5,4.520000e+01,54,1,1,1,3.143736e-01,2,1,0,1.300000e+00,1
53,802,5,2.528000e+01,59,1,0,0,2.500428e+00,1,1,0,1.300000e+00,1
53,803,5,9.408000e+01,9,2,2,1,4.699611e-01,1,1,0,2.300000e+00,1
53,804,5,7.713000e+01,10,2,2,1,5.674173e-01,2,1,0,2.100000e+00,1
53,805,5,1.242900e+02,72,3,3,1,4.408813e-01,3,1,0,3.100000e+00,1
53,806,5,8.310000e+01,51,2,2,1,4.103568e-01,2,1,0,2.100000e+00,1
53,807,5,6.715000e+01,55,2,2,1,4.124571e-01,2,1,0,2.300000e+00,1
53,808,5,9.516000e+01,26,2,2,1,3.493885e-01,2,1,0,2.100000e+00,1
53,809,5,1.230000e+01,65,1,1,1,4.229819e-01,2,1,0,1.300000e+00,1
53,810,5,5.815000e+01,42,2,2,1,2.004231e-01,3,1,0,2.100000e+00,1
53,811,5,1.364700e+02,19,3,3,1,5.300401e-01,3,1,0,3.100000e+00,1
53,812,5,1.028200e+02,29,3,3,1,2.996495e-01,3,1,0,3.200000e+00,1
53,813,5,7.207000e+01,56,2,2,1,2.766831e-01,3,1,0,2.300000e+00,1
53,814,5,2.035000e+01,18,1,1,1,3.902219e-01,3,1,0,1.300000e+00,1
53,815,5,8.310000e+01,51,2,2,1,4.315132e-01,3,1,0,2.100000e+00,1
53,816,5,1.054200e+02,58,3,3,1,2.888808e-01,3,1,0,3.100000e+00,1
53,817,5,1.444600e+02,8,3,3,1,3.063434e-01,1,1,0,3.100000e+00,1
53,818,5,6.918000e+01,48,2,2,1,3.801076e-01,3,1,0,2.100000e+00,1
53,819,5,1.428100e+02,35,3,3,1,3.172370e-01,3,1,0,3.200000e+00,1
53,820,5,2.759000e+01,60,1,1,1,3.347757e-01,4,1,0,1.200000e+00,1
53,821,5,6.715000e+01,55,2,2,1,3.602130e-01,3,1,0,2.300000e+00,1
53,822,5,3.651000e+01,17,1,1,1,4.741725e-01,3,1,0,1.200000e+00,1
53,823,5,1.387900e+02,44,3,3,1,3.317523e-01,4,1,0,3.200000e+00,1
53,824,5,3.750000e+01,23,1,2,0,3.892572e-01,3,1,0,1.200000e+00,1
53,825,5,1.093400e+02,40,3,3,1,4.548200e-01,2,1,0,3.100000e+00,1
53,826,5,6.309000e+01,1,2,2,1,4.158835e-01,4,1,0,2.100000e+00,1
53,827,5,1.444600e+02,8,3,3,1,4.576279e-01,2,1,0,3.100000e+00,1
53,828,5,8.898000e+01,2,2,2,1,4.030245e-01,4,1,0,2.300000e+00,1
53,829,5,4.052000e+01,52,1,1,1,3.964812e-01,3,1,0,1.200000e+00,1
53,830,5,1.257000e+01,22,1,0,0,2.500247e+00,3,1,0,1.200000e+00,1
53,831,5,1.063200e+02,12,3,3,1,3.997336e-01,4,1,0,3.100000e+00,1
53,832,5,1.103100e+02,21,3,1,0,4.733494e-01,3,1,0,3.100000e+00,1
53,833,5,6.917000e+01,28,2,2,1,3.704435e-01,2,1,0,2.300000e+00,1
53,834,5,1.037300e+02,67,3,3,1,3.719965e-01,3,1,0,3.200000e+00,1
53,835,5,1.028200e+02,29,3,3,1,3.976412e-01,4,1,0,3.200000e+00,1
53,836,5,2.643000e+01,27,1,1,1,3.186624e-01,4,1,0,1.300000e+00,1
53,837,5,1.047400e+02,31,3,3,1,3.283311e-01,3,1,0,3.200000e+00,1
53,838,5,1.037300e+02,67,3,3,1,2.979944e-01,4,1,0,3.200000e+00,1
53,839,5,3.750000e+01,23,1,3,0,3.313487e-01,4,1,0,1.200000e+00,1
53,840,5,1.444600e+02,8,3,3,1,4.524139e-01,3,1,0,3.100000e+00,1
53,841,5,2.272000e+01,45,1,1,1,4.780586e-01,3,1,0,1.200000e+00,1
53,842,5,5.670000e+00,49,1,1,1,3.514728e-01,2,1,0,1.200000e+00,1
53,843,5,9.408000e+01,9,2,2,1,1.168974e+00,2,1,0,2.300000e+00,1
53,844,5,7.113000e+01,25,2,2,1,4.019224e-01,4,1,0,2.300000e+00,1
53,845,5,9.101000e+01,53,2,2,1,5.876660e-01,3,1,0,2.300000e+00,1
53,846,5,5.815000e+01,42,2,2,1,3.010190e-01,4,1,0,2.100000e+00,1
53,847,5,6.715000e+01,55,2,2,1,3.264279e-01,4,1,0,2.300000e+00,1
53,848,5,4.520000e+01,54,1,1,1,4.327928e-01,3,1,0,1.300000e+00,1
53,849,5,6.917000e+01,28,2,2,1,4.016036e-01,3,1,0,2.300000e+00,1
53,850,5,9.516000e+01,26,2,2,1,3.395616e-01,3,1,0,2.100000e+00,1
53,851,5,2.528000e+01,59,1,3,0,6.368267e-01,2,1,0,1.300000e+00,1
53,852,5,1.293800e+02,63,3,3,1,6.538891e-01,3,1,0,3.100000e+00,1
53,853,5,1.093400e+02,40,3,3,1,5.757156e-01,3,1,0,3.100000e+00,1
53,854,5,1.187800e+02,64,3,3,1,3.536845e-01,3,1,0,3.200000e+00,1
53,855,5,1.093400e+02,40,3,3,1,3.469730e-01,4,1,0,3.100000e+00,1
53,856,5,2.737000e+01,14,1,1,1,3.565207e-01,3,1,0,1.300000e+00,1
53,857,5,1.230000e+01,65,1,1,1,4.540597e-01,3,1,0,1.300000e+00,1
53,858,5,1.054200e+02,58,3,3,1,3.364302e-01,4,1,0,3.100000e+00,1
53,859,5,1.187800e+02,64,3,3,1,2.964767e-01,4,1,0,3.200000e+00,1
53,860,5,1.364700e+02,19,3,3,1,2.663464e-01,4,1,0,3.100000e+00,1
53,861,5,6.199000e+01,11,2,2,1,3.315045e-01,3,1,0,2.300000e+00,1
53,862,5,1.103100e+02,21,3,1,0,4.851504e-01,4,1,0,3.100000e+00,1
53,863,5,4.052000e+01,52,1,1,1,3.105358e-01,4,1,0,1.200000e+00,1
53,864,5,3.651000e+01,17,1,1,1,4.083024e-01,4,1,0,1.200000e+00,1
53,865,5,6.023000e+01,50,2,2,1,3.779690e-01,3,1,0,2.100000e+00,1
53,866,5,6.023000e+01,50,2,2,1,2.752834e-01,4,1,0,2.100000e+00,1
53,867,5,2.528000e+01,59,1,1,1,5.895457e-01,3,1,0,1.300000e+00,1
53,868,5,6.918000e+01,48,2,2,1,2.707589e-01,4,1,0,2.100000e+00,1
53,869,5,9.408000e+01,9,2,2,1,2.881738e-01,3,1,0,2.300000e+00,1
53,870,5,1.219400e+02,20,3,3,1,3.536042e-01,4,1,0,3.200000e+00,1
53,871,5,2.272000e+01,45,1,1,1,3.792594e-01,4,1,0,1.200000e+00,1
53,872,5,1.242900e+02,72,3,3,1,3.643252e-01,4,1,0,3.100000e+00,1
53,873,5,5.670000e+00,49,1,1,1,3.498546e-01,3,1,0,1.200000e+00,1
53,874,5,1.257000e+01,22,1,1,1,2.954277e-01,4,1,0,1.200000e+00,1
53,875,5,6.199000e+01,11,2,2,1,2.968908e-01,4,1,0,2.300000e+00,1
53,876,5,1.428100e+02,35,3,3,1,3.220640e-01,4,1,0,3.200000e+00,1
53,877,5,5.670000e+00,49,1,1,1,3.475846e-01,4,1,0,1.200000e+00,1
53,878,5,1.408400e+02,3,3,3,1,2.610643e-01,4,1,0,3.200000e+00,1
53,879,5,8.112000e+01,32,2,2,1,2.783485e-01,4,1,0,2.300000e+00,1
53,880,5,1.117500e+02,61,3,3,1,1.088073e+00,4,1,0,3.200000e+00,1
53,881,5,7.713000e+01,10,2,2,1,1.464600e-03,3,1,0,2.100000e+00,1
53,882,5,7.207000e+01,56,2,2,1,5.466720e-01,4,1,0,2.300000e+00,1
53,883,5,1.444600e+02,8,3,3,1,3.239494e-01,4,1,0,3.100000e+00,1
53,884,5,1.223900e+02,38,3,3,1,4.215176e-01,4,1,0,3.100000e+00,1
53,885,5,6.917000e+01,28,2,2,1,3.349212e-01,4,1,0,2.300000e+00,1
53,886,5,1.230000e+01,65,1,1,1,4.645693e-01,4,1,0,1.300000e+00,1
53,887,5,9.101000e+01,53,2,2,1,2.417443e-01,4,1,0,2.300000e+00,1
53,888,5,3.053000e+01,37,1,1,1,3.471291e-01,4,1,0,1.200000e+00,1
53,889,5,8.310000e+01,51,2,2,1,1.244976e-01,4,1,0,2.100000e+00,1
53,890,5,9.408000e+01,9,2,2,1,3.981797e-01,4,1,0,2.300000e+00,1
53,891,5,1.293800e+02,63,3,3,1,3.357848e-01,4,1,0,3.100000e+00,1
53,892,5,1.047400e+02,31,3,0,0,2.500054e+00,4,1,0,3.200000e+00,1
53,893,5,4.626000e+01,6,1,1,1,2.911996e-01,4,1,0,1.300000e+00,1
53,894,5,9.516000e+01,26,2,2,1,3.005918e-01,4,1,0,2.100000e+00,1
53,895,5,2.035000e+01,18,1,1,1,3.178996e-01,4,1,0,1.300000e+00,1
53,896,5,3.549000e+01,5,1,1,1,3.514357e-01,4,1,0,1.200000e+00,1
53,897,5,7.713000e+01,10,2,1,0,3.604427e-01,4,1,0,2.100000e+00,1
53,898,5,4.520000e+01,54,1,1,1,3.386192e-01,4,1,0,1.300000e+00,1
53,899,5,2.528000e+01,59,1,1,1,3.481563e-01,4,1,0,1.300000e+00,1
53,900,5,2.737000e+01,14,1,1,1,3.098597e-01,4,1,0,1.300000e+00,1
53,901,6,133,62,2,2,1,9.543879e-01,NaN,2,1,3,1
53,902,6,43,41,1,1,1,1.035404e+00,NaN,2,0,1,1
53,903,6,52,52,2,2,1,8.081981e-01,NaN,2,0,2,1
53,904,6,67,49,1,1,1,1.117956e+00,NaN,2,0,2,1
53,905,6,115,55,2,2,1,1.783690e+00,NaN,2,0,3,1
53,906,6,134,33,2,2,1,1.061942e+00,NaN,2,0,3,1
53,907,6,48,46,1,1,1,1.049804e+00,NaN,2,1,1,1
53,908,6,126,6,2,2,1,1.541783e+00,NaN,2,0,3,1
53,909,6,91,47,2,2,1,7.663592e-01,NaN,2,1,2,1
53,910,6,107,56,1,1,1,7.655225e-01,NaN,2,0,3,1
53,911,6,18,48,1,2,0,1.221196e+00,NaN,2,0,1,1
53,912,6,6,66,2,2,1,1.986486e+00,NaN,2,1,1,1
53,913,6,139,7,1,1,1,9.292639e-01,NaN,2,0,3,1
53,914,6,29,72,1,1,1,1.297425e+00,NaN,2,0,1,1
53,915,6,101,53,1,1,1,9.237454e-01,NaN,2,0,3,1
53,916,6,34,40,2,1,0,1.445011e+00,NaN,2,0,1,1
53,917,6,10,51,2,2,1,1.673265e+00,NaN,2,0,1,1
53,918,6,112,32,1,1,1,9.087318e-01,NaN,2,0,3,1
53,919,6,57,22,1,1,1,9.746022e-01,NaN,2,0,2,1
53,920,6,23,50,1,1,1,1.621813e+00,NaN,2,0,1,1
53,921,6,114,15,2,2,1,1.107356e+00,NaN,2,1,3,1
53,922,6,42,58,1,2,0,1.293357e+00,NaN,2,0,1,1
53,923,6,117,28,1,1,1,2.288192e+00,NaN,2,0,3,1
53,924,6,113,25,1,1,1,1.506521e+00,NaN,2,0,3,1
53,925,6,96,70,1,1,1,7.817623e-01,NaN,2,1,2,1
53,926,6,79,44,2,2,1,1.339335e+00,NaN,2,0,2,1
53,927,6,81,35,2,2,1,1.228275e+00,NaN,2,0,2,1
53,928,6,141,4,2,2,1,1.593654e+00,NaN,2,1,3,1
53,929,6,4,16,2,1,0,2.984019e+00,NaN,2,1,1,1
53,930,6,75,61,2,2,1,9.668929e-01,NaN,2,0,2,1
53,931,6,78,64,2,2,1,1.166432e+00,NaN,2,0,2,1
53,932,6,99,11,1,1,1,1.245817e+00,NaN,2,0,3,1
53,933,6,53,37,1,2,0,1.129963e+00,NaN,2,0,2,1
53,934,6,74,31,1,1,1,7.625133e-01,NaN,2,0,2,1
53,935,6,123,30,2,2,1,1.425651e+00,NaN,2,1,3,1
53,936,6,56,71,2,2,1,7.833703e-01,NaN,2,0,2,1
53,937,6,137,14,1,1,1,1.805807e+00,NaN,2,0,3,1
53,938,6,116,39,2,2,1,2.011969e+00,NaN,2,1,3,1
53,939,6,84,3,2,2,1,1.105304e+00,NaN,2,0,2,1
53,940,6,38,63,1,1,1,1.203623e+00,NaN,2,0,1,1
53,941,6,51,17,1,1,1,1.913480e+00,NaN,2,0,2,1
53,942,6,62,24,2,2,1,1.778640e+00,NaN,2,1,2,1
53,943,6,39,38,1,1,1,2.033071e+00,NaN,2,0,1,1
53,944,6,21,34,1,0,0,3.500059e+00,NaN,2,1,1,1
53,945,6,135,18,2,2,1,9.441095e-01,NaN,2,0,3,1
53,946,6,82,29,1,1,1,1.208810e+00,NaN,2,0,2,1
53,947,6,16,26,1,1,1,1.142921e+00,NaN,2,0,1,1
53,948,6,49,5,2,2,1,7.517208e-01,NaN,2,0,2,1
53,949,6,72,45,1,1,1,1.015356e+00,NaN,2,0,2,1
53,950,6,32,12,1,1,1,9.171499e-01,NaN,2,0,1,1
53,951,6,28,57,2,2,1,1.062146e+00,NaN,2,1,1,1
53,952,6,59,60,1,1,1,1.145848e+00,NaN,2,0,2,1
53,953,6,100,13,1,1,1,1.441459e+00,NaN,2,1,3,1
53,954,6,128,59,2,1,0,1.574295e+00,NaN,2,0,3,1
53,955,6,46,8,1,1,1,1.325553e+00,NaN,2,0,1,1
53,956,6,13,10,1,1,1,1.078950e+00,NaN,2,0,1,1
53,957,6,108,9,1,1,1,1.113939e+00,NaN,2,0,3,1
53,958,6,47,19,1,1,1,1.347149e+00,NaN,2,0,1,1
53,959,6,76,69,2,2,1,1.051215e+00,NaN,2,1,2,1
53,960,6,130,65,2,2,1,2.126951e+00,NaN,2,0,3,1
53,961,6,9,1,2,2,1,2.104486e+00,NaN,2,0,1,1
53,962,6,31,21,1,1,1,1.298471e+00,NaN,2,0,1,1
53,963,6,17,43,1,2,0,2.436306e+00,NaN,2,1,1,1
53,964,6,94,20,1,1,1,9.135624e-01,NaN,2,0,2,1
53,965,6,15,42,2,2,1,1.851963e+00,NaN,2,0,1,1
53,966,6,120,54,2,2,1,1.398896e+00,NaN,2,0,3,1
53,967,6,143,27,2,2,1,9.168544e-01,NaN,2,0,3,1
53,968,6,73,67,2,2,1,1.222160e+00,NaN,2,0,2,1
53,969,6,98,2,1,1,1,1.779202e+00,NaN,2,0,3,1
53,970,6,3,36,1,2,0,1.177883e+00,NaN,2,1,1,1
53,971,6,65,68,1,1,1,7.849532e-01,NaN,2,1,2,1
53,972,6,50,23,2,2,1,7.440033e-01,NaN,2,0,2,1
53,973,6,12,22,2,2,1,1.032101e+00,NaN,1,0,1,1
53,974,6,26,14,2,1,0,8.927332e-01,NaN,1,0,1,1
53,975,6,110,21,1,1,1,2.983472e+00,NaN,1,0,3,1
53,976,6,140,3,2,2,1,1.694692e+00,NaN,1,0,3,1
53,977,6,66,55,2,2,1,1.184974e+00,NaN,1,0,2,1
53,978,6,33,33,1,1,1,8.475316e-01,NaN,1,0,1,1
53,979,6,24,59,1,1,1,9.240648e-01,NaN,1,0,1,1
53,980,6,83,51,2,2,1,8.850652e-01,NaN,1,0,2,1
53,981,6,45,6,1,1,1,2.487751e+00,NaN,1,0,1,1
53,982,6,8,30,2,2,1,1.178882e+00,NaN,1,1,1,1
53,983,6,5,49,1,1,1,1.369342e+00,NaN,1,0,1,1
53,984,6,92,43,2,2,1,9.044071e-01,NaN,1,1,2,1
53,985,6,142,35,2,2,1,1.898654e+00,NaN,1,0,3,1
53,986,6,1,71,1,1,1,7.650957e-01,NaN,1,0,1,1
53,987,6,118,64,1,2,0,1.251859e+00,NaN,1,0,3,1
53,988,6,89,39,2,2,1,1.031936e+00,NaN,1,1,2,1
53,989,6,111,61,1,1,1,1.284899e+00,NaN,1,0,3,1
53,990,6,136,19,2,2,1,9.597063e-01,NaN,1,0,3,1
53,991,6,125,57,1,1,1,1.207452e+00,NaN,1,1,3,1
53,992,6,41,7,2,2,1,1.509283e+00,NaN,1,0,1,1
53,993,6,85,34,2,2,1,6.634005e-01,NaN,1,1,2,1
53,994,6,131,41,1,1,1,7.546563e-01,NaN,1,0,3,1
53,995,6,40,52,2,2,1,2.290704e+00,NaN,1,0,1,1
53,996,6,102,29,1,2,0,7.974144e-01,NaN,1,0,3,1
53,997,6,77,10,1,1,1,1.499450e+00,NaN,1,0,2,1
53,998,6,88,2,2,2,1,6.780773e-01,NaN,1,0,2,1
53,999,6,70,25,1,1,1,8.252152e-01,NaN,1,0,2,1
53,1000,6,71,56,1,1,1,7.182092e-01,NaN,1,0,2,1
53,1001,6,22,45,1,1,1,1.543494e+00,NaN,1,0,1,1
53,1002,6,54,66,2,2,1,9.858503e-01,NaN,1,1,2,1
53,1003,6,11,65,1,1,1,9.753044e-01,NaN,1,0,1,1
53,1004,6,37,23,1,1,1,1.142265e+00,NaN,1,0,1,1
53,1005,6,122,38,1,1,1,1.143058e+00,NaN,1,0,3,1
53,1006,6,119,47,2,2,1,1.464066e+00,NaN,1,1,3,1
53,1007,6,64,13,2,2,1,1.011477e+00,NaN,1,1,2,1
53,1008,6,97,69,2,2,1,1.505580e+00,NaN,1,1,3,1
53,1009,6,104,31,1,1,1,1.323185e+00,NaN,1,0,3,1
53,1010,6,144,8,2,2,1,9.247932e-01,NaN,1,0,3,1
53,1011,6,129,63,2,2,1,1.990318e+00,NaN,1,0,3,1
53,1012,6,7,68,2,2,1,1.156710e+00,NaN,1,1,1,1
53,1013,6,2,62,1,1,1,1.004865e+00,NaN,1,1,1,1
53,1014,6,106,12,2,2,1,1.019165e+00,NaN,1,0,3,1
53,1015,6,55,36,2,2,1,1.055931e+00,NaN,1,1,2,1
53,1016,6,19,18,2,2,1,1.780521e+00,NaN,1,0,1,1
53,1017,6,36,17,1,1,1,1.131833e+00,NaN,1,0,1,1
53,1018,6,80,32,1,1,1,6.994679e-01,NaN,1,0,2,1
53,1019,6,61,11,2,2,1,6.537734e-01,NaN,1,0,2,1
53,1020,6,124,72,2,2,1,9.216566e-01,NaN,1,0,3,1
53,1021,6,58,42,1,1,1,9.949901e-01,NaN,1,0,2,1
53,1022,6,35,5,1,1,1,1.041245e+00,NaN,1,0,1,1
53,1023,6,87,16,1,1,1,1.253882e+00,NaN,1,1,2,1
53,1024,6,95,26,1,1,1,1.401944e+00,NaN,1,0,2,1
53,1025,6,30,37,1,1,1,1.103668e+00,NaN,1,0,1,1
53,1026,6,93,9,2,2,1,9.218039e-01,NaN,1,0,2,1
53,1027,6,44,54,2,2,1,1.603025e+00,NaN,1,0,1,1
53,1028,6,27,60,1,1,1,1.489270e+00,NaN,1,0,1,1
53,1029,6,60,50,2,2,1,7.636758e-01,NaN,1,0,2,1
53,1030,6,14,24,1,1,1,1.083287e+00,NaN,1,1,1,1
53,1031,6,68,28,2,2,1,6.860653e-01,NaN,1,0,2,1
53,1032,6,105,58,2,2,1,1.712922e+00,NaN,1,0,3,1
53,1033,6,132,70,1,1,1,1.497787e+00,NaN,1,1,3,1
53,1034,6,121,20,1,1,1,1.021098e+00,NaN,1,0,3,1
53,1035,6,109,40,1,1,1,1.257519e+00,NaN,1,0,3,1
53,1036,6,103,67,2,2,1,9.254141e-01,NaN,1,0,3,1
53,1037,6,63,1,1,2,0,1.222936e+00,NaN,1,0,2,1
53,1038,6,86,15,1,1,1,1.268171e+00,NaN,1,1,2,1
53,1039,6,20,4,2,2,1,1.295222e+00,NaN,1,1,1,1
53,1040,6,90,53,2,1,0,1.193439e+00,NaN,1,0,2,1
53,1041,6,25,27,1,1,1,1.984422e+00,NaN,1,0,1,1
53,1042,6,69,48,1,1,1,1.119079e+00,NaN,1,0,2,1
53,1043,6,138,44,1,1,1,9.442347e-01,NaN,1,0,3,1
53,1044,6,127,46,1,1,1,1.953332e+00,NaN,1,1,3,1
