Subject,Trial,Cond,ImageNum,CueNum,Correct,Resp,Accuracy,RT,CueRep,ImageType,Baseline,Category,Block
39,1,1,122,NaN,NaN,2,NaN,4.220377e+00,NaN,1,0,3,1
39,2,1,70,NaN,NaN,1,NaN,2.991614e+00,NaN,0,0,2,1
39,3,1,27,NaN,NaN,1,NaN,1.129796e+00,NaN,0,0,1,1
39,4,1,129,NaN,NaN,2,NaN,3.773659e+00,NaN,0,0,3,1
39,5,1,91,NaN,NaN,1,NaN,1.560570e+00,NaN,0,1,2,1
39,6,1,41,NaN,NaN,1,NaN,8.931256e+00,NaN,1,0,1,1
39,7,1,3,NaN,NaN,2,NaN,1.072096e+00,NaN,0,0,1,1
39,8,1,130,NaN,NaN,2,NaN,4.102618e+00,NaN,0,0,3,1
39,9,1,137,NaN,NaN,1,NaN,7.720513e-01,NaN,2,1,3,1
39,10,1,24,NaN,NaN,2,NaN,2.758535e+00,NaN,1,1,1,1
39,11,1,75,NaN,NaN,1,NaN,3.404530e-02,NaN,0,0,2,1
39,12,1,10,NaN,NaN,1,NaN,1.794456e+00,NaN,2,0,1,1
39,13,1,11,NaN,NaN,1,NaN,5.411210e+00,NaN,0,0,1,1
39,14,1,57,NaN,NaN,1,NaN,9.402491e-01,NaN,2,0,2,1
39,15,1,122,NaN,NaN,0,NaN,9.995172e+00,NaN,0,0,3,1
39,16,1,105,NaN,NaN,1,NaN,1.561730e+00,NaN,2,0,3,1
39,17,1,48,NaN,NaN,1,NaN,1.297941e-04,NaN,2,0,1,1
39,18,1,66,NaN,NaN,1,NaN,5.099976e-01,NaN,1,0,2,1
39,19,1,26,NaN,NaN,1,NaN,1.051155e+00,NaN,2,1,1,1
39,20,1,66,NaN,NaN,1,NaN,7.786893e-01,NaN,0,0,2,1
39,21,1,19,NaN,NaN,2,NaN,9.289576e-02,NaN,0,0,1,1
39,22,1,48,NaN,NaN,1,NaN,1.962090e+00,NaN,0,0,1,1
39,23,1,13,NaN,NaN,2,NaN,2.972761e+00,NaN,1,0,1,1
39,24,1,141,NaN,NaN,1,NaN,1.767380e+00,NaN,1,0,3,1
39,25,1,65,NaN,NaN,1,NaN,1.482310e+00,NaN,2,0,2,1
39,26,1,12,NaN,NaN,1,NaN,1.376263e+00,NaN,1,0,1,1
39,27,1,17,NaN,NaN,1,NaN,4.866774e+00,NaN,2,0,1,1
39,28,1,110,NaN,NaN,2,NaN,3.459587e-01,NaN,0,0,3,1
39,29,1,115,NaN,NaN,2,NaN,3.205156e+00,NaN,2,1,3,1
39,30,1,63,NaN,NaN,1,NaN,8.306727e-01,NaN,2,0,2,1
39,31,1,81,NaN,NaN,1,NaN,1.031660e+00,NaN,0,0,2,1
39,32,1,50,NaN,NaN,1,NaN,7.509779e-01,NaN,0,0,2,1
39,33,1,83,NaN,NaN,1,NaN,4.419786e-01,NaN,0,0,2,1
39,34,1,44,NaN,NaN,2,NaN,2.314076e+00,NaN,1,0,1,1
39,35,1,121,NaN,NaN,1,NaN,1.847079e+00,NaN,1,1,3,1
39,36,1,116,NaN,NaN,1,NaN,1.478405e+00,NaN,1,0,3,1
39,37,1,24,NaN,NaN,2,NaN,1.132212e+00,NaN,0,1,1,1
39,38,1,128,NaN,NaN,2,NaN,1.336102e+00,NaN,2,0,3,1
39,39,1,111,NaN,NaN,1,NaN,9.475375e-01,NaN,0,0,3,1
39,40,1,115,NaN,NaN,2,NaN,5.193600e-01,NaN,0,1,3,1
39,41,1,32,NaN,NaN,2,NaN,8.436246e-01,NaN,1,1,1,1
39,42,1,60,NaN,NaN,1,NaN,5.801782e-01,NaN,1,1,2,1
39,43,1,4,NaN,NaN,1,NaN,1.374053e+00,NaN,2,0,1,1
39,44,1,92,NaN,NaN,1,NaN,1.040884e+00,NaN,0,1,2,1
39,45,1,74,NaN,NaN,1,NaN,1.360458e+00,NaN,2,0,2,1
39,46,1,36,NaN,NaN,1,NaN,1.836057e+00,NaN,2,0,1,1
39,47,1,124,NaN,NaN,1,NaN,1.259894e+00,NaN,0,0,3,1
39,48,1,135,NaN,NaN,1,NaN,2.299466e+00,NaN,1,0,3,1
39,49,1,144,NaN,NaN,1,NaN,1.632674e+00,NaN,2,0,3,1
39,50,1,27,NaN,NaN,1,NaN,8.009686e-01,NaN,1,0,1,1
39,51,1,46,NaN,NaN,2,NaN,8.663963e-01,NaN,2,0,1,1
39,52,1,69,NaN,NaN,1,NaN,8.809233e-01,NaN,0,0,2,1
39,53,1,119,NaN,NaN,2,NaN,3.272780e-01,NaN,0,0,3,1
39,54,1,57,NaN,NaN,1,NaN,5.239417e-01,NaN,0,0,2,1
39,55,1,28,NaN,NaN,1,NaN,2.560088e+00,NaN,2,0,1,1
39,56,1,85,NaN,NaN,1,NaN,1.011925e+00,NaN,0,0,2,1
39,57,1,15,NaN,NaN,2,NaN,7.966177e-01,NaN,2,0,1,1
39,58,1,108,NaN,NaN,2,NaN,1.134016e+00,NaN,1,0,3,1
39,59,1,10,NaN,NaN,1,NaN,5.778262e-01,NaN,0,0,1,1
39,60,1,94,NaN,NaN,1,NaN,7.245470e-01,NaN,0,0,2,1
39,61,1,45,NaN,NaN,1,NaN,1.257512e+00,NaN,2,1,1,1
39,62,1,49,NaN,NaN,1,NaN,5.126303e-01,NaN,0,0,2,1
39,63,1,91,NaN,NaN,1,NaN,1.736986e-01,NaN,2,1,2,1
39,64,1,55,NaN,NaN,1,NaN,1.104022e+00,NaN,0,1,2,1
39,65,1,89,NaN,NaN,1,NaN,1.653619e+00,NaN,0,1,2,1
39,66,1,100,NaN,NaN,2,NaN,2.916820e+00,NaN,1,0,3,1
39,67,1,25,NaN,NaN,1,NaN,6.815876e-01,NaN,0,0,1,1
39,68,1,139,NaN,NaN,1,NaN,1.431803e+00,NaN,0,0,3,1
39,69,1,88,NaN,NaN,1,NaN,1.391570e+00,NaN,2,0,2,1
39,70,1,13,NaN,NaN,2,NaN,7.537709e-01,NaN,0,0,1,1
39,71,1,128,NaN,NaN,2,NaN,2.116240e+00,NaN,0,0,3,1
39,72,1,71,NaN,NaN,1,NaN,9.376173e-01,NaN,1,0,2,1
39,73,1,104,NaN,NaN,2,NaN,1.133119e+00,NaN,1,0,3,1
39,74,1,64,NaN,NaN,1,NaN,5.696613e-01,NaN,1,0,2,1
39,75,1,34,NaN,NaN,1,NaN,1.179955e+00,NaN,0,0,1,1
39,76,1,99,NaN,NaN,2,NaN,1.318068e+00,NaN,0,0,3,1
39,77,1,117,NaN,NaN,2,NaN,9.467171e-01,NaN,0,0,3,1
39,78,1,120,NaN,NaN,1,NaN,1.774093e+00,NaN,0,0,3,1
39,79,1,51,NaN,NaN,1,NaN,4.573217e-01,NaN,1,1,2,1
39,80,1,11,NaN,NaN,1,NaN,6.458767e-02,NaN,1,0,1,1
39,81,1,77,NaN,NaN,1,NaN,2.015210e+00,NaN,0,0,2,1
39,82,1,32,NaN,NaN,2,NaN,6.717670e-01,NaN,0,1,1,1
39,83,1,126,NaN,NaN,2,NaN,2.246544e+00,NaN,0,1,3,1
39,84,1,121,NaN,NaN,1,NaN,1.829611e+00,NaN,0,1,3,1
39,85,1,110,NaN,NaN,1,NaN,2.965762e+00,NaN,2,0,3,1
39,86,1,31,NaN,NaN,1,NaN,6.243927e-01,NaN,2,1,1,1
39,87,1,58,NaN,NaN,1,NaN,1.025352e+00,NaN,2,0,2,1
39,88,1,67,NaN,NaN,1,NaN,3.781428e-01,NaN,0,0,2,1
39,89,1,44,NaN,NaN,2,NaN,1.068055e+00,NaN,0,0,1,1
39,90,1,36,NaN,NaN,1,NaN,4.187348e-01,NaN,0,0,1,1
39,91,1,53,NaN,NaN,1,NaN,1.059536e+00,NaN,0,0,2,1
39,92,1,56,NaN,NaN,1,NaN,1.163154e+00,NaN,0,0,2,1
39,93,1,76,NaN,NaN,1,NaN,3.077392e+00,NaN,0,0,2,1
39,94,1,77,NaN,NaN,1,NaN,4.599611e-01,NaN,1,0,2,1
39,95,1,98,NaN,NaN,2,NaN,6.196939e-01,NaN,0,0,3,1
39,96,1,83,NaN,NaN,1,NaN,2.766332e-01,NaN,1,0,2,1
39,97,1,106,NaN,NaN,1,NaN,3.874997e+00,NaN,2,0,3,1
39,98,1,39,NaN,NaN,2,NaN,6.016978e-01,NaN,2,0,1,1
39,99,1,69,NaN,NaN,1,NaN,4.435240e-01,NaN,2,0,2,1
39,100,1,96,NaN,NaN,1,NaN,4.113136e-01,NaN,2,1,2,1
39,101,1,96,NaN,NaN,1,NaN,5.718605e-01,NaN,0,1,2,1
39,102,1,28,NaN,NaN,1,NaN,1.668217e-01,NaN,0,0,1,1
39,103,1,134,NaN,NaN,2,NaN,7.772359e-01,NaN,2,0,3,1
39,104,1,5,NaN,NaN,1,NaN,4.198870e-01,NaN,0,0,1,1
39,105,1,20,NaN,NaN,1,NaN,1.708724e+00,NaN,1,1,1,1
39,106,1,73,NaN,NaN,1,NaN,7.302447e-01,NaN,0,0,2,1
39,107,1,4,NaN,NaN,1,NaN,6.381539e-01,NaN,0,0,1,1
39,108,1,34,NaN,NaN,1,NaN,1.254285e+00,NaN,1,0,1,1
39,109,1,23,NaN,NaN,1,NaN,1.309733e+00,NaN,2,1,1,1
39,110,1,59,NaN,NaN,1,NaN,8.753484e-01,NaN,1,0,2,1
39,111,1,29,NaN,NaN,1,NaN,3.540717e-01,NaN,0,1,1,1
39,112,1,113,NaN,NaN,1,NaN,2.050545e-01,NaN,0,1,3,1
39,113,1,80,NaN,NaN,1,NaN,8.064181e-01,NaN,2,0,2,1
39,114,1,103,NaN,NaN,2,NaN,1.998455e-01,NaN,0,1,3,1
39,115,1,140,NaN,NaN,1,NaN,7.771314e-01,NaN,0,0,3,1
39,116,1,22,NaN,NaN,2,NaN,3.400657e-01,NaN,0,0,1,1
39,117,1,127,NaN,NaN,1,NaN,1.352065e+00,NaN,0,0,3,1
39,118,1,20,NaN,NaN,1,NaN,2.467358e+00,NaN,0,1,1,1
39,119,1,142,NaN,NaN,2,NaN,1.074305e+00,NaN,0,1,3,1
39,120,1,21,NaN,NaN,2,NaN,6.726242e-01,NaN,0,0,1,1
39,121,1,3,NaN,NaN,2,NaN,1.607363e+00,NaN,1,0,1,1
39,122,1,82,NaN,NaN,1,NaN,4.012329e-01,NaN,2,0,2,1
39,123,1,17,NaN,NaN,1,NaN,6.101410e-01,NaN,0,0,1,1
39,124,1,107,NaN,NaN,2,NaN,1.899557e+00,NaN,1,0,3,1
39,125,1,119,NaN,NaN,1,NaN,2.616598e+00,NaN,2,0,3,1
39,126,1,52,NaN,NaN,1,NaN,3.376404e-01,NaN,1,0,2,1
39,127,1,47,NaN,NaN,2,NaN,7.335897e-01,NaN,2,0,1,1
39,128,1,30,NaN,NaN,2,NaN,7.380906e-01,NaN,1,0,1,1
39,129,1,88,NaN,NaN,1,NaN,2.937830e-01,NaN,0,0,2,1
39,130,1,51,NaN,NaN,1,NaN,5.317276e-01,NaN,0,1,2,1
39,131,1,105,NaN,NaN,1,NaN,8.793310e-01,NaN,0,0,3,1
39,132,1,133,NaN,NaN,2,NaN,1.309080e+00,NaN,0,0,3,1
39,133,1,68,NaN,NaN,1,NaN,3.226166e-01,NaN,1,1,2,1
39,134,1,136,NaN,NaN,2,NaN,1.559336e+00,NaN,2,0,3,1
39,135,1,52,NaN,NaN,1,NaN,7.786573e-01,NaN,0,0,2,1
39,136,1,87,NaN,NaN,1,NaN,7.251760e-01,NaN,2,0,2,1
39,137,1,21,NaN,NaN,2,NaN,5.458323e-01,NaN,2,0,1,1
39,138,1,127,NaN,NaN,1,NaN,3.491733e-01,NaN,1,0,3,1
39,139,1,40,NaN,NaN,2,NaN,4.483943e-01,NaN,0,1,1,1
39,140,1,38,NaN,NaN,1,NaN,6.635549e-01,NaN,0,0,1,1
39,141,1,124,NaN,NaN,1,NaN,5.985740e-01,NaN,2,0,3,1
39,142,1,114,NaN,NaN,1,NaN,5.839875e-01,NaN,0,0,3,1
39,143,1,43,NaN,NaN,1,NaN,7.618480e-01,NaN,0,0,1,1
39,144,1,104,NaN,NaN,1,NaN,3.020304e+00,NaN,0,0,3,1
39,145,1,87,NaN,NaN,1,NaN,4.851049e-01,NaN,0,0,2,1
39,146,1,9,NaN,NaN,1,NaN,6.671964e-01,NaN,0,1,1,1
39,147,1,140,NaN,NaN,1,NaN,4.422010e-01,NaN,1,0,3,1
39,148,1,143,NaN,NaN,2,NaN,5.542468e-01,NaN,1,0,3,1
39,149,1,81,NaN,NaN,1,NaN,3.412888e-01,NaN,1,0,2,1
39,150,1,95,NaN,NaN,1,NaN,3.614117e-01,NaN,2,0,2,1
39,151,1,84,NaN,NaN,1,NaN,4.282376e-01,NaN,2,0,2,1
39,152,1,94,NaN,NaN,1,NaN,7.642658e-01,NaN,1,0,2,1
39,153,1,75,NaN,NaN,1,NaN,4.467342e-01,NaN,2,0,2,1
39,154,1,16,NaN,NaN,1,NaN,7.504234e-01,NaN,0,1,1,1
39,155,1,39,NaN,NaN,2,NaN,1.217447e+00,NaN,0,0,1,1
39,156,1,70,NaN,NaN,1,NaN,6.272968e-01,NaN,2,0,2,1
39,157,1,37,NaN,NaN,1,NaN,2.810626e+00,NaN,0,0,1,1
39,158,1,142,NaN,NaN,2,NaN,4.683636e-01,NaN,2,1,3,1
39,159,1,49,NaN,NaN,1,NaN,4.674792e-01,NaN,2,0,2,1
39,160,1,130,NaN,NaN,2,NaN,2.649841e+00,NaN,1,0,3,1
39,161,1,8,NaN,NaN,2,NaN,8.414239e-01,NaN,2,0,1,1
39,162,1,16,NaN,NaN,1,NaN,5.053555e-01,NaN,1,1,1,1
39,163,1,86,NaN,NaN,1,NaN,1.174885e+00,NaN,1,1,2,1
39,164,1,129,NaN,NaN,2,NaN,4.733450e-01,NaN,2,0,3,1
39,165,1,113,NaN,NaN,1,NaN,1.479906e+00,NaN,1,1,3,1
39,166,1,25,NaN,NaN,1,NaN,2.223150e-01,NaN,1,0,1,1
39,167,1,132,NaN,NaN,2,NaN,5.512637e-01,NaN,1,0,3,1
39,168,1,117,NaN,NaN,2,NaN,2.370444e+00,NaN,2,0,3,1
39,169,1,141,NaN,NaN,1,NaN,4.848290e-01,NaN,0,0,3,1
39,170,1,112,NaN,NaN,2,NaN,3.195030e+00,NaN,0,0,3,1
39,171,1,114,NaN,NaN,1,NaN,1.492130e+00,NaN,2,0,3,1
39,172,1,9,NaN,NaN,1,NaN,4.983436e-01,NaN,2,1,1,1
39,173,1,31,NaN,NaN,1,NaN,5.996458e-01,NaN,0,1,1,1
39,174,1,14,NaN,NaN,2,NaN,1.439809e-04,NaN,1,1,1,1
39,175,1,123,NaN,NaN,1,NaN,1.066583e+00,NaN,2,1,3,1
39,176,1,15,NaN,NaN,2,NaN,7.134906e-01,NaN,0,0,1,1
39,177,1,68,NaN,NaN,1,NaN,6.463140e-01,NaN,0,1,2,1
39,178,1,12,NaN,NaN,1,NaN,1.573184e+00,NaN,0,0,1,1
39,179,1,99,NaN,NaN,2,NaN,5.840606e-01,NaN,2,0,3,1
39,180,1,134,NaN,NaN,2,NaN,1.706156e+00,NaN,0,0,3,1
39,181,1,97,NaN,NaN,2,NaN,4.632880e-01,NaN,2,0,3,1
39,182,1,86,NaN,NaN,1,NaN,6.252153e-02,NaN,0,1,2,1
39,183,1,2,NaN,NaN,2,NaN,5.246429e-01,NaN,0,0,1,1
39,184,1,47,NaN,NaN,1,NaN,6.254118e-01,NaN,0,0,1,1
39,185,1,101,NaN,NaN,2,NaN,2.554084e+00,NaN,0,1,3,1
39,186,1,78,NaN,NaN,1,NaN,1.228516e-04,NaN,0,1,2,1
39,187,1,120,NaN,NaN,1,NaN,1.646846e+00,NaN,1,0,3,1
39,188,1,14,NaN,NaN,2,NaN,1.694565e+00,NaN,0,1,1,1
39,189,1,108,NaN,NaN,2,NaN,7.640461e-01,NaN,0,0,3,1
39,190,1,138,NaN,NaN,1,NaN,7.825761e-01,NaN,0,1,3,1
39,191,1,6,NaN,NaN,1,NaN,8.885817e-01,NaN,2,0,1,1
39,192,1,80,NaN,NaN,1,NaN,4.062109e-01,NaN,0,0,2,1
39,193,1,131,NaN,NaN,2,NaN,3.903241e+00,NaN,0,0,3,1
39,194,1,133,NaN,NaN,2,NaN,3.886736e-01,NaN,2,0,3,1
39,195,1,90,NaN,NaN,1,NaN,1.174759e+00,NaN,1,1,2,1
39,196,1,126,NaN,NaN,2,NaN,6.897842e-01,NaN,1,1,3,1
39,197,1,136,NaN,NaN,2,NaN,1.687335e+00,NaN,0,0,3,1
39,198,1,143,NaN,NaN,2,NaN,7.495372e-01,NaN,0,0,3,1
39,199,1,84,NaN,NaN,1,NaN,5.371388e-01,NaN,0,0,2,1
39,200,1,2,NaN,NaN,2,NaN,2.157279e+00,NaN,2,0,1,1
39,201,1,132,NaN,NaN,1,NaN,1.744510e+00,NaN,0,0,3,1
39,202,1,42,NaN,NaN,2,NaN,9.238540e-01,NaN,0,1,1,1
39,203,1,125,NaN,NaN,1,NaN,1.744635e+00,NaN,0,0,3,1
39,204,1,5,NaN,NaN,1,NaN,1.763844e+00,NaN,1,0,1,1
39,205,1,111,NaN,NaN,1,NaN,6.646158e+00,NaN,2,0,3,1
39,206,1,118,NaN,NaN,1,NaN,3.565846e+00,NaN,1,0,3,1
39,207,1,26,NaN,NaN,1,NaN,3.672834e+00,NaN,0,1,1,1
39,208,1,116,NaN,NaN,1,NaN,1.591400e+00,NaN,0,0,3,1
39,209,1,61,NaN,NaN,1,NaN,3.265792e+00,NaN,1,1,2,1
39,210,1,33,NaN,NaN,1,NaN,1.192548e+00,NaN,0,0,1,1
39,211,1,72,NaN,NaN,1,NaN,1.666497e+00,NaN,1,0,2,1
39,212,1,74,NaN,NaN,1,NaN,9.431586e-01,NaN,0,0,2,1
39,213,1,103,NaN,NaN,1,NaN,1.475203e+00,NaN,2,1,3,1
39,214,1,19,NaN,NaN,2,NaN,8.657669e-01,NaN,1,0,1,1
39,215,1,109,NaN,NaN,1,NaN,1.744823e+00,NaN,0,0,3,1
39,216,1,93,NaN,NaN,1,NaN,1.444306e+00,NaN,0,0,2,1
39,217,1,40,NaN,NaN,2,NaN,2.681589e-01,NaN,1,1,1,1
39,218,1,18,NaN,NaN,2,NaN,1.322089e-04,NaN,0,0,1,1
39,219,1,79,NaN,NaN,1,NaN,1.092284e+00,NaN,1,0,2,1
39,220,1,33,NaN,NaN,1,NaN,6.579671e-01,NaN,2,0,1,1
39,221,1,7,NaN,NaN,1,NaN,3.697461e+00,NaN,0,1,1,1
39,222,1,107,NaN,NaN,2,NaN,3.830840e+00,NaN,0,0,3,1
39,223,1,93,NaN,NaN,1,NaN,1.262956e+00,NaN,2,0,2,1
39,224,1,63,NaN,NaN,1,NaN,3.774986e-02,NaN,0,0,2,1
39,225,1,45,NaN,NaN,1,NaN,1.213424e-04,NaN,0,1,1,1
39,226,1,64,NaN,NaN,1,NaN,1.871097e+00,NaN,0,0,2,1
39,227,1,123,NaN,NaN,1,NaN,9.258764e-01,NaN,0,1,3,1
39,228,1,42,NaN,NaN,2,NaN,2.027994e-01,NaN,2,1,1,1
39,229,1,29,NaN,NaN,1,NaN,1.811944e+00,NaN,2,1,1,1
39,230,1,30,NaN,NaN,2,NaN,8.128800e-01,NaN,0,0,1,1
39,231,1,131,NaN,NaN,1,NaN,3.029385e+00,NaN,1,0,3,1
39,232,1,79,NaN,NaN,1,NaN,1.509548e+00,NaN,0,0,2,1
39,233,1,97,NaN,NaN,2,NaN,1.288886e-04,NaN,0,0,3,1
39,234,1,59,NaN,NaN,1,NaN,1.273793e-04,NaN,0,0,2,1
39,235,1,37,NaN,NaN,1,NaN,4.770879e-01,NaN,1,0,1,1
39,236,1,100,NaN,NaN,2,NaN,2.683860e+00,NaN,0,0,3,1
39,237,1,38,NaN,NaN,1,NaN,6.979790e-01,NaN,2,0,1,1
39,238,1,65,NaN,NaN,1,NaN,3.833777e-01,NaN,0,0,2,1
39,239,1,106,NaN,NaN,1,NaN,1.256872e+00,NaN,0,0,3,1
39,240,1,35,NaN,NaN,2,NaN,5.364445e-01,NaN,1,0,1,1
39,241,1,56,NaN,NaN,1,NaN,6.686459e-01,NaN,1,0,2,1
39,242,1,54,NaN,NaN,1,NaN,2.315241e+00,NaN,2,0,2,1
39,243,1,73,NaN,NaN,1,NaN,1.560047e+00,NaN,2,0,2,1
39,244,1,67,NaN,NaN,1,NaN,3.073981e-01,NaN,1,0,2,1
39,245,1,58,NaN,NaN,1,NaN,2.817492e-01,NaN,0,0,2,1
39,246,1,1,NaN,NaN,1,NaN,6.058636e-01,NaN,0,0,1,1
39,247,1,137,NaN,NaN,1,NaN,1.742745e+00,NaN,0,1,3,1
39,248,1,109,NaN,NaN,1,NaN,1.683164e+00,NaN,2,0,3,1
39,249,1,55,NaN,NaN,1,NaN,7.447454e-01,NaN,1,1,2,1
39,250,1,18,NaN,NaN,2,NaN,6.043115e-01,NaN,1,0,1,1
39,251,1,85,NaN,NaN,1,NaN,8.217897e-01,NaN,1,0,2,1
39,252,1,139,NaN,NaN,1,NaN,2.545528e-01,NaN,1,0,3,1
39,253,1,89,NaN,NaN,1,NaN,6.378128e-01,NaN,1,1,2,1
39,254,1,138,NaN,NaN,1,NaN,1.086076e+00,NaN,2,1,3,1
39,255,1,112,NaN,NaN,1,NaN,2.123716e+00,NaN,2,0,3,1
39,256,1,1,NaN,NaN,1,NaN,7.287297e-01,NaN,1,0,1,1
39,257,1,72,NaN,NaN,1,NaN,9.004660e-01,NaN,0,0,2,1
39,258,1,98,NaN,NaN,2,NaN,2.638262e-02,NaN,1,0,3,1
39,259,1,102,NaN,NaN,2,NaN,7.784677e-01,NaN,1,0,3,1
39,260,1,35,NaN,NaN,2,NaN,5.726088e-01,NaN,0,0,1,1
39,261,1,144,NaN,NaN,1,NaN,3.193877e-01,NaN,0,0,3,1
39,262,1,82,NaN,NaN,1,NaN,8.762268e-01,NaN,0,0,2,1
39,263,1,53,NaN,NaN,1,NaN,6.350253e-01,NaN,1,0,2,1
39,264,1,71,NaN,NaN,1,NaN,3.473082e-01,NaN,0,0,2,1
39,265,1,46,NaN,NaN,2,NaN,8.547438e-01,NaN,0,0,1,1
39,266,1,6,NaN,NaN,1,NaN,3.497728e-01,NaN,0,0,1,1
39,267,1,102,NaN,NaN,2,NaN,4.432935e+00,NaN,0,0,3,1
39,268,1,23,NaN,NaN,1,NaN,1.073742e+00,NaN,0,1,1,1
39,269,1,43,NaN,NaN,1,NaN,1.167666e+00,NaN,1,0,1,1
39,270,1,8,NaN,NaN,1,NaN,3.481653e+00,NaN,0,0,1,1
39,271,1,62,NaN,NaN,1,NaN,4.803375e-01,NaN,2,0,2,1
39,272,1,41,NaN,NaN,1,NaN,1.022266e+00,NaN,0,0,1,1
39,273,1,92,NaN,NaN,1,NaN,1.502745e+00,NaN,2,1,2,1
39,274,1,54,NaN,NaN,1,NaN,2.051895e+00,NaN,0,0,2,1
39,275,1,95,NaN,NaN,1,NaN,1.483700e+00,NaN,0,0,2,1
39,276,1,62,NaN,NaN,1,NaN,7.293132e-01,NaN,0,0,2,1
39,277,1,78,NaN,NaN,1,NaN,2.093813e+00,NaN,2,1,2,1
39,278,1,22,NaN,NaN,2,NaN,1.539828e+00,NaN,1,0,1,1
39,279,1,135,NaN,NaN,1,NaN,6.880190e-01,NaN,0,0,3,1
39,280,1,76,NaN,NaN,1,NaN,1.213526e+00,NaN,2,0,2,1
39,281,1,118,NaN,NaN,1,NaN,7.987603e-01,NaN,0,0,3,1
39,282,1,61,NaN,NaN,1,NaN,4.475721e-01,NaN,0,1,2,1
39,283,1,7,NaN,NaN,1,NaN,8.630222e-01,NaN,2,1,1,1
39,284,1,90,NaN,NaN,1,NaN,1.885998e+00,NaN,0,1,2,1
39,285,1,60,NaN,NaN,1,NaN,4.358070e-01,NaN,0,1,2,1
39,286,1,101,NaN,NaN,1,NaN,7.638073e-01,NaN,1,1,3,1
39,287,1,50,NaN,NaN,1,NaN,1.430874e+00,NaN,1,0,2,1
39,288,1,125,NaN,NaN,1,NaN,1.942875e+00,NaN,1,0,3,1
39,396,2,52,70,1,0,0,3.500026e+00,NaN,1,0,2,1
39,397,2,16,48,2,0,0,3.499849e+00,NaN,1,1,1,1
39,398,2,107,40,1,1,1,1.567740e+00,NaN,1,0,3,1
39,399,2,122,30,1,1,1,1.022386e+00,NaN,1,0,3,1
39,400,2,116,25,2,2,1,1.203528e+00,NaN,1,0,3,1
39,401,2,60,15,1,1,1,9.449721e-01,NaN,1,1,2,1
39,402,2,25,20,2,2,1,1.208314e+00,NaN,1,0,1,1
39,403,2,5,27,2,2,1,1.205670e+00,NaN,1,0,1,1
39,404,2,13,29,2,2,1,7.068280e-01,NaN,1,0,1,1
39,405,2,101,49,2,2,1,6.683419e-01,NaN,1,1,3,1
39,406,2,43,11,2,2,1,9.590841e-01,NaN,1,0,1,1
39,407,2,19,26,1,1,1,8.225494e-01,NaN,1,0,1,1
39,408,2,53,38,2,2,1,6.431751e-01,NaN,1,0,2,1
39,409,2,83,51,1,2,0,8.152879e-01,NaN,1,0,2,1
39,410,2,55,21,2,2,1,6.441429e-01,NaN,1,1,2,1
39,411,2,81,47,1,1,1,2.185377e+00,NaN,1,0,2,1
39,412,2,14,37,2,1,0,8.706043e-01,NaN,1,1,1,1
39,413,2,85,69,2,2,1,5.051035e-01,NaN,1,0,2,1
39,414,2,41,23,2,1,0,8.908597e-01,NaN,1,0,1,1
39,415,2,77,55,1,1,1,7.488653e-01,NaN,1,0,2,1
39,416,2,100,39,2,1,0,6.280547e-01,NaN,1,0,3,1
39,417,2,34,66,2,1,0,8.971892e-01,NaN,1,0,1,1
39,418,2,125,5,1,1,1,6.586161e-01,NaN,1,0,3,1
39,419,2,67,46,2,2,1,6.296811e-01,NaN,1,0,2,1
39,420,3,34,66,2,2,1,1.817312e+00,NaN,1,0,1,1
39,421,3,53,38,2,2,1,1.222516e+00,NaN,1,0,2,1
39,422,3,16,48,2,0,0,3.500044e+00,NaN,1,1,1,1
39,423,3,55,21,2,2,1,1.252155e+00,NaN,1,1,2,1
39,424,3,116,25,1,1,1,1.607941e+00,NaN,1,0,3,1
39,425,3,5,27,2,1,0,1.917354e+00,NaN,1,0,1,1
39,426,3,67,46,2,2,1,1.006033e+00,NaN,1,0,2,1
39,427,3,122,30,1,1,1,1.275235e+00,NaN,1,0,3,1
39,428,3,100,39,2,2,1,1.614365e+00,NaN,1,0,3,1
39,429,3,41,23,2,2,1,1.187244e+00,NaN,1,0,1,1
39,430,3,14,37,2,1,0,7.212569e-01,NaN,1,1,1,1
39,431,3,13,29,2,2,1,8.180374e-01,NaN,1,0,1,1
39,432,3,25,20,2,2,1,6.549493e-01,NaN,1,0,1,1
39,433,3,101,49,2,2,1,7.459307e-01,NaN,1,1,3,1
39,434,3,81,47,2,2,1,9.773026e-01,NaN,1,0,2,1
39,435,3,83,51,1,2,0,6.320820e-01,NaN,1,0,2,1
39,436,3,125,5,2,1,0,1.044544e+00,NaN,1,0,3,1
39,437,3,52,70,1,1,1,8.082603e-01,NaN,1,0,2,1
39,438,3,107,40,1,1,1,7.255697e-01,NaN,1,0,3,1
39,439,3,19,26,2,2,1,7.103792e-01,NaN,1,0,1,1
39,440,3,60,15,2,2,1,6.481158e-01,NaN,1,1,2,1
39,441,3,85,69,1,1,1,5.395578e-01,NaN,1,0,2,1
39,442,3,77,55,2,2,1,6.516525e-01,NaN,1,0,2,1
39,443,3,43,11,2,2,1,8.711135e-01,NaN,1,0,1,1
39,468,2,24,53,2,2,1,3.148666e+00,NaN,1,1,1,2
39,469,2,11,14,1,1,1,7.082219e-01,NaN,1,0,1,2
39,470,2,131,64,2,2,1,6.537814e-01,NaN,1,0,3,2
39,471,2,72,72,1,1,1,8.007878e-01,NaN,1,0,2,2
39,472,2,127,3,2,2,1,8.704157e-01,NaN,1,0,3,2
39,473,2,12,52,2,2,1,1.080803e+00,NaN,1,0,1,2
39,474,2,121,65,2,2,1,8.840884e-01,NaN,1,1,3,2
39,475,2,64,10,2,2,1,6.614640e-01,NaN,1,0,2,2
39,476,2,3,56,1,1,1,8.326981e-01,NaN,1,0,1,2
39,477,2,90,62,1,2,0,5.727325e-01,NaN,1,1,2,2
39,478,2,130,19,2,2,1,8.036547e-01,NaN,1,0,3,2
39,479,2,140,42,2,2,1,8.412645e-01,NaN,1,0,3,2
39,480,2,1,68,2,1,0,7.010005e-01,NaN,1,0,1,2
39,481,2,40,63,1,1,1,7.344276e-01,NaN,1,1,1,2
39,482,2,120,16,2,2,1,5.104051e-01,NaN,1,0,3,2
39,483,2,141,58,1,1,1,6.317991e-01,NaN,1,0,3,2
39,484,2,89,50,1,1,1,6.280692e-01,NaN,1,1,2,2
39,485,2,143,1,2,2,1,1.000299e+00,NaN,1,0,3,2
39,486,2,51,59,2,2,1,6.537781e-01,NaN,1,1,2,2
39,487,2,59,36,2,2,1,7.049267e-01,NaN,1,0,2,2
39,488,2,22,13,1,1,1,6.826552e-01,NaN,1,0,1,2
39,489,2,98,33,1,1,1,6.443421e-01,NaN,1,0,3,2
39,490,2,94,31,1,2,0,8.796398e-01,NaN,1,0,2,2
39,491,2,79,32,2,2,1,5.457710e-01,NaN,1,0,2,2
39,492,3,140,42,2,2,1,8.459763e-01,NaN,1,0,3,2
39,493,3,121,65,1,2,0,6.255805e-01,NaN,1,1,3,2
39,494,3,127,3,1,2,0,5.900477e-01,NaN,1,0,3,2
39,495,3,24,53,1,1,1,6.526884e-01,NaN,1,1,1,2
39,496,3,143,1,2,2,1,8.401833e-01,NaN,1,0,3,2
39,497,3,94,31,2,1,0,7.958761e-01,NaN,1,0,2,2
39,498,3,98,33,1,1,1,7.612555e-01,NaN,1,0,3,2
39,499,3,12,52,2,2,1,6.408947e-01,NaN,1,0,1,2
39,500,3,120,16,2,2,1,5.571603e-01,NaN,1,0,3,2
39,501,3,59,36,2,2,1,4.201200e-01,NaN,1,0,2,2
39,502,3,51,59,1,1,1,9.770446e-01,NaN,1,1,2,2
39,503,3,72,72,1,2,0,5.518420e-01,NaN,1,0,2,2
39,504,3,89,50,2,2,1,8.070626e-01,NaN,1,1,2,2
39,505,3,22,13,2,1,0,6.765238e-01,NaN,1,0,1,2
39,506,3,131,64,1,1,1,6.714654e-01,NaN,1,0,3,2
39,507,3,130,19,1,2,0,2.209925e+00,NaN,1,0,3,2
39,508,3,3,56,2,2,1,1.543455e+00,NaN,1,0,1,2
39,509,3,40,63,1,1,1,1.079723e+00,NaN,1,1,1,2
39,510,3,11,14,2,1,0,9.297249e-01,NaN,1,0,1,2
39,511,3,1,68,1,1,1,1.666218e+00,NaN,1,0,1,2
39,512,3,90,62,2,1,0,9.403919e-01,NaN,1,1,2,2
39,513,3,141,58,1,1,1,7.805661e-01,NaN,1,0,3,2
39,514,3,79,32,1,1,1,1.011170e+00,NaN,1,0,2,2
39,515,3,64,10,1,1,1,8.161593e-01,NaN,1,0,2,2
39,540,2,104,67,1,1,1,7.803307e-01,NaN,1,0,3,3
39,541,2,113,28,1,1,1,8.428528e-01,NaN,1,1,3,3
39,542,2,44,17,2,2,1,1.774723e+00,NaN,1,0,1,3
39,543,2,35,6,1,1,1,1.021871e+00,NaN,1,0,1,3
39,544,2,56,12,1,1,1,1.098221e+00,NaN,1,0,2,3
39,545,2,132,71,2,2,1,1.084027e+00,NaN,1,0,3,3
39,546,2,68,7,1,1,1,9.339949e-01,NaN,1,1,2,3
39,547,2,20,61,1,1,1,7.902829e-01,NaN,1,1,1,3
39,548,2,118,57,1,2,0,1.756116e+00,NaN,1,0,3,3
39,549,2,66,24,2,2,1,1.067470e+00,NaN,1,0,2,3
39,550,2,135,54,1,1,1,7.504892e-01,NaN,1,0,3,3
39,551,2,18,18,2,2,1,2.702007e+00,NaN,1,0,1,3
39,552,2,30,35,1,1,1,8.949419e-01,NaN,1,0,1,3
39,553,2,102,34,1,1,1,1.376529e+00,NaN,1,0,3,3
39,554,2,71,4,1,2,0,1.983064e+00,NaN,1,0,2,3
39,555,2,50,43,2,2,1,1.173562e+00,NaN,1,0,2,3
39,556,2,139,60,2,1,0,2.075795e+00,NaN,1,0,3,3
39,557,2,32,45,1,1,1,1.590515e+00,NaN,1,1,1,3
39,558,2,37,22,1,1,1,9.483130e-01,NaN,1,0,1,3
39,559,2,126,44,2,2,1,1.388006e+00,NaN,1,1,3,3
39,560,2,61,9,1,1,1,8.737716e-01,NaN,1,1,2,3
39,561,2,27,2,2,2,1,1.868463e+00,NaN,1,0,1,3
39,562,2,108,8,2,2,1,1.383244e+00,NaN,1,0,3,3
39,563,2,86,41,2,2,1,2.125177e+00,NaN,1,1,2,3
39,564,3,66,24,1,1,1,1.029749e+00,NaN,1,0,2,3
39,565,3,18,18,1,1,1,1.369813e+00,NaN,1,0,1,3
39,566,3,104,67,1,1,1,1.224607e+00,NaN,1,0,3,3
39,567,3,68,7,2,2,1,8.691425e-01,NaN,1,1,2,3
39,568,3,50,43,2,2,1,6.720063e-01,NaN,1,0,2,3
39,569,3,20,61,2,2,1,2.522662e+00,NaN,1,1,1,3
39,570,3,44,17,1,1,1,1.467967e+00,NaN,1,0,1,3
39,571,3,102,34,1,1,1,1.182284e+00,NaN,1,0,3,3
39,572,3,37,22,1,1,1,1.204549e+00,NaN,1,0,1,3
39,573,3,30,35,1,1,1,1.105671e+00,NaN,1,0,1,3
39,574,3,32,45,1,1,1,1.451403e+00,NaN,1,1,1,3
39,575,3,35,6,2,2,1,9.668841e-01,NaN,1,0,1,3
39,576,3,27,2,1,1,1,6.615332e-01,NaN,1,0,1,3
39,577,3,118,57,2,1,0,1.791918e+00,NaN,1,0,3,3
39,578,3,132,71,1,1,1,1.086374e+00,NaN,1,0,3,3
39,579,3,135,54,2,2,1,6.323796e-01,NaN,1,0,3,3
39,580,3,71,4,2,2,1,1.308514e+00,NaN,1,0,2,3
39,581,3,126,44,2,2,1,1.253905e+00,NaN,1,1,3,3
39,582,3,113,28,2,2,1,7.051334e-01,NaN,1,1,3,3
39,583,3,108,8,1,1,1,8.508047e-01,NaN,1,0,3,3
39,584,3,56,12,2,2,1,1.198087e+00,NaN,1,0,2,3
39,585,3,139,60,1,1,1,1.099369e+00,NaN,1,0,3,3
39,586,3,61,9,2,2,1,7.651194e-01,NaN,1,1,2,3
39,587,3,86,41,1,1,1,2.187836e+00,NaN,1,1,2,3
39,612,4,96,48,1,1,1,8.938284e-01,NaN,2,1,2,1
39,613,4,58,64,1,1,1,8.397224e-01,NaN,2,0,2,1
39,614,4,114,18,1,1,1,1.124094e+00,NaN,2,0,3,1
39,615,4,109,13,2,2,1,1.148478e+00,NaN,2,0,3,1
39,616,4,74,8,1,1,1,8.041316e-01,NaN,2,0,2,1
39,617,4,144,24,1,1,1,9.933515e-01,NaN,2,0,3,1
39,618,4,84,56,2,2,1,1.048412e+00,NaN,2,0,2,1
39,619,4,8,58,1,1,1,7.312401e-01,NaN,2,0,1,1
39,620,4,21,42,1,1,1,1.123259e+00,NaN,2,0,1,1
39,621,4,48,47,1,1,1,8.839450e-01,NaN,2,0,1,1
39,622,4,42,7,2,2,1,1.821966e+00,NaN,2,1,1,1
39,623,4,17,67,2,2,1,1.602557e+00,NaN,2,0,1,1
39,624,4,75,25,2,2,1,8.481025e-01,NaN,2,0,2,1
39,625,4,82,52,1,1,1,1.131885e+00,NaN,2,0,2,1
39,626,4,4,40,1,1,1,2.203593e+00,NaN,2,0,1,1
39,627,4,6,34,2,2,1,2.281286e+00,NaN,2,0,1,1
39,628,4,129,4,2,2,1,2.091493e+00,NaN,2,0,3,1
39,629,4,112,66,2,2,1,7.172115e-01,NaN,2,0,3,1
39,630,4,62,60,2,2,1,8.782353e-01,NaN,2,0,2,1
39,631,4,33,69,1,1,1,2.416106e+00,NaN,2,0,1,1
39,632,4,7,28,2,2,1,1.244936e+00,NaN,2,1,1,1
39,633,4,9,65,1,2,0,9.922440e-01,NaN,2,1,1,1
39,634,4,73,57,2,1,0,1.718774e+00,NaN,2,0,2,1
39,635,4,39,38,2,2,1,1.095045e+00,NaN,2,0,1,1
39,660,4,110,2,1,1,1,1.437612e+00,NaN,2,0,3,2
39,661,4,99,11,2,2,1,1.193392e+00,NaN,2,0,3,2
39,662,4,88,22,2,2,1,8.717592e-01,NaN,2,0,2,2
39,663,4,134,51,2,2,1,1.018325e+00,NaN,2,0,3,2
39,664,4,65,33,2,2,1,8.309948e-01,NaN,2,0,2,2
39,665,4,111,17,1,1,1,1.099182e+00,NaN,2,0,3,2
39,666,4,46,55,2,2,1,2.060843e+00,NaN,2,0,1,2
39,667,4,117,29,2,2,1,1.072392e+00,NaN,2,0,3,2
39,668,4,54,3,1,1,1,9.709826e-01,NaN,2,0,2,2
39,669,4,103,37,2,2,1,9.857903e-01,NaN,2,1,3,2
39,670,4,105,68,2,2,1,1.255829e+00,NaN,2,0,3,2
39,671,4,47,36,1,1,1,8.990893e-01,NaN,2,0,1,2
39,672,4,78,63,2,2,1,9.804808e-01,NaN,2,1,2,2
39,673,4,91,53,2,2,1,7.148209e-01,NaN,2,1,2,2
39,674,4,23,44,2,1,0,1.739817e+00,NaN,2,1,1,2
39,675,4,45,15,2,2,1,1.099495e+00,NaN,2,1,1,2
39,676,4,31,41,1,0,0,3.500025e+00,NaN,2,1,1,2
39,677,4,76,27,1,1,1,1.086408e+00,NaN,2,0,2,2
39,678,4,15,30,1,1,1,1.128639e+00,NaN,2,0,1,2
39,679,4,69,19,1,1,1,8.725198e-01,NaN,2,0,2,2
39,680,4,124,70,2,2,1,1.163498e+00,NaN,2,0,3,2
39,681,4,26,49,1,1,1,1.066228e+00,NaN,2,1,1,2
39,682,4,87,26,1,1,1,1.292768e+00,NaN,2,0,2,2
39,683,4,70,16,1,1,1,1.174925e+00,NaN,2,0,2,2
39,708,4,95,35,2,2,1,1.194753e+00,NaN,2,0,2,3
39,709,4,57,5,2,2,1,1.080383e+00,NaN,2,0,2,3
39,710,4,10,54,1,1,1,7.939174e-01,NaN,2,0,1,3
39,711,4,28,46,1,1,1,1.400498e+00,NaN,2,0,1,3
39,712,4,92,45,2,2,1,7.898685e-01,NaN,2,1,2,3
39,713,4,38,32,1,1,1,1.123780e+00,NaN,2,0,1,3
39,714,4,138,62,1,1,1,1.428511e+00,NaN,2,1,3,3
39,715,4,2,39,1,1,1,8.806042e-01,NaN,2,0,1,3
39,716,4,115,61,2,2,1,1.298533e+00,NaN,2,1,3,3
39,717,4,80,23,2,2,1,1.131942e+00,NaN,2,0,2,3
39,718,4,93,20,2,2,1,7.005623e-01,NaN,2,0,2,3
39,719,4,136,10,1,1,1,1.285848e+00,NaN,2,0,3,3
39,720,4,97,6,1,1,1,1.079627e+00,NaN,2,0,3,3
39,721,4,119,12,1,1,1,2.409730e+00,NaN,2,0,3,3
39,722,4,137,21,1,1,1,9.031078e-01,NaN,2,1,3,3
39,723,4,36,72,1,1,1,1.000535e+00,NaN,2,0,1,3
39,724,4,49,71,1,2,0,7.903390e-01,NaN,2,0,2,3
39,725,4,29,9,2,2,1,1.540225e+00,NaN,2,1,1,3
39,726,4,106,14,1,1,1,1.389161e+00,NaN,2,0,3,3
39,727,4,142,50,2,2,1,1.010537e+00,NaN,2,1,3,3
39,728,4,123,59,1,1,1,1.351932e+00,NaN,2,1,3,3
39,729,4,128,43,2,2,1,1.111231e+00,NaN,2,0,3,3
39,730,4,133,31,1,1,1,1.280723e+00,NaN,2,0,3,3
39,731,4,63,1,1,2,0,1.290842e+00,NaN,2,0,2,3
39,732,5,1.275400e+02,3,3,0,0,2.500362e+00,1,1,0,3.200000e+00,1
39,733,5,1.020600e+02,34,3,2,0,8.468260e-01,1,1,0,3.100000e+00,1
39,734,5,7.236000e+01,72,2,1,0,7.519954e-01,1,1,0,2.100000e+00,1
39,735,5,9.533000e+01,31,2,3,0,2.814528e-01,1,1,0,2.300000e+00,1
39,736,5,6.744000e+01,24,2,2,1,4.827650e-01,1,1,0,2.300000e+00,1
39,737,5,3.840000e+00,56,1,2,0,1.716377e+00,1,1,0,1.200000e+00,1
39,738,5,1.402100e+02,42,3,1,0,3.906051e-01,1,1,0,3.100000e+00,1
39,739,5,6.744000e+01,24,2,2,1,5.915796e-01,2,1,0,2.300000e+00,1
39,740,5,1.315800e+02,64,3,2,0,4.412532e-01,1,1,0,3.200000e+00,1
39,741,5,1.417000e+01,29,1,3,0,4.264413e-01,1,1,0,1.300000e+00,1
39,742,5,9.865000e+01,33,3,2,0,2.450806e-01,1,1,0,3.200000e+00,1
39,743,5,1.041700e+02,67,3,2,0,3.340345e-01,1,1,0,3.100000e+00,1
39,744,5,1.000200e+02,39,3,1,0,4.565810e-01,1,1,0,3.100000e+00,1
39,745,5,5.128000e+01,43,2,3,0,4.568684e-01,1,1,0,2.300000e+00,1
39,746,5,1.987000e+01,26,1,1,1,5.147786e-01,1,1,0,1.200000e+00,1
39,747,5,1.187300e+02,57,3,2,0,1.077370e-01,1,1,0,3.200000e+00,1
39,748,5,2.810000e+01,2,1,1,1,1.629973e-04,1,1,0,1.300000e+00,1
39,749,5,7.938000e+01,32,2,1,0,5.105524e-01,1,1,0,2.100000e+00,1
39,750,5,2.593000e+01,20,1,2,0,5.210781e-01,1,1,0,1.200000e+00,1
39,751,5,6.536000e+01,10,2,1,0,6.261208e-01,1,1,0,2.300000e+00,1
39,752,5,1.167500e+02,25,3,3,1,2.764150e-01,1,1,0,3.200000e+00,1
39,753,5,9.865000e+01,33,3,2,0,3.427120e-01,2,1,0,3.200000e+00,1
39,754,5,8.148000e+01,47,2,1,0,5.125428e-01,1,1,0,2.100000e+00,1
39,755,5,2.050000e+00,68,1,3,0,5.459811e-01,1,1,0,1.300000e+00,1
39,756,5,5.947000e+01,36,2,2,1,4.274368e-01,1,1,0,2.100000e+00,1
39,757,5,8.148000e+01,47,2,1,0,3.972844e-01,2,1,0,2.100000e+00,1
39,758,5,1.324900e+02,71,3,2,0,5.908959e-01,1,1,0,3.200000e+00,1
39,759,5,1.187300e+02,57,3,3,1,6.320457e-01,2,1,0,3.200000e+00,1
39,760,5,1.206000e+01,14,1,3,0,6.895910e-01,1,1,0,1.300000e+00,1
39,761,5,1.221500e+02,30,3,2,0,1.631953e-01,1,1,0,3.100000e+00,1
39,762,5,1.914000e+01,18,1,1,1,3.083380e-01,1,1,0,1.300000e+00,1
39,763,5,6.728000e+01,46,2,3,0,3.660022e-01,1,1,0,2.100000e+00,1
39,764,5,1.402100e+02,42,3,2,0,6.877377e-01,2,1,0,3.100000e+00,1
39,765,5,1.275400e+02,3,3,1,0,3.766758e-01,2,1,0,3.200000e+00,1
39,766,5,1.070400e+02,40,3,3,1,4.427060e-01,1,1,0,3.100000e+00,1
39,767,5,4.511000e+01,17,1,2,0,3.007970e-01,1,1,0,1.300000e+00,1
39,768,5,8.533000e+01,69,2,2,1,3.902493e-01,1,1,0,2.100000e+00,1
39,769,5,1.417000e+01,29,1,3,0,4.320505e-01,2,1,0,1.300000e+00,1
39,770,5,5.719000e+01,12,2,2,1,2.734249e-01,1,1,0,2.300000e+00,1
39,771,5,1.987000e+01,26,1,1,1,3.464338e-01,2,1,0,1.200000e+00,1
39,772,5,6.744000e+01,24,2,3,0,1.163784e+00,3,1,0,2.300000e+00,1
39,773,5,1.396200e+02,60,3,3,1,6.214026e-01,1,1,0,3.200000e+00,1
39,774,5,7.938000e+01,32,2,2,1,5.189039e-01,2,1,0,2.100000e+00,1
39,775,5,2.810000e+01,2,1,1,1,1.048251e+00,2,1,0,1.300000e+00,1
39,776,5,7.938000e+01,32,2,3,0,5.697397e-01,3,1,0,2.100000e+00,1
39,777,5,4.511000e+01,17,1,1,1,2.109336e-01,2,1,0,1.300000e+00,1
39,778,5,7.236000e+01,72,2,3,0,3.649723e-01,2,1,0,2.100000e+00,1
39,779,5,5.947000e+01,36,2,2,1,1.346116e-01,2,1,0,2.100000e+00,1
39,780,5,2.593000e+01,20,1,1,1,5.118694e-01,2,1,0,1.200000e+00,1
39,781,5,1.275400e+02,3,3,3,1,2.892184e-01,3,1,0,3.200000e+00,1
39,782,5,1.282000e+01,52,1,3,0,4.506271e-01,1,1,0,1.200000e+00,1
39,783,5,1.070400e+02,40,3,3,1,1.515271e-04,2,1,0,3.100000e+00,1
39,784,5,2.593000e+01,20,1,1,1,6.696649e-01,3,1,0,1.200000e+00,1
39,785,5,7.746000e+01,55,2,3,0,1.497160e-04,1,1,0,2.100000e+00,1
39,786,5,5.128000e+01,43,2,3,0,2.083205e-01,2,1,0,2.300000e+00,1
39,787,5,6.728000e+01,46,2,2,1,6.817481e-01,2,1,0,2.100000e+00,1
39,788,5,2.810000e+01,2,1,1,1,5.316186e-01,3,1,0,1.300000e+00,1
39,789,5,4.180000e+01,23,1,3,0,5.247588e-01,1,1,0,1.200000e+00,1
39,790,5,1.402100e+02,42,3,2,0,5.424365e-01,3,1,0,3.100000e+00,1
39,791,5,1.070400e+02,40,3,1,0,6.885222e-01,3,1,0,3.100000e+00,1
39,792,5,7.746000e+01,55,2,2,1,4.267459e-01,2,1,0,2.100000e+00,1
39,793,5,1.417000e+01,29,1,3,0,1.548474e-04,3,1,0,1.300000e+00,1
39,794,5,5.128000e+01,43,2,2,1,2.374617e-01,3,1,0,2.300000e+00,1
39,795,5,5.324000e+01,70,2,2,1,4.389495e-01,1,1,0,2.300000e+00,1
39,796,5,3.597000e+01,6,1,1,1,4.079158e-01,1,1,0,1.300000e+00,1
39,797,5,7.236000e+01,72,2,1,0,6.333555e-01,3,1,0,2.100000e+00,1
39,798,5,1.351000e+02,54,3,1,0,3.547795e-01,1,1,0,3.100000e+00,1
39,799,5,1.396200e+02,60,3,3,1,1.400569e-04,2,1,0,3.200000e+00,1
39,800,5,1.306900e+02,19,3,2,0,3.818329e-01,1,1,0,3.200000e+00,1
39,801,5,3.095000e+01,35,1,1,1,7.034204e-01,1,1,0,1.200000e+00,1
39,802,5,1.070400e+02,40,3,3,1,4.494432e-01,4,1,0,3.100000e+00,1
39,803,5,6.728000e+01,46,2,1,0,6.179730e-01,3,1,0,2.100000e+00,1
39,804,5,5.339000e+01,38,2,2,1,1.072679e-01,1,1,0,2.100000e+00,1
39,805,5,1.275400e+02,3,3,3,1,9.090484e-01,4,1,0,3.200000e+00,1
39,806,5,4.399000e+01,11,1,1,1,5.830648e-01,1,1,0,1.300000e+00,1
39,807,5,1.987000e+01,26,1,1,1,4.963529e-01,3,1,0,1.200000e+00,1
39,808,5,3.840000e+00,56,1,2,0,6.175505e-01,2,1,0,1.200000e+00,1
39,809,5,1.410800e+02,58,3,3,1,3.392381e-01,1,1,0,3.100000e+00,1
39,810,5,1.000200e+02,39,3,3,1,4.283137e-01,2,1,0,3.100000e+00,1
39,811,5,7.229000e+01,4,2,2,1,5.097791e-01,1,1,0,2.300000e+00,1
39,812,5,5.339000e+01,38,2,2,1,3.520759e-01,2,1,0,2.100000e+00,1
39,813,5,8.434000e+01,51,2,3,0,3.218245e-01,1,1,0,2.300000e+00,1
39,814,5,1.351000e+02,54,3,1,0,6.346205e-01,2,1,0,3.100000e+00,1
39,815,5,3.512000e+01,66,1,1,1,5.640729e-01,1,1,0,1.300000e+00,1
39,816,5,5.339000e+01,38,2,2,1,7.258652e-01,3,1,0,2.100000e+00,1
39,817,5,1.206000e+01,14,1,3,0,4.000523e-01,2,1,0,1.300000e+00,1
39,818,5,4.180000e+01,23,1,3,0,4.893045e-01,2,1,0,1.200000e+00,1
39,819,5,1.187300e+02,57,3,2,0,7.789851e-01,3,1,0,3.200000e+00,1
39,820,5,1.041700e+02,67,3,3,1,4.438799e-01,2,1,0,3.100000e+00,1
39,821,5,6.536000e+01,10,2,1,0,4.214759e-01,2,1,0,2.300000e+00,1
39,822,5,1.315800e+02,64,3,2,0,4.151486e-01,2,1,0,3.200000e+00,1
39,823,5,5.324000e+01,70,2,3,0,4.484387e-01,2,1,0,2.300000e+00,1
39,824,5,1.396200e+02,60,3,2,0,5.056208e-01,3,1,0,3.200000e+00,1
39,825,5,1.410800e+02,58,3,2,0,1.442828e-04,2,1,0,3.100000e+00,1
39,826,5,4.399000e+01,11,1,1,1,4.126563e-01,2,1,0,1.300000e+00,1
39,827,5,1.436300e+02,1,3,3,1,1.421698e-04,1,1,0,3.200000e+00,1
39,828,5,5.719000e+01,12,2,2,1,8.316920e-01,2,1,0,2.300000e+00,1
39,829,5,3.095000e+01,35,1,3,0,6.890205e-01,2,1,0,1.200000e+00,1
39,830,5,1.255700e+02,5,3,3,1,3.621404e-01,1,1,0,3.200000e+00,1
39,831,5,3.788000e+01,22,1,1,1,1.424717e-04,1,1,0,1.200000e+00,1
39,832,5,8.148000e+01,47,2,1,0,5.169808e-01,3,1,0,2.100000e+00,1
39,833,5,1.255700e+02,5,3,0,0,2.500256e+00,2,1,0,3.200000e+00,1
39,834,5,1.324900e+02,71,3,3,1,3.926260e-01,2,1,0,3.200000e+00,1
39,835,5,8.533000e+01,69,2,2,1,5.626322e-01,2,1,0,2.100000e+00,1
39,836,5,5.760000e+00,27,1,1,1,4.361264e-01,1,1,0,1.200000e+00,1
39,837,5,1.206000e+01,14,1,1,1,4.937764e-01,3,1,0,1.300000e+00,1
39,838,5,1.207000e+02,16,3,3,1,6.874790e-01,1,1,0,3.200000e+00,1
39,839,5,2.309000e+01,13,1,3,0,3.852012e-01,1,1,0,1.300000e+00,1
39,840,5,5.339000e+01,38,2,2,1,2.987423e-01,4,1,0,2.100000e+00,1
39,841,5,1.351000e+02,54,3,2,0,6.516712e-01,3,1,0,3.100000e+00,1
39,842,5,5.947000e+01,36,2,2,1,2.531655e-01,3,1,0,2.100000e+00,1
39,843,5,1.402100e+02,42,3,3,1,8.306235e-01,4,1,0,3.100000e+00,1
39,844,5,4.180000e+01,23,1,3,0,1.361082e-01,3,1,0,1.200000e+00,1
39,845,5,3.512000e+01,66,1,3,0,3.616064e-01,2,1,0,1.300000e+00,1
39,846,5,1.206000e+01,14,1,1,1,5.228315e-01,4,1,0,1.300000e+00,1
39,847,5,1.041700e+02,67,3,2,0,5.162594e-01,3,1,0,3.100000e+00,1
39,848,5,7.746000e+01,55,2,3,0,5.338136e-01,3,1,0,2.100000e+00,1
39,849,5,9.533000e+01,31,2,3,0,8.555262e-01,2,1,0,2.300000e+00,1
39,850,5,5.324000e+01,70,2,3,0,1.125973e-01,3,1,0,2.300000e+00,1
39,851,5,1.000200e+02,39,3,1,0,4.099424e-01,3,1,0,3.100000e+00,1
39,852,5,7.746000e+01,55,2,3,0,3.964238e-01,4,1,0,2.100000e+00,1
39,853,5,1.041700e+02,67,3,2,0,3.096058e-01,4,1,0,3.100000e+00,1
39,854,5,1.324900e+02,71,3,3,1,3.596846e-01,3,1,0,3.200000e+00,1
39,855,5,1.315800e+02,64,3,1,0,1.065446e+00,3,1,0,3.200000e+00,1
39,856,5,3.095000e+01,35,1,1,1,1.472738e-01,3,1,0,1.200000e+00,1
39,857,5,8.434000e+01,51,2,3,0,3.484812e-01,2,1,0,2.300000e+00,1
39,858,5,1.207000e+02,16,3,3,1,4.058508e-01,2,1,0,3.200000e+00,1
39,859,5,1.914000e+01,18,1,1,1,3.837094e-01,2,1,0,1.300000e+00,1
39,860,5,2.810000e+01,2,1,1,1,5.290502e-01,4,1,0,1.300000e+00,1
39,861,5,7.938000e+01,32,2,2,1,1.782131e-01,4,1,0,2.100000e+00,1
39,862,5,5.760000e+00,27,1,1,1,5.876085e-01,2,1,0,1.200000e+00,1
39,863,5,4.399000e+01,11,1,1,1,4.851731e-01,3,1,0,1.300000e+00,1
39,864,5,1.167500e+02,25,3,3,1,1.014355e+00,2,1,0,3.200000e+00,1
39,865,5,1.987000e+01,26,1,1,1,3.519772e-01,4,1,0,1.200000e+00,1
39,866,5,1.306900e+02,19,3,3,1,1.394532e-04,2,1,0,3.200000e+00,1
39,867,5,3.597000e+01,6,1,3,0,4.586903e-01,2,1,0,1.300000e+00,1
39,868,5,2.309000e+01,13,1,1,1,7.660268e-02,2,1,0,1.300000e+00,1
39,869,5,2.050000e+00,68,1,1,1,1.192277e-01,2,1,0,1.300000e+00,1
39,870,5,1.020600e+02,34,3,2,0,3.206826e-01,2,1,0,3.100000e+00,1
39,871,5,3.840000e+00,56,1,1,1,7.855659e-01,3,1,0,1.200000e+00,1
39,872,5,1.410800e+02,58,3,3,1,5.311196e-01,3,1,0,3.100000e+00,1
39,873,5,1.315800e+02,64,3,2,0,3.486801e-01,4,1,0,3.200000e+00,1
39,874,5,2.309000e+01,13,1,1,1,4.701351e-01,3,1,0,1.300000e+00,1
39,875,5,1.282000e+01,52,1,3,0,6.333681e-02,2,1,0,1.200000e+00,1
39,876,5,7.229000e+01,4,2,3,0,4.166998e-01,2,1,0,2.300000e+00,1
39,877,5,4.511000e+01,17,1,1,1,3.540796e-01,3,1,0,1.300000e+00,1
39,878,5,3.788000e+01,22,1,1,1,2.355953e-01,2,1,0,1.200000e+00,1
39,879,5,9.533000e+01,31,2,1,0,7.979211e-01,3,1,0,2.300000e+00,1
39,880,5,1.255700e+02,5,3,3,1,6.227039e-01,3,1,0,3.200000e+00,1
39,881,5,9.533000e+01,31,2,3,0,1.128033e+00,4,1,0,2.300000e+00,1
39,882,5,7.229000e+01,4,2,1,0,2.814613e-01,3,1,0,2.300000e+00,1
39,883,5,1.396200e+02,60,3,3,1,3.789143e-01,4,1,0,3.200000e+00,1
39,884,5,3.512000e+01,66,1,2,0,6.682333e-01,3,1,0,1.300000e+00,1
39,885,5,1.087400e+02,8,3,3,1,2.777845e-01,1,1,0,3.200000e+00,1
39,886,5,1.087400e+02,8,3,1,0,5.598428e-01,2,1,0,3.200000e+00,1
39,887,5,2.309000e+01,13,1,1,1,1.774612e-01,4,1,0,1.300000e+00,1
39,888,5,3.512000e+01,66,1,2,0,1.636010e-04,4,1,0,1.300000e+00,1
39,889,5,1.306900e+02,19,3,3,1,4.287118e-01,3,1,0,3.200000e+00,1
39,890,5,8.434000e+01,51,2,3,0,2.780607e-01,3,1,0,2.300000e+00,1
39,891,5,1.167500e+02,25,3,3,1,4.235831e-01,3,1,0,3.200000e+00,1
39,892,5,2.050000e+00,68,1,1,1,4.091941e-01,3,1,0,1.300000e+00,1
39,893,5,3.840000e+00,56,1,1,1,3.391511e-01,4,1,0,1.200000e+00,1
39,894,5,9.865000e+01,33,3,3,1,7.637841e-02,3,1,0,3.200000e+00,1
39,895,5,5.760000e+00,27,1,1,1,1.463957e-04,3,1,0,1.200000e+00,1
39,896,5,5.719000e+01,12,2,2,1,7.180754e-02,3,1,0,2.300000e+00,1
39,897,5,6.728000e+01,46,2,3,0,4.014701e-01,4,1,0,2.100000e+00,1
39,898,5,2.050000e+00,68,1,1,1,3.471842e-02,4,1,0,1.300000e+00,1
39,899,5,1.087400e+02,8,3,2,0,3.805183e-01,3,1,0,3.200000e+00,1
39,900,5,1.306900e+02,19,3,3,1,3.737829e-02,4,1,0,3.200000e+00,1
39,901,5,5.760000e+00,27,1,1,1,3.591385e-01,4,1,0,1.200000e+00,1
39,902,5,1.020600e+02,34,3,3,1,7.610050e-01,3,1,0,3.100000e+00,1
39,903,5,1.914000e+01,18,1,1,1,6.826377e-01,3,1,0,1.300000e+00,1
39,904,5,1.410800e+02,58,3,2,0,3.318102e-01,4,1,0,3.100000e+00,1
39,905,5,1.000200e+02,39,3,3,1,1.418680e-04,4,1,0,3.100000e+00,1
39,906,5,3.597000e+01,6,1,1,1,2.386543e-01,3,1,0,1.300000e+00,1
39,907,5,1.282000e+01,52,1,3,0,4.084053e-01,3,1,0,1.200000e+00,1
39,908,5,9.865000e+01,33,3,3,1,3.543911e-01,4,1,0,3.200000e+00,1
39,909,5,1.221500e+02,30,3,1,0,1.876678e-01,2,1,0,3.100000e+00,1
39,910,5,2.593000e+01,20,1,1,1,3.570371e-01,4,1,0,1.200000e+00,1
39,911,5,1.221500e+02,30,3,3,1,4.065348e-01,3,1,0,3.100000e+00,1
39,912,5,7.236000e+01,72,2,2,1,2.398822e-01,4,1,0,2.100000e+00,1
39,913,5,1.221500e+02,30,3,3,1,4.962422e-02,4,1,0,3.100000e+00,1
39,914,5,7.229000e+01,4,2,1,0,7.467922e-01,4,1,0,2.300000e+00,1
39,915,5,1.207000e+02,16,3,3,1,5.563169e-01,3,1,0,3.200000e+00,1
39,916,5,5.719000e+01,12,2,2,1,6.215780e-01,4,1,0,2.300000e+00,1
39,917,5,1.167500e+02,25,3,3,1,1.439809e-04,4,1,0,3.200000e+00,1
39,918,5,3.095000e+01,35,1,3,0,1.304674e+00,4,1,0,1.200000e+00,1
39,919,5,4.180000e+01,23,1,3,0,4.416671e-01,4,1,0,1.200000e+00,1
39,920,5,5.128000e+01,43,2,3,0,3.878227e-01,4,1,0,2.300000e+00,1
39,921,5,4.511000e+01,17,1,1,1,1.253691e+00,4,1,0,1.300000e+00,1
39,922,5,4.399000e+01,11,1,1,1,3.746993e-01,4,1,0,1.300000e+00,1
39,923,5,1.187300e+02,57,3,3,1,2.885160e-01,4,1,0,3.200000e+00,1
39,924,5,1.207000e+02,16,3,2,0,1.459481e-01,4,1,0,3.200000e+00,1
39,925,5,1.282000e+01,52,1,1,1,3.230428e-01,4,1,0,1.200000e+00,1
39,926,5,1.351000e+02,54,3,3,1,3.324039e-01,4,1,0,3.100000e+00,1
39,927,5,3.788000e+01,22,1,1,1,3.259191e-01,3,1,0,1.200000e+00,1
39,928,5,3.788000e+01,22,1,1,1,3.598729e-01,4,1,0,1.200000e+00,1
39,929,5,8.533000e+01,69,2,2,1,9.380136e-01,3,1,0,2.100000e+00,1
39,930,5,1.436300e+02,1,3,3,1,2.753006e-01,2,1,0,3.200000e+00,1
39,931,5,1.914000e+01,18,1,1,1,6.527337e-01,4,1,0,1.300000e+00,1
39,932,5,5.947000e+01,36,2,2,1,3.106613e-01,4,1,0,2.100000e+00,1
39,933,5,1.020600e+02,34,3,3,1,1.080315e+00,4,1,0,3.100000e+00,1
39,934,5,8.148000e+01,47,2,1,0,5.378475e-01,4,1,0,2.100000e+00,1
39,935,5,1.255700e+02,5,3,3,1,4.829407e-01,4,1,0,3.200000e+00,1
39,936,5,6.744000e+01,24,2,2,1,6.528469e-01,4,1,0,2.300000e+00,1
39,937,5,1.417000e+01,29,1,1,1,3.821631e-01,4,1,0,1.300000e+00,1
39,938,5,6.536000e+01,10,2,3,0,6.397214e-01,3,1,0,2.300000e+00,1
39,939,5,6.536000e+01,10,2,2,1,5.129213e-01,4,1,0,2.300000e+00,1
39,940,5,1.436300e+02,1,3,3,1,2.904083e-01,3,1,0,3.200000e+00,1
39,941,5,8.533000e+01,69,2,2,1,7.317134e-01,4,1,0,2.100000e+00,1
39,942,5,8.434000e+01,51,2,1,0,3.096136e-01,4,1,0,2.300000e+00,1
39,943,5,1.324900e+02,71,3,3,1,9.351452e-01,4,1,0,3.200000e+00,1
39,944,5,1.087400e+02,8,3,1,0,7.045768e-01,4,1,0,3.200000e+00,1
39,945,5,1.436300e+02,1,3,2,0,1.460139e-01,4,1,0,3.200000e+00,1
39,946,5,3.597000e+01,6,1,1,1,1.476797e-01,4,1,0,1.300000e+00,1
39,947,5,5.324000e+01,70,2,1,0,5.251847e-01,4,1,0,2.300000e+00,1
39,948,6,80,23,1,1,1,9.186176e-01,NaN,2,0,2,1
39,949,6,8,58,1,1,1,1.705207e+00,NaN,2,0,1,1
39,950,6,109,13,2,2,1,9.954442e-01,NaN,2,0,3,1
39,951,6,42,7,2,2,1,1.161398e+00,NaN,2,1,1,1
39,952,6,57,5,2,2,1,1.105002e+00,NaN,2,0,2,1
39,953,6,133,31,2,2,1,1.091435e+00,NaN,2,0,3,1
39,954,6,128,43,1,1,1,9.656984e-01,NaN,2,0,3,1
39,955,6,88,22,1,1,1,8.775365e-01,NaN,2,0,2,1
39,956,6,39,38,1,1,1,9.045923e-01,NaN,2,0,1,1
39,957,6,110,2,1,1,1,9.143519e-01,NaN,2,0,3,1
39,958,6,96,48,2,2,1,1.116000e+00,NaN,2,1,2,1
39,959,6,76,27,1,1,1,6.536202e-01,NaN,2,0,2,1
39,960,6,63,1,2,2,1,7.375020e-01,NaN,2,0,2,1
39,961,6,9,65,1,1,1,6.826356e-01,NaN,2,1,1,1
39,962,6,129,4,1,2,0,1.157125e+00,NaN,2,0,3,1
39,963,6,82,52,1,1,1,1.236945e+00,NaN,2,0,2,1
39,964,6,105,68,1,1,1,1.161365e+00,NaN,2,0,3,1
39,965,6,87,26,2,2,1,8.576696e-01,NaN,2,0,2,1
39,966,6,28,46,1,1,1,1.077514e+00,NaN,2,0,1,1
39,967,6,31,41,1,2,0,1.552984e+00,NaN,2,1,1,1
39,968,6,92,45,1,1,1,9.608894e-01,NaN,2,1,2,1
39,969,6,117,29,1,1,1,1.752667e+00,NaN,2,0,3,1
39,970,6,142,50,2,2,1,1.225142e+00,NaN,2,1,3,1
39,971,6,74,8,1,1,1,6.467233e-01,NaN,2,0,2,1
39,972,6,10,54,2,2,1,2.418381e+00,NaN,2,0,1,1
39,973,6,144,24,2,2,1,1.264062e+00,NaN,2,0,3,1
39,974,6,21,42,1,1,1,9.790111e-01,NaN,2,0,1,1
39,975,6,123,59,1,1,1,1.257812e+00,NaN,2,1,3,1
39,976,6,137,21,1,1,1,1.117817e+00,NaN,2,1,3,1
39,977,6,124,70,2,2,1,7.749919e-01,NaN,2,0,3,1
39,978,6,47,36,1,1,1,7.029118e-01,NaN,2,0,1,1
39,979,6,54,3,2,2,1,8.088133e-01,NaN,2,0,2,1
39,980,6,84,56,2,2,1,7.185520e-01,NaN,2,0,2,1
39,981,6,65,33,1,1,1,9.280889e-01,NaN,2,0,2,1
39,982,6,78,63,2,2,1,8.094897e-01,NaN,2,1,2,1
39,983,6,70,16,1,1,1,7.836033e-01,NaN,2,0,2,1
39,984,6,2,39,2,2,1,1.142011e+00,NaN,2,0,1,1
39,985,6,91,53,2,2,1,8.067670e-01,NaN,2,1,2,1
39,986,6,7,28,2,2,1,1.140519e+00,NaN,2,1,1,1
39,987,6,49,71,1,1,1,7.737320e-01,NaN,2,0,2,1
39,988,6,23,44,2,2,1,1.244950e+00,NaN,2,1,1,1
39,989,6,111,17,2,2,1,1.441472e+00,NaN,2,0,3,1
39,990,6,138,62,2,1,0,1.134256e+00,NaN,2,1,3,1
39,991,6,58,64,2,2,1,1.134782e+00,NaN,2,0,2,1
39,992,6,114,18,2,2,1,1.159514e+00,NaN,2,0,3,1
39,993,6,115,61,1,2,0,2.191783e+00,NaN,2,1,3,1
39,994,6,112,66,2,2,1,1.294653e+00,NaN,2,0,3,1
39,995,6,99,11,2,0,0,3.499764e+00,NaN,2,0,3,1
39,996,6,4,40,1,1,1,1.219121e+00,NaN,2,0,1,1
39,997,6,62,60,1,2,0,1.312366e+00,NaN,2,0,2,1
39,998,6,93,20,2,2,1,7.778341e-01,NaN,2,0,2,1
39,999,6,15,30,1,1,1,7.370984e-01,NaN,2,0,1,1
39,1000,6,38,32,1,1,1,1.810143e+00,NaN,2,0,1,1
39,1001,6,6,34,2,2,1,1.047913e+00,NaN,2,0,1,1
39,1002,6,136,10,2,2,1,1.139964e+00,NaN,2,0,3,1
39,1003,6,75,25,2,2,1,6.766696e-01,NaN,2,0,2,1
39,1004,6,29,9,1,1,1,1.455751e+00,NaN,2,1,1,1
39,1005,6,46,55,1,1,1,1.340297e+00,NaN,2,0,1,1
39,1006,6,95,35,2,2,1,1.036903e+00,NaN,2,0,2,1
39,1007,6,73,57,2,1,0,1.121273e+00,NaN,2,0,2,1
39,1008,6,106,14,1,1,1,1.147054e+00,NaN,2,0,3,1
39,1009,6,103,37,1,1,1,9.787467e-01,NaN,2,1,3,1
39,1010,6,45,15,2,2,1,1.409514e+00,NaN,2,1,1,1
39,1011,6,97,6,1,1,1,1.607670e+00,NaN,2,0,3,1
39,1012,6,33,69,1,1,1,8.776452e-01,NaN,2,0,1,1
39,1013,6,26,49,1,1,1,8.490126e-01,NaN,2,1,1,1
39,1014,6,17,67,2,2,1,1.085248e+00,NaN,2,0,1,1
39,1015,6,134,51,1,1,1,1.583661e+00,NaN,2,0,3,1
39,1016,6,69,19,1,1,1,8.222204e-01,NaN,2,0,2,1
39,1017,6,36,72,2,2,1,1.235438e+00,NaN,2,0,1,1
39,1018,6,119,12,1,2,0,1.936145e+00,NaN,2,0,3,1
39,1019,6,48,47,1,1,1,9.292136e-01,NaN,2,0,1,1
39,1020,6,126,44,1,1,1,1.929560e+00,NaN,1,1,3,1
39,1021,6,51,59,1,1,1,1.114846e+00,NaN,1,1,2,1
39,1022,6,83,51,2,2,1,1.299831e+00,NaN,1,0,2,1
39,1023,6,41,23,1,1,1,1.134241e+00,NaN,1,0,1,1
39,1024,6,35,6,1,2,0,1.038738e+00,NaN,1,0,1,1
39,1025,6,102,34,1,1,1,1.355614e+00,NaN,1,0,3,1
39,1026,6,116,25,2,2,1,1.123383e+00,NaN,1,0,3,1
39,1027,6,14,37,1,1,1,1.340454e+00,NaN,1,1,1,1
39,1028,6,30,35,2,2,1,1.397557e+00,NaN,1,0,1,1
39,1029,6,85,69,1,1,1,7.395726e-01,NaN,1,0,2,1
39,1030,6,89,50,2,2,1,8.519025e-01,NaN,1,1,2,1
39,1031,6,24,53,1,1,1,1.151974e+00,NaN,1,1,1,1
39,1032,6,81,47,1,1,1,1.456470e+00,NaN,1,0,2,1
39,1033,6,100,39,2,2,1,1.308302e+00,NaN,1,0,3,1
39,1034,6,107,40,2,2,1,1.158035e+00,NaN,1,0,3,1
39,1035,6,127,3,2,2,1,1.094146e+00,NaN,1,0,3,1
39,1036,6,122,30,2,2,1,1.233074e+00,NaN,1,0,3,1
39,1037,6,130,19,2,1,0,1.677836e+00,NaN,1,0,3,1
39,1038,6,20,61,1,1,1,1.296820e+00,NaN,1,1,1,1
39,1039,6,139,60,2,2,1,1.075399e+00,NaN,1,0,3,1
39,1040,6,1,68,1,1,1,7.583529e-01,NaN,1,0,1,1
39,1041,6,94,31,2,2,1,1.286368e+00,NaN,1,0,2,1
39,1042,6,101,49,1,1,1,1.097142e+00,NaN,1,1,3,1
39,1043,6,64,10,1,1,1,7.472154e-01,NaN,1,0,2,1
39,1044,6,50,43,1,1,1,1.194960e+00,NaN,1,0,2,1
39,1045,6,34,66,2,2,1,1.370773e+00,NaN,1,0,1,1
39,1046,6,86,41,1,1,1,1.401377e+00,NaN,1,1,2,1
39,1047,6,12,52,2,2,1,1.655469e+00,NaN,1,0,1,1
39,1048,6,44,17,1,1,1,1.499339e+00,NaN,1,0,1,1
39,1049,6,61,9,2,2,1,7.892225e-01,NaN,1,1,2,1
39,1050,6,120,16,2,2,1,1.699875e+00,NaN,1,0,3,1
39,1051,6,55,21,1,2,0,1.638224e+00,NaN,1,1,2,1
39,1052,6,141,58,2,2,1,1.602609e+00,NaN,1,0,3,1
39,1053,6,108,8,2,2,1,1.312664e+00,NaN,1,0,3,1
39,1054,6,3,56,2,2,1,1.913945e+00,NaN,1,0,1,1
39,1055,6,77,55,2,2,1,1.595424e+00,NaN,1,0,2,1
39,1056,6,40,63,1,1,1,1.185507e+00,NaN,1,1,1,1
39,1057,6,27,2,1,1,1,1.144256e+00,NaN,1,0,1,1
39,1058,6,53,38,1,1,1,8.969486e-01,NaN,1,0,2,1
39,1059,6,25,20,2,2,1,1.315235e+00,NaN,1,0,1,1
39,1060,6,125,5,2,2,1,1.516473e+00,NaN,1,0,3,1
39,1061,6,13,29,2,2,1,1.341701e+00,NaN,1,0,1,1
39,1062,6,56,12,2,2,1,9.183601e-01,NaN,1,0,2,1
39,1063,6,143,1,2,1,0,1.144001e+00,NaN,1,0,3,1
39,1064,6,52,70,1,1,1,1.160585e+00,NaN,1,0,2,1
39,1065,6,66,24,1,1,1,1.240484e+00,NaN,1,0,2,1
39,1066,6,11,14,1,1,1,1.189077e+00,NaN,1,0,1,1
39,1067,6,121,65,2,2,1,1.556740e+00,NaN,1,1,3,1
39,1068,6,71,4,2,2,1,8.761616e-01,NaN,1,0,2,1
39,1069,6,135,54,2,2,1,8.154491e-01,NaN,1,0,3,1
39,1070,6,98,33,2,1,0,1.268977e+00,NaN,1,0,3,1
39,1071,6,113,28,1,1,1,1.416134e+00,NaN,1,1,3,1
39,1072,6,43,11,2,2,1,9.253352e-01,NaN,1,0,1,1
39,1073,6,32,45,2,1,0,1.054565e+00,NaN,1,1,1,1
39,1074,6,104,67,2,1,0,1.114645e+00,NaN,1,0,3,1
39,1075,6,18,18,1,1,1,1.292398e+00,NaN,1,0,1,1
39,1076,6,59,36,1,2,0,1.390863e+00,NaN,1,0,2,1
39,1077,6,131,64,2,2,1,1.621459e+00,NaN,1,0,3,1
39,1078,6,16,48,1,2,0,1.995102e+00,NaN,1,1,1,1
39,1079,6,140,42,1,1,1,1.921154e+00,NaN,1,0,3,1
39,1080,6,60,15,1,1,1,1.618311e+00,NaN,1,1,2,1
39,1081,6,22,13,1,1,1,1.807522e+00,NaN,1,0,1,1
39,1082,6,132,71,2,2,1,1.261554e+00,NaN,1,0,3,1
39,1083,6,37,22,2,2,1,1.209698e+00,NaN,1,0,1,1
39,1084,6,72,72,2,2,1,1.167884e+00,NaN,1,0,2,1
39,1085,6,5,27,1,1,1,2.063191e+00,NaN,1,0,1,1
39,1086,6,118,57,2,2,1,2.106454e+00,NaN,1,0,3,1
39,1087,6,90,62,2,1,0,1.108754e+00,NaN,1,1,2,1
39,1088,6,79,32,1,1,1,8.384127e-01,NaN,1,0,2,1
39,1089,6,67,46,1,2,0,7.313023e-01,NaN,1,0,2,1
39,1090,6,68,7,1,1,1,6.759032e-01,NaN,1,1,2,1
39,1091,6,19,26,1,1,1,1.407141e+00,NaN,1,0,1,1
