Subject,Trial,Cond,ImageNum,CueNum,Correct,Resp,Accuracy,RT,CueRep,ImageType,Baseline,Category,Block
50,1,1,140,NaN,NaN,1,NaN,9.048394e+00,NaN,0,1,3,1
50,2,1,113,NaN,NaN,1,NaN,2.043786e+00,NaN,1,1,3,1
50,3,1,86,NaN,NaN,1,NaN,1.116187e+00,NaN,1,1,2,1
50,4,1,45,NaN,NaN,2,NaN,5.529644e+00,NaN,2,0,1,1
50,5,1,121,NaN,NaN,2,NaN,1.077344e+00,NaN,0,0,3,1
50,6,1,2,NaN,NaN,1,NaN,5.886861e-01,NaN,0,0,1,1
50,7,1,140,NaN,NaN,1,NaN,3.015017e+00,NaN,2,1,3,1
50,8,1,52,NaN,NaN,1,NaN,1.576329e+00,NaN,1,0,2,1
50,9,1,142,NaN,NaN,1,NaN,1.923478e+00,NaN,0,0,3,1
50,10,1,32,NaN,NaN,2,NaN,5.364142e-01,NaN,1,1,1,1
50,11,1,99,NaN,NaN,2,NaN,3.140577e+00,NaN,0,0,3,1
50,12,1,135,NaN,NaN,1,NaN,1.152894e+00,NaN,0,1,3,1
50,13,1,139,NaN,NaN,2,NaN,9.571989e-01,NaN,1,0,3,1
50,14,1,126,NaN,NaN,2,NaN,8.811992e-01,NaN,1,0,3,1
50,15,1,118,NaN,NaN,1,NaN,5.119520e-01,NaN,0,0,3,1
50,16,1,43,NaN,NaN,2,NaN,1.485082e-04,NaN,2,1,1,1
50,17,1,68,NaN,NaN,1,NaN,5.115605e-01,NaN,1,0,2,1
50,18,1,71,NaN,NaN,1,NaN,7.888199e-01,NaN,1,0,2,1
50,19,1,33,NaN,NaN,2,NaN,1.071479e+00,NaN,0,0,1,1
50,20,1,74,NaN,NaN,1,NaN,7.749582e-01,NaN,0,1,2,1
50,21,1,2,NaN,NaN,1,NaN,7.375809e-01,NaN,1,0,1,1
50,22,1,47,NaN,NaN,1,NaN,7.900442e-01,NaN,0,0,1,1
50,23,1,129,NaN,NaN,2,NaN,6.567297e-01,NaN,0,0,3,1
50,24,1,106,NaN,NaN,1,NaN,5.525065e-01,NaN,1,0,3,1
50,25,1,4,NaN,NaN,1,NaN,5.259000e-02,NaN,1,1,1,1
50,26,1,9,NaN,NaN,1,NaN,4.689459e-01,NaN,1,0,1,1
50,27,1,87,NaN,NaN,1,NaN,4.450687e-02,NaN,0,1,2,1
50,28,1,122,NaN,NaN,1,NaN,3.348847e+00,NaN,1,1,3,1
50,29,1,3,NaN,NaN,1,NaN,1.528666e+00,NaN,0,0,1,1
50,30,1,132,NaN,NaN,2,NaN,9.175774e-01,NaN,1,0,3,1
50,31,1,21,NaN,NaN,2,NaN,7.389519e-01,NaN,2,0,1,1
50,32,1,25,NaN,NaN,1,NaN,1.255679e-04,NaN,0,0,1,1
50,33,1,104,NaN,NaN,2,NaN,1.153909e+00,NaN,0,1,3,1
50,34,1,62,NaN,NaN,1,NaN,5.974357e-01,NaN,2,0,2,1
50,35,1,122,NaN,NaN,2,NaN,6.075536e-01,NaN,0,1,3,1
50,36,1,95,NaN,NaN,1,NaN,7.293976e-01,NaN,0,0,2,1
50,37,1,22,NaN,NaN,2,NaN,8.624552e-02,NaN,2,0,1,1
50,38,1,8,NaN,NaN,1,NaN,2.136163e-01,NaN,2,1,1,1
50,39,1,82,NaN,NaN,1,NaN,1.102701e+00,NaN,2,0,2,1
50,40,1,59,NaN,NaN,1,NaN,7.170732e-01,NaN,0,0,2,1
50,41,1,116,NaN,NaN,1,NaN,6.744954e-01,NaN,0,0,3,1
50,42,1,32,NaN,NaN,1,NaN,5.219449e-01,NaN,0,1,1,1
50,43,1,124,NaN,NaN,2,NaN,2.038567e+00,NaN,2,0,3,1
50,44,1,54,NaN,NaN,1,NaN,3.834046e-01,NaN,1,0,2,1
50,45,1,23,NaN,NaN,1,NaN,7.937922e-01,NaN,2,0,1,1
50,46,1,117,NaN,NaN,1,NaN,1.220515e+00,NaN,1,1,3,1
50,47,1,105,NaN,NaN,2,NaN,3.277287e+00,NaN,2,0,3,1
50,48,1,64,NaN,NaN,1,NaN,8.362402e-01,NaN,1,1,2,1
50,49,1,31,NaN,NaN,1,NaN,2.051185e-01,NaN,1,0,1,1
50,50,1,24,NaN,NaN,2,NaN,7.906675e-01,NaN,1,0,1,1
50,51,1,42,NaN,NaN,1,NaN,7.135096e-01,NaN,1,0,1,1
50,52,1,13,NaN,NaN,1,NaN,9.824715e-01,NaN,1,1,1,1
50,53,1,125,NaN,NaN,1,NaN,6.975924e-01,NaN,0,1,3,1
50,54,1,93,NaN,NaN,1,NaN,1.079842e+00,NaN,0,0,2,1
50,55,1,101,NaN,NaN,2,NaN,3.014049e+00,NaN,2,1,3,1
50,56,1,96,NaN,NaN,1,NaN,5.274844e-01,NaN,2,0,2,1
50,57,1,42,NaN,NaN,1,NaN,3.246527e-01,NaN,0,0,1,1
50,58,1,134,NaN,NaN,2,NaN,4.273892e+00,NaN,0,0,3,1
50,59,1,142,NaN,NaN,1,NaN,8.567041e-01,NaN,2,0,3,1
50,60,1,19,NaN,NaN,1,NaN,1.488101e+00,NaN,2,0,1,1
50,61,1,74,NaN,NaN,1,NaN,5.345917e-01,NaN,2,1,2,1
50,62,1,14,NaN,NaN,1,NaN,5.233811e-01,NaN,2,0,1,1
50,63,1,53,NaN,NaN,1,NaN,9.369097e-01,NaN,0,0,2,1
50,64,1,100,NaN,NaN,2,NaN,2.589179e+00,NaN,2,0,3,1
50,65,1,28,NaN,NaN,2,NaN,3.835390e-01,NaN,2,1,1,1
50,66,1,69,NaN,NaN,1,NaN,3.704156e-01,NaN,0,1,2,1
50,67,1,11,NaN,NaN,1,NaN,8.212511e-01,NaN,1,1,1,1
50,68,1,65,NaN,NaN,1,NaN,1.142486e+00,NaN,2,0,2,1
50,69,1,93,NaN,NaN,1,NaN,1.088034e-02,NaN,1,0,2,1
50,70,1,55,NaN,NaN,1,NaN,5.648243e-01,NaN,0,0,2,1
50,71,1,131,NaN,NaN,2,NaN,9.125978e-01,NaN,0,0,3,1
50,72,1,91,NaN,NaN,1,NaN,2.501694e+00,NaN,0,0,2,1
50,73,1,120,NaN,NaN,1,NaN,2.099969e+00,NaN,1,0,3,1
50,74,1,109,NaN,NaN,1,NaN,6.417609e-01,NaN,1,0,3,1
50,75,1,41,NaN,NaN,2,NaN,6.343122e-01,NaN,2,1,1,1
50,76,1,138,NaN,NaN,1,NaN,3.290790e+00,NaN,2,0,3,1
50,77,1,109,NaN,NaN,1,NaN,1.672967e+00,NaN,0,0,3,1
50,78,1,37,NaN,NaN,2,NaN,9.361916e-01,NaN,1,0,1,1
50,79,1,133,NaN,NaN,2,NaN,1.445060e+00,NaN,0,0,3,1
50,80,1,5,NaN,NaN,1,NaN,3.248580e-01,NaN,0,0,1,1
50,81,1,115,NaN,NaN,2,NaN,2.362182e+00,NaN,0,0,3,1
50,82,1,106,NaN,NaN,1,NaN,1.252660e-04,NaN,0,0,3,1
50,83,1,94,NaN,NaN,1,NaN,5.755259e-01,NaN,2,0,2,1
50,84,1,6,NaN,NaN,1,NaN,1.186719e+00,NaN,2,0,1,1
50,85,1,137,NaN,NaN,1,NaN,1.605041e+00,NaN,2,0,3,1
50,86,1,36,NaN,NaN,2,NaN,2.887013e+00,NaN,2,0,1,1
50,87,1,66,NaN,NaN,1,NaN,5.654639e-01,NaN,0,0,2,1
50,88,1,17,NaN,NaN,1,NaN,2.568678e-01,NaN,1,0,1,1
50,89,1,131,NaN,NaN,1,NaN,1.064370e+00,NaN,1,0,3,1
50,90,1,49,NaN,NaN,1,NaN,1.351977e+00,NaN,1,0,2,1
50,91,1,111,NaN,NaN,2,NaN,1.147888e+00,NaN,1,0,3,1
50,92,1,38,NaN,NaN,1,NaN,2.424206e+00,NaN,1,1,1,1
50,93,1,135,NaN,NaN,1,NaN,8.090221e-01,NaN,2,1,3,1
50,94,1,101,NaN,NaN,1,NaN,1.098791e+00,NaN,0,1,3,1
50,95,1,70,NaN,NaN,1,NaN,5.608182e-01,NaN,2,0,2,1
50,96,1,46,NaN,NaN,1,NaN,9.806719e-01,NaN,0,1,1,1
50,97,1,18,NaN,NaN,1,NaN,9.036825e-01,NaN,0,0,1,1
50,98,1,107,NaN,NaN,1,NaN,1.773131e+00,NaN,0,1,3,1
50,99,1,123,NaN,NaN,1,NaN,1.360606e+00,NaN,0,0,3,1
50,100,1,79,NaN,NaN,1,NaN,5.402335e-01,NaN,0,0,2,1
50,101,1,16,NaN,NaN,1,NaN,1.224868e+00,NaN,2,0,1,1
50,102,1,34,NaN,NaN,1,NaN,1.729447e+00,NaN,2,0,1,1
50,103,1,89,NaN,NaN,1,NaN,1.258697e-04,NaN,1,0,2,1
50,104,1,35,NaN,NaN,2,NaN,3.416382e+00,NaN,1,0,1,1
50,105,1,15,NaN,NaN,2,NaN,3.321556e+00,NaN,1,0,1,1
50,106,1,123,NaN,NaN,1,NaN,1.905266e-01,NaN,2,0,3,1
50,107,1,33,NaN,NaN,1,NaN,2.171289e-01,NaN,1,0,1,1
50,108,1,64,NaN,NaN,1,NaN,6.024177e-01,NaN,0,1,2,1
50,109,1,75,NaN,NaN,1,NaN,5.568721e-01,NaN,0,0,2,1
50,110,1,51,NaN,NaN,1,NaN,7.603175e-01,NaN,1,0,2,1
50,111,1,133,NaN,NaN,2,NaN,8.047305e-01,NaN,1,0,3,1
50,112,1,129,NaN,NaN,2,NaN,9.180036e-01,NaN,2,0,3,1
50,113,1,87,NaN,NaN,1,NaN,7.158435e-01,NaN,1,1,2,1
50,114,1,97,NaN,NaN,2,NaN,9.694574e-01,NaN,1,0,3,1
50,115,1,12,NaN,NaN,1,NaN,7.567895e-01,NaN,1,1,1,1
50,116,1,128,NaN,NaN,2,NaN,1.112335e+00,NaN,2,0,3,1
50,117,1,49,NaN,NaN,1,NaN,8.595997e-02,NaN,0,0,2,1
50,118,1,75,NaN,NaN,1,NaN,5.329285e-01,NaN,2,0,2,1
50,119,1,7,NaN,NaN,1,NaN,3.281394e+00,NaN,2,0,1,1
50,120,1,66,NaN,NaN,1,NaN,7.677960e-01,NaN,1,0,2,1
50,121,1,21,NaN,NaN,0,NaN,9.995015e+00,NaN,0,0,1,1
50,122,1,92,NaN,NaN,1,NaN,1.968147e-01,NaN,2,0,2,1
50,123,1,10,NaN,NaN,1,NaN,3.346644e-01,NaN,1,0,1,1
50,124,1,9,NaN,NaN,1,NaN,1.507670e+00,NaN,0,0,1,1
50,125,1,36,NaN,NaN,2,NaN,3.054415e-01,NaN,0,0,1,1
50,126,1,45,NaN,NaN,2,NaN,1.263982e+00,NaN,0,0,1,1
50,127,1,81,NaN,NaN,1,NaN,8.465965e-01,NaN,2,1,2,1
50,128,1,5,NaN,NaN,1,NaN,6.147879e-01,NaN,1,0,1,1
50,129,1,143,NaN,NaN,2,NaN,1.282365e-01,NaN,0,0,3,1
50,130,1,90,NaN,NaN,1,NaN,9.413716e-01,NaN,1,0,2,1
50,131,1,73,NaN,NaN,1,NaN,1.400565e-03,NaN,0,1,2,1
50,132,1,138,NaN,NaN,1,NaN,7.321320e-01,NaN,0,0,3,1
50,133,1,56,NaN,NaN,1,NaN,7.210147e-01,NaN,0,0,2,1
50,134,1,94,NaN,NaN,1,NaN,4.460775e-01,NaN,0,0,2,1
50,135,1,103,NaN,NaN,2,NaN,1.301958e+00,NaN,0,0,3,1
50,136,1,88,NaN,NaN,1,NaN,4.600653e-01,NaN,0,1,2,1
50,137,1,30,NaN,NaN,2,NaN,1.148020e+00,NaN,0,0,1,1
50,138,1,26,NaN,NaN,1,NaN,3.852320e-01,NaN,1,0,1,1
50,139,1,40,NaN,NaN,2,NaN,1.443167e+00,NaN,0,0,1,1
50,140,1,127,NaN,NaN,1,NaN,1.107248e+00,NaN,0,0,3,1
50,141,1,137,NaN,NaN,1,NaN,3.455363e-01,NaN,0,0,3,1
50,142,1,12,NaN,NaN,1,NaN,6.056118e-01,NaN,0,1,1,1
50,143,1,84,NaN,NaN,1,NaN,8.233109e-01,NaN,0,0,2,1
50,144,1,85,NaN,NaN,1,NaN,4.404831e-01,NaN,1,0,2,1
50,145,1,28,NaN,NaN,2,NaN,2.971573e-01,NaN,0,1,1,1
50,146,1,96,NaN,NaN,1,NaN,3.828583e-01,NaN,0,0,2,1
50,147,1,136,NaN,NaN,2,NaN,3.154094e+00,NaN,0,0,3,1
50,148,1,70,NaN,NaN,1,NaN,1.261426e+00,NaN,0,0,2,1
50,149,1,14,NaN,NaN,1,NaN,7.411862e-01,NaN,0,0,1,1
50,150,1,110,NaN,NaN,2,NaN,1.241792e+00,NaN,2,1,3,1
50,151,1,125,NaN,NaN,1,NaN,4.742041e-01,NaN,1,1,3,1
50,152,1,89,NaN,NaN,1,NaN,7.055026e-01,NaN,0,0,2,1
50,153,1,144,NaN,NaN,1,NaN,1.734947e+00,NaN,1,0,3,1
50,154,1,46,NaN,NaN,2,NaN,4.198178e-01,NaN,2,1,1,1
50,155,1,20,NaN,NaN,1,NaN,7.088081e-01,NaN,2,0,1,1
50,156,1,51,NaN,NaN,1,NaN,1.282845e-04,NaN,0,0,2,1
50,157,1,80,NaN,NaN,1,NaN,4.929840e-01,NaN,2,1,2,1
50,158,1,60,NaN,NaN,1,NaN,1.346233e-04,NaN,2,1,2,1
50,159,1,68,NaN,NaN,1,NaN,1.270771e-04,NaN,0,0,2,1
50,160,1,56,NaN,NaN,1,NaN,6.724109e-01,NaN,1,0,2,1
50,161,1,55,NaN,NaN,1,NaN,4.635351e-01,NaN,1,0,2,1
50,162,1,34,NaN,NaN,2,NaN,8.065367e-01,NaN,0,0,1,1
50,163,1,57,NaN,NaN,1,NaN,4.324869e-01,NaN,0,1,2,1
50,164,1,120,NaN,NaN,2,NaN,1.537384e+00,NaN,0,0,3,1
50,165,1,18,NaN,NaN,1,NaN,5.496906e-01,NaN,2,0,1,1
50,166,1,119,NaN,NaN,2,NaN,9.617987e-01,NaN,2,0,3,1
50,167,1,48,NaN,NaN,1,NaN,3.969648e-01,NaN,1,0,1,1
50,168,1,50,NaN,NaN,1,NaN,1.343283e+00,NaN,0,1,2,1
50,169,1,79,NaN,NaN,1,NaN,6.757080e-01,NaN,1,0,2,1
50,170,1,44,NaN,NaN,2,NaN,5.298549e+00,NaN,0,0,1,1
50,171,1,50,NaN,NaN,1,NaN,5.522053e-01,NaN,1,1,2,1
50,172,1,47,NaN,NaN,1,NaN,5.484754e-01,NaN,1,0,1,1
50,173,1,57,NaN,NaN,1,NaN,3.768353e-01,NaN,1,1,2,1
50,174,1,80,NaN,NaN,1,NaN,5.077986e-01,NaN,0,1,2,1
50,175,1,69,NaN,NaN,1,NaN,2.417843e-01,NaN,2,1,2,1
50,176,1,52,NaN,NaN,1,NaN,3.061716e-01,NaN,0,0,2,1
50,177,1,98,NaN,NaN,1,NaN,1.000205e+00,NaN,0,0,3,1
50,178,1,108,NaN,NaN,2,NaN,4.265517e-01,NaN,2,1,3,1
50,179,1,15,NaN,NaN,2,NaN,1.323396e+00,NaN,0,0,1,1
50,180,1,72,NaN,NaN,1,NaN,3.365056e-01,NaN,0,1,2,1
50,181,1,1,NaN,NaN,1,NaN,7.730143e-01,NaN,1,0,1,1
50,182,1,24,NaN,NaN,2,NaN,1.008143e+00,NaN,0,0,1,1
50,183,1,144,NaN,NaN,1,NaN,8.102461e-01,NaN,0,0,3,1
50,184,1,98,NaN,NaN,1,NaN,1.636005e-04,NaN,1,0,3,1
50,185,1,29,NaN,NaN,1,NaN,1.820586e-01,NaN,2,0,1,1
50,186,1,61,NaN,NaN,1,NaN,1.040937e+00,NaN,1,0,2,1
50,187,1,17,NaN,NaN,1,NaN,4.975615e-01,NaN,0,0,1,1
50,188,1,83,NaN,NaN,1,NaN,1.998742e-01,NaN,1,0,2,1
50,189,1,25,NaN,NaN,1,NaN,5.701515e-01,NaN,2,0,1,1
50,190,1,78,NaN,NaN,1,NaN,8.129268e-01,NaN,0,0,2,1
50,191,1,112,NaN,NaN,1,NaN,4.867829e-01,NaN,0,0,3,1
50,192,1,19,NaN,NaN,1,NaN,5.171568e-01,NaN,0,0,1,1
50,193,1,38,NaN,NaN,1,NaN,1.306755e+00,NaN,0,1,1,1
50,194,1,40,NaN,NaN,0,NaN,9.995171e+00,NaN,1,0,1,1
50,195,1,43,NaN,NaN,1,NaN,6.732552e-01,NaN,0,1,1,1
50,196,1,11,NaN,NaN,2,NaN,3.601658e-01,NaN,0,1,1,1
50,197,1,102,NaN,NaN,2,NaN,2.732083e+00,NaN,0,0,3,1
50,198,1,90,NaN,NaN,1,NaN,4.967146e-01,NaN,0,0,2,1
50,199,1,67,NaN,NaN,1,NaN,3.667430e-01,NaN,2,0,2,1
50,200,1,141,NaN,NaN,1,NaN,2.827807e-01,NaN,2,0,3,1
50,201,1,139,NaN,NaN,2,NaN,3.134983e-01,NaN,0,0,3,1
50,202,1,30,NaN,NaN,2,NaN,7.109717e-01,NaN,2,0,1,1
50,203,1,130,NaN,NaN,2,NaN,4.683746e-01,NaN,1,0,3,1
50,204,1,76,NaN,NaN,1,NaN,4.201477e-01,NaN,2,0,2,1
50,205,1,91,NaN,NaN,1,NaN,9.494224e-01,NaN,2,0,2,1
50,206,1,119,NaN,NaN,2,NaN,5.215221e-01,NaN,0,0,3,1
50,207,1,141,NaN,NaN,1,NaN,4.786968e-01,NaN,0,0,3,1
50,208,1,48,NaN,NaN,1,NaN,2.934920e-01,NaN,0,0,1,1
50,209,1,121,NaN,NaN,2,NaN,2.523039e-01,NaN,1,0,3,1
50,210,1,63,NaN,NaN,1,NaN,9.237752e-02,NaN,2,0,2,1
50,211,1,85,NaN,NaN,1,NaN,2.908237e-01,NaN,0,0,2,1
50,212,1,7,NaN,NaN,1,NaN,9.616514e-01,NaN,0,0,1,1
50,213,1,124,NaN,NaN,2,NaN,7.646176e-01,NaN,0,0,3,1
50,214,1,31,NaN,NaN,1,NaN,6.242450e-01,NaN,0,0,1,1
50,215,1,3,NaN,NaN,2,NaN,6.414958e-01,NaN,2,0,1,1
50,216,1,27,NaN,NaN,2,NaN,1.506062e+00,NaN,0,1,1,1
50,217,1,114,NaN,NaN,1,NaN,4.559457e-01,NaN,2,0,3,1
50,218,1,41,NaN,NaN,2,NaN,6.876701e-01,NaN,0,1,1,1
50,219,1,62,NaN,NaN,1,NaN,3.824233e-01,NaN,0,0,2,1
50,220,1,1,NaN,NaN,1,NaN,1.290922e-01,NaN,0,0,1,1
50,221,1,104,NaN,NaN,2,NaN,2.619020e-01,NaN,2,1,3,1
50,222,1,117,NaN,NaN,2,NaN,2.614462e-01,NaN,0,1,3,1
50,223,1,112,NaN,NaN,1,NaN,3.328974e-01,NaN,1,0,3,1
50,224,1,127,NaN,NaN,1,NaN,4.660775e-01,NaN,1,0,3,1
50,225,1,6,NaN,NaN,2,NaN,5.776370e-01,NaN,0,0,1,1
50,226,1,130,NaN,NaN,2,NaN,3.407297e-01,NaN,0,0,3,1
50,227,1,128,NaN,NaN,1,NaN,3.212772e-01,NaN,0,0,3,1
50,228,1,29,NaN,NaN,1,NaN,1.246372e+00,NaN,0,0,1,1
50,229,1,111,NaN,NaN,2,NaN,1.454332e+00,NaN,0,0,3,1
50,230,1,76,NaN,NaN,1,NaN,3.180698e-01,NaN,0,0,2,1
50,231,1,136,NaN,NaN,2,NaN,4.676770e-01,NaN,2,0,3,1
50,232,1,35,NaN,NaN,2,NaN,4.514679e-01,NaN,0,0,1,1
50,233,1,26,NaN,NaN,1,NaN,3.793361e-01,NaN,0,0,1,1
50,234,1,37,NaN,NaN,2,NaN,8.623694e-01,NaN,0,0,1,1
50,235,1,116,NaN,NaN,1,NaN,9.255216e-01,NaN,2,0,3,1
50,236,1,8,NaN,NaN,1,NaN,4.667823e-01,NaN,0,1,1,1
50,237,1,105,NaN,NaN,2,NaN,6.666124e-01,NaN,0,0,3,1
50,238,1,59,NaN,NaN,1,NaN,3.220421e-01,NaN,1,0,2,1
50,239,1,44,NaN,NaN,1,NaN,4.070280e-01,NaN,2,0,1,1
50,240,1,27,NaN,NaN,1,NaN,1.025308e+00,NaN,1,1,1,1
50,241,1,134,NaN,NaN,2,NaN,1.194014e+00,NaN,1,0,3,1
50,242,1,63,NaN,NaN,1,NaN,3.566659e-01,NaN,0,0,2,1
50,243,1,71,NaN,NaN,1,NaN,4.562455e-01,NaN,0,0,2,1
50,244,1,83,NaN,NaN,1,NaN,6.001813e-01,NaN,0,0,2,1
50,245,1,84,NaN,NaN,1,NaN,1.650041e+00,NaN,2,0,2,1
50,246,1,114,NaN,NaN,1,NaN,6.504881e-01,NaN,0,0,3,1
50,247,1,99,NaN,NaN,2,NaN,1.067368e+00,NaN,2,0,3,1
50,248,1,20,NaN,NaN,1,NaN,1.986159e+00,NaN,0,0,1,1
50,249,1,107,NaN,NaN,1,NaN,2.148746e+00,NaN,1,1,3,1
50,250,1,118,NaN,NaN,1,NaN,4.406500e-01,NaN,1,0,3,1
50,251,1,72,NaN,NaN,1,NaN,1.291040e-01,NaN,2,1,2,1
50,252,1,10,NaN,NaN,1,NaN,1.462227e+00,NaN,0,0,1,1
50,253,1,100,NaN,NaN,2,NaN,7.575278e-01,NaN,0,0,3,1
50,254,1,132,NaN,NaN,2,NaN,3.851680e-01,NaN,0,0,3,1
50,255,1,115,NaN,NaN,2,NaN,5.161139e-01,NaN,2,0,3,1
50,256,1,86,NaN,NaN,1,NaN,2.578045e-01,NaN,0,1,2,1
50,257,1,73,NaN,NaN,1,NaN,3.934812e-01,NaN,1,1,2,1
50,258,1,16,NaN,NaN,1,NaN,2.016149e-02,NaN,0,0,1,1
50,259,1,126,NaN,NaN,1,NaN,9.412535e-01,NaN,0,0,3,1
50,260,1,143,NaN,NaN,2,NaN,1.343214e-04,NaN,2,0,3,1
50,261,1,77,NaN,NaN,1,NaN,4.599700e-01,NaN,0,0,2,1
50,262,1,22,NaN,NaN,2,NaN,1.451778e+00,NaN,0,0,1,1
50,263,1,81,NaN,NaN,1,NaN,3.399539e-01,NaN,0,1,2,1
50,264,1,78,NaN,NaN,1,NaN,3.927465e-01,NaN,2,0,2,1
50,265,1,60,NaN,NaN,1,NaN,3.949937e-01,NaN,0,1,2,1
50,266,1,54,NaN,NaN,1,NaN,3.573602e-01,NaN,0,0,2,1
50,267,1,82,NaN,NaN,1,NaN,3.375114e-01,NaN,0,0,2,1
50,268,1,108,NaN,NaN,1,NaN,2.317679e+00,NaN,0,1,3,1
50,269,1,102,NaN,NaN,2,NaN,2.352662e-01,NaN,1,0,3,1
50,270,1,113,NaN,NaN,1,NaN,8.919177e-01,NaN,0,1,3,1
50,271,1,13,NaN,NaN,1,NaN,1.194362e+00,NaN,0,1,1,1
50,272,1,95,NaN,NaN,1,NaN,5.086719e-01,NaN,2,0,2,1
50,273,1,97,NaN,NaN,1,NaN,6.347852e-01,NaN,0,0,3,1
50,274,1,92,NaN,NaN,1,NaN,3.555747e-01,NaN,0,0,2,1
50,275,1,39,NaN,NaN,2,NaN,1.273790e-04,NaN,0,0,1,1
50,276,1,103,NaN,NaN,2,NaN,4.175235e-01,NaN,2,0,3,1
50,277,1,65,NaN,NaN,1,NaN,5.309786e-01,NaN,0,0,2,1
50,278,1,88,NaN,NaN,1,NaN,5.998342e-01,NaN,2,1,2,1
50,279,1,23,NaN,NaN,2,NaN,4.024433e-01,NaN,0,0,1,1
50,280,1,39,NaN,NaN,2,NaN,5.003781e-01,NaN,2,0,1,1
50,281,1,58,NaN,NaN,1,NaN,8.665524e-01,NaN,0,0,2,1
50,282,1,61,NaN,NaN,1,NaN,4.421390e-01,NaN,0,0,2,1
50,283,1,110,NaN,NaN,1,NaN,5.306689e-01,NaN,0,1,3,1
50,284,1,4,NaN,NaN,1,NaN,1.757377e-01,NaN,0,1,1,1
50,285,1,67,NaN,NaN,1,NaN,3.384951e-01,NaN,0,0,2,1
50,286,1,53,NaN,NaN,1,NaN,5.194351e-01,NaN,2,0,2,1
50,287,1,77,NaN,NaN,1,NaN,4.206443e-01,NaN,2,0,2,1
50,288,1,58,NaN,NaN,1,NaN,3.258810e-01,NaN,1,0,2,1
50,396,2,122,19,1,1,1,3.145269e+00,NaN,1,1,3,1
50,397,2,38,11,2,2,1,1.177221e+00,NaN,1,1,1,1
50,398,2,35,4,1,1,1,1.791491e+00,NaN,1,0,1,1
50,399,2,40,18,1,1,1,1.516805e+00,NaN,1,0,1,1
50,400,2,132,58,2,2,1,2.205235e+00,NaN,1,0,3,1
50,401,2,121,3,2,1,0,1.665939e+00,NaN,1,0,3,1
50,402,2,71,22,1,1,1,1.332421e+00,NaN,1,0,2,1
50,403,2,11,17,2,2,1,2.588789e+00,NaN,1,1,1,1
50,404,2,13,25,1,1,1,1.425811e+00,NaN,1,1,1,1
50,405,2,126,64,1,2,0,2.182022e+00,NaN,1,0,3,1
50,406,2,12,12,1,1,1,1.875591e+00,NaN,1,1,1,1
50,407,2,98,47,1,2,0,1.573880e+00,NaN,1,0,3,1
50,408,2,102,41,2,2,1,1.212678e+00,NaN,1,0,3,1
50,409,2,56,50,2,1,0,1.824800e+00,NaN,1,0,2,1
50,410,2,61,56,2,2,1,1.381547e+00,NaN,1,0,2,1
50,411,2,79,30,2,2,1,8.909612e-01,NaN,1,0,2,1
50,412,2,59,14,2,2,1,1.124293e+00,NaN,1,0,2,1
50,413,2,86,66,1,1,1,1.284727e+00,NaN,1,1,2,1
50,414,2,33,29,2,1,0,1.886541e+00,NaN,1,0,1,1
50,415,2,130,70,2,2,1,1.952177e+00,NaN,1,0,3,1
50,416,2,133,57,2,1,0,1.406996e+00,NaN,1,0,3,1
50,417,2,37,45,1,1,1,2.555643e+00,NaN,1,0,1,1
50,418,2,93,20,1,1,1,1.338488e+00,NaN,1,0,2,1
50,419,2,68,55,1,1,1,1.682090e+00,NaN,1,0,2,1
50,420,3,71,22,1,1,1,1.847897e+00,NaN,1,0,2,1
50,421,3,37,45,2,2,1,1.402928e+00,NaN,1,0,1,1
50,422,3,79,30,2,2,1,8.001702e-01,NaN,1,0,2,1
50,423,3,102,41,2,2,1,8.693403e-01,NaN,1,0,3,1
50,424,3,132,58,1,2,0,1.103742e+00,NaN,1,0,3,1
50,425,3,98,47,2,1,0,2.040592e+00,NaN,1,0,3,1
50,426,3,130,70,1,1,1,2.155992e+00,NaN,1,0,3,1
50,427,3,121,3,1,1,1,2.378753e+00,NaN,1,0,3,1
50,428,3,38,11,2,2,1,1.240454e+00,NaN,1,1,1,1
50,429,3,12,12,1,1,1,2.579793e+00,NaN,1,1,1,1
50,430,3,61,56,2,2,1,1.081737e+00,NaN,1,0,2,1
50,431,3,68,55,2,2,1,1.259298e+00,NaN,1,0,2,1
50,432,3,56,50,1,2,0,1.494268e+00,NaN,1,0,2,1
50,433,3,122,19,2,2,1,2.559953e+00,NaN,1,1,3,1
50,434,3,59,14,2,1,0,1.062869e+00,NaN,1,0,2,1
50,435,3,40,18,2,2,1,1.521030e+00,NaN,1,0,1,1
50,436,3,126,64,1,1,1,8.895691e-01,NaN,1,0,3,1
50,437,3,93,20,2,2,1,1.066793e+00,NaN,1,0,2,1
50,438,3,133,57,2,2,1,9.012369e-01,NaN,1,0,3,1
50,439,3,35,4,2,2,1,1.318501e+00,NaN,1,0,1,1
50,440,3,13,25,2,1,0,9.030338e-01,NaN,1,1,1,1
50,441,3,33,29,2,1,0,1.656473e+00,NaN,1,0,1,1
50,442,3,11,17,1,1,1,1.411237e+00,NaN,1,1,1,1
50,443,3,86,66,1,1,1,1.095951e+00,NaN,1,1,2,1
50,468,2,52,1,1,1,1,1.281900e+00,NaN,1,0,2,2
50,469,2,57,69,1,1,1,1.124297e+00,NaN,1,1,2,2
50,470,2,27,35,2,2,1,1.516391e+00,NaN,1,1,1,2
50,471,2,32,2,2,2,1,8.286300e-01,NaN,1,1,1,2
50,472,2,47,42,2,2,1,1.968968e+00,NaN,1,0,1,2
50,473,2,109,32,2,2,1,1.135446e+00,NaN,1,0,3,2
50,474,2,4,68,2,2,1,1.014829e+00,NaN,1,1,1,2
50,475,2,144,5,2,2,1,1.755368e+00,NaN,1,0,3,2
50,476,2,58,23,2,2,1,1.578515e+00,NaN,1,0,2,2
50,477,2,31,67,1,1,1,9.439092e-01,NaN,1,0,1,2
50,478,2,51,46,1,1,1,1.183892e+00,NaN,1,0,2,2
50,479,2,9,44,2,2,1,1.429328e+00,NaN,1,0,1,2
50,480,2,112,7,1,1,1,1.121376e+00,NaN,1,0,3,2
50,481,2,107,61,1,1,1,1.121828e+00,NaN,1,1,3,2
50,482,2,15,9,2,2,1,1.633645e+00,NaN,1,0,1,2
50,483,2,89,31,2,2,1,1.693776e+00,NaN,1,0,2,2
50,484,2,85,49,1,1,1,8.309959e-01,NaN,1,0,2,2
50,485,2,111,36,2,2,1,1.130957e+00,NaN,1,0,3,2
50,486,2,5,71,2,2,1,1.562875e+00,NaN,1,0,1,2
50,487,2,55,33,1,1,1,1.049454e+00,NaN,1,0,2,2
50,488,2,24,60,1,1,1,1.596517e+00,NaN,1,0,1,2
50,489,2,26,40,2,2,1,1.265791e+00,NaN,1,0,1,2
50,490,2,17,63,1,0,0,3.499510e+00,NaN,1,0,1,2
50,491,2,48,10,2,2,1,9.330962e-01,NaN,1,0,1,2
50,492,3,58,23,1,1,1,1.115254e+00,NaN,1,0,2,2
50,493,3,51,46,1,1,1,6.515343e-01,NaN,1,0,2,2
50,494,3,4,68,1,1,1,1.583164e+00,NaN,1,1,1,2
50,495,3,144,5,1,1,1,1.253266e+00,NaN,1,0,3,2
50,496,3,26,40,1,1,1,2.352253e+00,NaN,1,0,1,2
50,497,3,55,33,1,1,1,1.071500e+00,NaN,1,0,2,2
50,498,3,17,63,2,2,1,1.409922e+00,NaN,1,0,1,2
50,499,3,89,31,1,1,1,1.126624e+00,NaN,1,0,2,2
50,500,3,15,9,2,2,1,1.079030e+00,NaN,1,0,1,2
50,501,3,27,35,1,1,1,1.088694e+00,NaN,1,1,1,2
50,502,3,111,36,1,1,1,1.370407e+00,NaN,1,0,3,2
50,503,3,32,2,2,2,1,1.128173e+00,NaN,1,1,1,2
50,504,3,24,60,2,2,1,6.562763e-01,NaN,1,0,1,2
50,505,3,107,61,1,1,1,8.754801e-01,NaN,1,1,3,2
50,506,3,109,32,2,2,1,9.174295e-01,NaN,1,0,3,2
50,507,3,85,49,1,1,1,7.662406e-01,NaN,1,0,2,2
50,508,3,52,1,1,1,1,1.388467e+00,NaN,1,0,2,2
50,509,3,9,44,2,2,1,1.482005e+00,NaN,1,0,1,2
50,510,3,112,7,2,2,1,8.996761e-01,NaN,1,0,3,2
50,511,3,31,67,1,1,1,1.029102e+00,NaN,1,0,1,2
50,512,3,57,69,1,1,1,1.264727e+00,NaN,1,1,2,2
50,513,3,5,71,1,1,1,1.739645e+00,NaN,1,0,1,2
50,514,3,47,42,2,2,1,1.658768e+00,NaN,1,0,1,2
50,515,3,48,10,2,2,1,1.061950e+00,NaN,1,0,1,2
50,540,2,90,52,1,1,1,1.981494e+00,NaN,1,0,2,3
50,541,2,49,51,2,2,1,1.475019e+00,NaN,1,0,2,3
50,542,2,54,24,2,2,1,1.877088e+00,NaN,1,0,2,3
50,543,2,64,8,2,2,1,1.311201e+00,NaN,1,1,2,3
50,544,2,66,38,1,1,1,1.407805e+00,NaN,1,0,2,3
50,545,2,117,59,2,2,1,1.596645e+00,NaN,1,1,3,3
50,546,2,73,65,2,2,1,1.385569e+00,NaN,1,1,2,3
50,547,2,42,15,1,1,1,8.399281e-01,NaN,1,0,1,3
50,548,2,118,43,1,1,1,9.792264e-01,NaN,1,0,3,3
50,549,2,134,6,2,2,1,1.337239e+00,NaN,1,0,3,3
50,550,2,139,21,1,1,1,1.904497e+00,NaN,1,0,3,3
50,551,2,87,39,1,1,1,6.251895e-01,NaN,1,1,2,3
50,552,2,10,28,1,1,1,1.045507e+00,NaN,1,0,1,3
50,553,2,125,34,1,1,1,7.689690e-01,NaN,1,1,3,3
50,554,2,2,72,2,2,1,1.463440e+00,NaN,1,0,1,3
50,555,2,106,16,1,1,1,1.042106e+00,NaN,1,0,3,3
50,556,2,97,13,1,1,1,7.900617e-01,NaN,1,0,3,3
50,557,2,113,62,1,1,1,8.994799e-01,NaN,1,1,3,3
50,558,2,50,37,2,2,1,1.276974e+00,NaN,1,1,2,3
50,559,2,127,53,1,1,1,9.989363e-01,NaN,1,0,3,3
50,560,2,120,54,1,1,1,1.699998e+00,NaN,1,0,3,3
50,561,2,1,48,1,1,1,1.029012e+00,NaN,1,0,1,3
50,562,2,131,27,1,1,1,8.010733e-01,NaN,1,0,3,3
50,563,2,83,26,1,1,1,7.183304e-01,NaN,1,0,2,3
50,564,3,83,26,2,2,1,7.698437e-01,NaN,1,0,2,3
50,565,3,118,43,2,2,1,1.336249e+00,NaN,1,0,3,3
50,566,3,97,13,2,2,1,7.837268e-01,NaN,1,0,3,3
50,567,3,139,21,1,1,1,1.453951e+00,NaN,1,0,3,3
50,568,3,120,54,1,1,1,1.352957e+00,NaN,1,0,3,3
50,569,3,90,52,1,1,1,2.823685e+00,NaN,1,0,2,3
50,570,3,66,38,2,2,1,8.754228e-01,NaN,1,0,2,3
50,571,3,106,16,1,1,1,8.538230e-01,NaN,1,0,3,3
50,572,3,10,28,1,1,1,7.447344e-01,NaN,1,0,1,3
50,573,3,113,62,1,1,1,1.184651e+00,NaN,1,1,3,3
50,574,3,64,8,2,2,1,1.158532e+00,NaN,1,1,2,3
50,575,3,1,48,2,2,1,1.133145e+00,NaN,1,0,1,3
50,576,3,49,51,2,2,1,7.171858e-01,NaN,1,0,2,3
50,577,3,2,72,1,1,1,7.257637e-01,NaN,1,0,1,3
50,578,3,73,65,2,2,1,7.259101e-01,NaN,1,1,2,3
50,579,3,127,53,2,2,1,9.662446e-01,NaN,1,0,3,3
50,580,3,131,27,2,2,1,5.007774e-01,NaN,1,0,3,3
50,581,3,42,15,1,1,1,2.029969e+00,NaN,1,0,1,3
50,582,3,50,37,1,2,0,2.041545e+00,NaN,1,1,2,3
50,583,3,125,34,1,1,1,1.317530e+00,NaN,1,1,3,3
50,584,3,87,39,1,1,1,4.383137e-01,NaN,1,1,2,3
50,585,3,117,59,2,2,1,8.258935e-01,NaN,1,1,3,3
50,586,3,54,24,2,2,1,1.062402e+00,NaN,1,0,2,3
50,587,3,134,6,1,1,1,1.352653e+00,NaN,1,0,3,3
50,612,4,138,31,2,2,1,8.412861e-01,NaN,2,0,3,1
50,613,4,20,27,1,1,1,8.050477e-01,NaN,2,0,1,1
50,614,4,45,22,2,2,1,9.455518e-01,NaN,2,0,1,1
50,615,4,100,40,1,1,1,1.281018e+00,NaN,2,0,3,1
50,616,4,70,5,2,2,1,6.431059e-01,NaN,2,0,2,1
50,617,4,43,66,1,1,1,1.270300e+00,NaN,2,1,1,1
50,618,4,41,37,2,2,1,1.320490e+00,NaN,2,1,1,1
50,619,4,30,55,2,2,1,1.384508e+00,NaN,2,0,1,1
50,620,4,124,20,1,1,1,1.422524e+00,NaN,2,0,3,1
50,621,4,136,46,1,1,1,8.986948e-01,NaN,2,0,3,1
50,622,4,77,42,2,2,1,1.627778e+00,NaN,2,0,2,1
50,623,4,110,11,2,2,1,8.000938e-01,NaN,2,1,3,1
50,624,4,72,19,2,2,1,8.376791e-01,NaN,2,1,2,1
50,625,4,65,32,2,2,1,1.377025e+00,NaN,2,0,2,1
50,626,4,25,56,2,1,0,3.006874e+00,NaN,2,0,1,1
50,627,4,74,59,2,2,1,1.371562e+00,NaN,2,1,2,1
50,628,4,140,65,1,1,1,1.537545e+00,NaN,2,1,3,1
50,629,4,101,12,2,2,1,1.345514e+00,NaN,2,1,3,1
50,630,4,82,29,2,2,1,1.048825e+00,NaN,2,0,2,1
50,631,4,16,64,2,2,1,2.859602e+00,NaN,2,0,1,1
50,632,4,142,51,2,2,1,1.078161e+00,NaN,2,0,3,1
50,633,4,67,58,1,1,1,2.664261e+00,NaN,2,0,2,1
50,634,4,19,70,1,1,1,1.266266e+00,NaN,2,0,1,1
50,635,4,8,61,2,1,0,9.169353e-01,NaN,2,1,1,1
50,660,4,39,1,1,1,1,1.409554e+00,NaN,2,0,1,2
50,661,4,95,15,1,1,1,1.150676e+00,NaN,2,0,2,2
50,662,4,96,9,2,2,1,7.978113e-01,NaN,2,0,2,2
50,663,4,143,50,2,2,1,8.668458e-01,NaN,2,0,3,2
50,664,4,28,69,1,1,1,6.936820e-01,NaN,2,1,1,2
50,665,4,81,35,2,2,1,7.193772e-01,NaN,2,1,2,2
50,666,4,29,52,2,2,1,2.151844e+00,NaN,2,0,1,2
50,667,4,46,39,1,1,1,7.271292e-01,NaN,2,1,1,2
50,668,4,114,10,2,2,1,8.077833e-01,NaN,2,0,3,2
50,669,4,88,17,2,2,1,6.528072e-01,NaN,2,1,2,2
50,670,4,92,71,1,1,1,7.838735e-01,NaN,2,0,2,2
50,671,4,76,7,1,1,1,7.015022e-01,NaN,2,0,2,2
50,672,4,18,43,1,1,1,6.468213e-01,NaN,2,0,1,2
50,673,4,7,36,2,2,1,9.060490e-01,NaN,2,0,1,2
50,674,4,104,68,1,1,1,1.227012e+00,NaN,2,1,3,2
50,675,4,115,45,2,1,0,1.855467e+00,NaN,2,0,3,2
50,676,4,53,57,2,2,1,9.458196e-01,NaN,2,0,2,2
50,677,4,34,26,1,1,1,1.105472e+00,NaN,2,0,1,2
50,678,4,105,18,1,1,1,1.770259e+00,NaN,2,0,3,2
50,679,4,78,67,1,1,1,8.722184e-01,NaN,2,0,2,2
50,680,4,14,6,1,1,1,1.498262e+00,NaN,2,0,1,2
50,681,4,137,30,2,2,1,1.027559e+00,NaN,2,0,3,2
50,682,4,60,34,1,1,1,1.735642e+00,NaN,2,1,2,2
50,683,4,91,60,1,1,1,9.275724e-01,NaN,2,0,2,2
50,708,4,99,4,2,2,1,8.858334e-01,NaN,2,0,3,3
50,709,4,128,49,2,2,1,1.759759e+00,NaN,2,0,3,3
50,710,4,141,33,1,1,1,1.350048e+00,NaN,2,0,3,3
50,711,4,94,63,2,2,1,1.221565e+00,NaN,2,0,2,3
50,712,4,22,3,2,2,1,8.976558e-01,NaN,2,0,1,3
50,713,4,6,16,1,1,1,1.130868e+00,NaN,2,0,1,3
50,714,4,75,47,1,1,1,7.307263e-01,NaN,2,0,2,3
50,715,4,80,25,2,2,1,7.544792e-01,NaN,2,1,2,3
50,716,4,84,48,2,2,1,5.376412e-01,NaN,2,0,2,3
50,717,4,69,62,1,2,0,7.291332e-01,NaN,2,1,2,3
50,718,4,21,54,1,1,1,9.933917e-01,NaN,2,0,1,3
50,719,4,123,14,2,2,1,1.774874e+00,NaN,2,0,3,3
50,720,4,108,2,2,2,1,7.088048e-01,NaN,2,1,3,3
50,721,4,129,38,2,2,1,7.101338e-01,NaN,2,0,3,3
50,722,4,3,13,1,1,1,1.214788e+00,NaN,2,0,1,3
50,723,4,36,24,2,2,1,2.739106e+00,NaN,2,0,1,3
50,724,4,23,21,1,1,1,6.983636e-01,NaN,2,0,1,3
50,725,4,44,23,1,1,1,1.163545e+00,NaN,2,0,1,3
50,726,4,135,8,2,2,1,6.985405e-01,NaN,2,1,3,3
50,727,4,119,72,1,1,1,9.559661e-01,NaN,2,0,3,3
50,728,4,116,44,2,2,1,1.450608e+00,NaN,2,0,3,3
50,729,4,103,28,2,1,0,2.166307e+00,NaN,2,0,3,3
50,730,4,62,41,1,2,0,1.212225e+00,NaN,2,0,2,3
50,731,4,63,53,1,1,1,1.593084e+00,NaN,2,0,2,3
50,732,5,7.145000e+01,22,2,0,0,2.500012e+00,1,1,0,2.100000e+00,1
50,733,5,1.261600e+02,64,3,1,0,1.113188e+00,1,1,0,3.100000e+00,1
50,734,5,4.105000e+01,18,1,2,0,1.130256e+00,1,1,0,1.300000e+00,1
50,735,5,1.301900e+02,70,3,1,0,1.523652e+00,1,1,0,3.100000e+00,1
50,736,5,1.261600e+02,64,3,3,1,1.301605e+00,2,1,0,3.100000e+00,1
50,737,5,9.424000e+01,20,2,2,1,5.511875e-01,1,1,0,2.300000e+00,1
50,738,5,9.038000e+01,31,2,3,0,2.722158e-01,1,1,0,2.300000e+00,1
50,739,5,1.301900e+02,70,3,2,0,1.041523e+00,2,1,0,3.100000e+00,1
50,740,5,2.491000e+01,60,1,1,1,2.674780e-01,1,1,0,1.200000e+00,1
50,741,5,1.335300e+02,57,3,3,1,5.086997e-01,1,1,0,3.200000e+00,1
50,742,5,9.875000e+01,47,3,2,0,2.297403e-01,1,1,0,3.200000e+00,1
50,743,5,1.110700e+02,36,3,1,0,5.829743e-01,1,1,0,3.100000e+00,1
50,744,5,6.125000e+01,56,2,2,1,9.450580e-01,1,1,0,2.100000e+00,1
50,745,5,9.875000e+01,47,3,3,1,3.461979e-01,2,1,0,3.200000e+00,1
50,746,5,4.777000e+01,42,1,2,0,2.836874e-01,1,1,0,1.200000e+00,1
50,747,5,1.447000e+02,5,3,2,0,2.933966e-01,1,1,0,3.200000e+00,1
50,748,5,1.060600e+02,16,3,1,0,1.903331e-01,1,1,0,3.100000e+00,1
50,749,5,5.743000e+01,50,2,3,0,4.239443e-01,1,1,0,2.300000e+00,1
50,750,5,3.815000e+01,45,1,2,0,6.331969e-01,1,1,0,1.300000e+00,1
50,751,5,9.424000e+01,20,2,2,1,3.068200e-01,2,1,0,2.300000e+00,1
50,752,5,1.794000e+01,63,1,3,0,2.841001e-01,1,1,0,1.200000e+00,1
50,753,5,5.920000e+00,71,1,3,0,3.172270e-01,1,1,0,1.200000e+00,1
50,754,5,5.042000e+01,51,2,3,0,1.028114e-01,1,1,0,2.300000e+00,1
50,755,5,5.743000e+01,50,2,1,0,6.318075e-01,2,1,0,2.300000e+00,1
50,756,5,1.794000e+01,63,1,1,1,3.293938e-01,2,1,0,1.200000e+00,1
50,757,5,1.202100e+02,54,3,2,0,2.586892e-01,1,1,0,3.100000e+00,1
50,758,5,8.628000e+01,49,2,2,1,3.401296e-01,1,1,0,2.300000e+00,1
50,759,5,8.334000e+01,26,2,1,0,6.615538e-01,1,1,0,2.100000e+00,1
50,760,5,1.212200e+02,3,3,2,0,7.589727e-01,1,1,0,3.100000e+00,1
50,761,5,6.023000e+01,14,2,3,0,2.722309e-01,1,1,0,2.300000e+00,1
50,762,5,4.295000e+01,15,1,2,0,2.415872e-01,1,1,0,1.200000e+00,1
50,763,5,8.628000e+01,49,2,3,0,5.129448e-02,2,1,0,2.300000e+00,1
50,764,5,8.334000e+01,26,2,1,0,8.123439e-01,2,1,0,2.100000e+00,1
50,765,5,1.840000e+00,48,1,2,0,2.862036e-01,1,1,0,1.200000e+00,1
50,766,5,3.382000e+01,29,1,3,0,2.789931e-01,1,1,0,1.200000e+00,1
50,767,5,1.202100e+02,54,3,1,0,7.286315e-01,2,1,0,3.100000e+00,1
50,768,5,5.641000e+01,33,2,2,1,3.297123e-01,1,1,0,2.300000e+00,1
50,769,5,1.312000e+02,27,3,3,1,2.907881e-01,1,1,0,3.100000e+00,1
50,770,5,5.239000e+01,1,2,1,0,3.162581e-01,1,1,0,2.100000e+00,1
50,771,5,1.212200e+02,3,3,3,1,2.540039e-01,2,1,0,3.100000e+00,1
50,772,5,3.815000e+01,45,1,2,0,2.873947e-01,2,1,0,1.300000e+00,1
50,773,5,9.703000e+01,13,3,3,1,2.404534e-01,1,1,0,3.100000e+00,1
50,774,5,5.236000e+01,46,2,1,0,2.737377e-01,1,1,0,2.300000e+00,1
50,775,5,1.447000e+02,5,3,3,1,3.394489e-01,2,1,0,3.200000e+00,1
50,776,5,1.096500e+02,32,3,2,0,3.004836e-01,1,1,0,3.200000e+00,1
50,777,5,6.729000e+01,38,2,1,0,5.098147e-01,1,1,0,2.300000e+00,1
50,778,5,1.335300e+02,57,3,1,0,2.069069e-01,2,1,0,3.200000e+00,1
50,779,5,9.029000e+01,52,2,2,1,9.682962e-01,1,1,0,2.100000e+00,1
50,780,5,6.023000e+01,14,2,3,0,8.815080e-01,2,1,0,2.300000e+00,1
50,781,5,3.178000e+01,67,1,2,0,5.867751e-01,1,1,0,1.200000e+00,1
50,782,5,1.181800e+02,43,3,1,0,5.400083e-01,1,1,0,3.100000e+00,1
50,783,5,1.261600e+02,64,3,2,0,3.257801e-01,3,1,0,3.100000e+00,1
50,784,5,7.145000e+01,22,2,2,1,2.468936e-01,2,1,0,2.100000e+00,1
50,785,5,9.424000e+01,20,2,2,1,2.722762e-01,3,1,0,2.300000e+00,1
50,786,5,1.276300e+02,53,3,3,1,2.179683e-01,1,1,0,3.200000e+00,1
50,787,5,1.096500e+02,32,3,3,1,3.065423e-01,2,1,0,3.200000e+00,1
50,788,5,1.103000e+01,28,1,2,0,2.600251e-01,1,1,0,1.300000e+00,1
50,789,5,9.038000e+01,31,2,3,0,2.932855e-01,2,1,0,2.300000e+00,1
50,790,5,1.326700e+02,58,3,1,0,2.306640e-01,1,1,0,3.200000e+00,1
50,791,5,9.029000e+01,52,2,2,1,2.638833e-01,2,1,0,2.100000e+00,1
50,792,5,5.743000e+01,50,2,2,1,2.256642e-01,3,1,0,2.300000e+00,1
50,793,5,4.105000e+01,18,1,1,1,2.505170e-01,2,1,0,1.300000e+00,1
50,794,5,5.743000e+01,50,2,2,1,2.764114e-01,4,1,0,2.300000e+00,1
50,795,5,3.382000e+01,29,1,1,1,5.496170e-01,2,1,0,1.200000e+00,1
50,796,5,8.037000e+01,30,2,1,0,2.630448e-01,1,1,0,2.300000e+00,1
50,797,5,3.190000e+00,72,1,2,0,2.486673e-01,1,1,0,1.300000e+00,1
50,798,5,8.334000e+01,26,2,3,0,2.499903e-01,3,1,0,2.100000e+00,1
50,799,5,4.295000e+01,15,1,3,0,2.112921e-01,2,1,0,1.200000e+00,1
50,800,5,9.703000e+01,13,3,1,0,4.126677e-01,2,1,0,3.100000e+00,1
50,801,5,5.042000e+01,51,2,2,1,1.277827e+00,2,1,0,2.300000e+00,1
50,802,5,1.181800e+02,43,3,2,0,2.635911e-01,2,1,0,3.100000e+00,1
50,803,5,3.599000e+01,4,1,1,1,2.727552e-01,1,1,0,1.300000e+00,1
50,804,5,6.830000e+01,55,2,2,1,2.178440e-01,1,1,0,2.100000e+00,1
50,805,5,1.026200e+02,41,3,2,0,2.272643e-01,1,1,0,3.200000e+00,1
50,806,5,9.029000e+01,52,2,4,0,1.076541e+00,3,1,0,2.100000e+00,1
50,807,5,4.295000e+01,15,1,1,1,6.619012e-01,3,1,0,1.200000e+00,1
50,808,5,1.127600e+02,7,3,1,0,3.431411e-01,1,1,0,3.200000e+00,1
50,809,5,5.236000e+01,46,2,2,1,2.727458e-01,2,1,0,2.300000e+00,1
50,810,5,8.037000e+01,30,2,1,0,2.577900e-01,2,1,0,2.300000e+00,1
50,811,5,1.840000e+00,48,1,3,0,2.193116e-01,2,1,0,1.200000e+00,1
50,812,5,3.190000e+00,72,1,1,1,2.523911e-01,2,1,0,1.300000e+00,1
50,813,5,1.127600e+02,7,3,2,0,2.219986e-01,2,1,0,3.200000e+00,1
50,814,5,1.840000e+00,48,1,2,0,3.429866e-01,3,1,0,1.200000e+00,1
50,815,5,1.103000e+01,28,1,1,1,2.803964e-01,2,1,0,1.300000e+00,1
50,816,5,1.447000e+02,5,3,2,0,3.775392e-01,3,1,0,3.200000e+00,1
50,817,5,1.312000e+02,27,3,0,0,2.500021e+00,2,1,0,3.100000e+00,1
50,818,5,5.436000e+01,24,2,3,0,3.088750e-01,1,1,0,2.100000e+00,1
50,819,5,1.335300e+02,57,3,2,0,2.141838e-01,3,1,0,3.200000e+00,1
50,820,5,1.016000e+01,44,1,1,1,4.954710e-01,1,1,0,1.300000e+00,1
50,821,5,1.060600e+02,16,3,0,0,2.500618e+00,2,1,0,3.100000e+00,1
50,822,5,3.815000e+01,45,1,1,1,2.747609e-01,3,1,0,1.300000e+00,1
50,823,5,1.026200e+02,41,3,1,0,2.364326e-01,2,1,0,3.200000e+00,1
50,824,5,6.023000e+01,14,2,3,0,2.777359e-01,3,1,0,2.300000e+00,1
50,825,5,4.914000e+01,10,1,1,1,3.032081e-01,1,1,0,1.300000e+00,1
50,826,5,1.312000e+02,27,3,2,0,4.563858e-01,3,1,0,3.100000e+00,1
50,827,5,1.312000e+02,27,3,3,1,6.979769e-01,4,1,0,3.100000e+00,1
50,828,5,2.491000e+01,60,1,1,1,2.031211e-01,2,1,0,1.200000e+00,1
50,829,5,9.875000e+01,47,3,2,0,2.128167e-01,3,1,0,3.200000e+00,1
50,830,5,1.110700e+02,36,3,2,0,7.014777e-01,2,1,0,3.100000e+00,1
50,831,5,3.599000e+01,4,1,1,1,2.548753e-01,2,1,0,1.300000e+00,1
50,832,5,5.042000e+01,51,2,3,0,2.645214e-01,3,1,0,2.300000e+00,1
50,833,5,3.190000e+00,72,1,1,1,2.176544e-01,3,1,0,1.300000e+00,1
50,834,5,1.026200e+02,41,3,2,0,3.630913e-01,3,1,0,3.200000e+00,1
50,835,5,1.341400e+02,6,3,1,0,4.362518e-01,1,1,0,3.100000e+00,1
50,836,5,5.920000e+00,71,1,1,1,2.774115e-01,2,1,0,1.200000e+00,1
50,837,5,4.105000e+01,18,1,4,0,2.707195e-01,3,1,0,1.300000e+00,1
50,838,5,1.212200e+02,3,3,3,1,3.760185e-01,3,1,0,3.100000e+00,1
50,839,5,5.436000e+01,24,2,2,1,3.693105e-01,2,1,0,2.100000e+00,1
50,840,5,5.436000e+01,24,2,2,1,2.026717e-01,3,1,0,2.100000e+00,1
50,841,5,5.236000e+01,46,2,2,1,2.361992e-01,3,1,0,2.300000e+00,1
50,842,5,4.914000e+01,10,1,3,0,2.613273e-01,2,1,0,1.300000e+00,1
50,843,5,5.239000e+01,1,2,1,0,2.386943e-01,2,1,0,2.100000e+00,1
50,844,5,27,40,1,3,0,2.641674e-01,1,1,0,1.300000e+00,1
50,845,5,5.920000e+00,71,1,2,0,8.331411e-01,3,1,0,1.200000e+00,1
50,846,5,1.212200e+02,3,3,1,0,3.391257e-01,4,1,0,3.100000e+00,1
50,847,5,1.392300e+02,21,3,2,0,2.122671e-01,1,1,0,3.100000e+00,1
50,848,5,9.038000e+01,31,2,0,0,2.500575e+00,3,1,0,2.300000e+00,1
50,849,5,5.641000e+01,33,2,1,0,1.743828e+00,2,1,0,2.300000e+00,1
50,850,5,6.729000e+01,38,2,2,1,2.578751e-01,2,1,0,2.300000e+00,1
50,851,5,6.023000e+01,14,2,1,0,1.445842e-04,4,1,0,2.300000e+00,1
50,852,5,1.341400e+02,6,3,2,0,3.006533e-01,2,1,0,3.100000e+00,1
50,853,5,4.777000e+01,42,1,1,1,2.781673e-01,2,1,0,1.200000e+00,1
50,854,5,3.178000e+01,67,1,1,1,1.742932e+00,2,1,0,1.200000e+00,1
50,855,5,4.914000e+01,10,1,3,0,2.413907e-01,3,1,0,1.300000e+00,1
50,856,5,1.181800e+02,43,3,1,0,1.427731e-04,3,1,0,3.100000e+00,1
50,857,5,1.276300e+02,53,3,2,0,3.721844e-01,2,1,0,3.200000e+00,1
50,858,5,6.729000e+01,38,2,1,0,2.778621e-01,3,1,0,2.300000e+00,1
50,859,5,1.060600e+02,16,3,3,1,4.228028e-01,3,1,0,3.100000e+00,1
50,860,5,2.491000e+01,60,1,3,0,1.469989e-04,3,1,0,1.200000e+00,1
50,861,5,9.703000e+01,13,3,1,0,3.220149e-01,3,1,0,3.100000e+00,1
50,862,5,4.105000e+01,18,1,2,0,2.434067e-01,4,1,0,1.300000e+00,1
50,863,5,1.276300e+02,53,3,4,0,1.003064e-01,3,1,0,3.200000e+00,1
50,864,5,3.178000e+01,67,1,1,1,3.497328e-01,3,1,0,1.200000e+00,1
50,865,5,6.125000e+01,56,2,3,0,2.874367e-01,2,1,0,2.100000e+00,1
50,866,5,1.181800e+02,43,3,1,0,3.926659e-01,4,1,0,3.100000e+00,1
50,867,5,3.599000e+01,4,1,1,1,3.622075e-01,3,1,0,1.300000e+00,1
50,868,5,5.042000e+01,51,2,2,1,2.674430e-01,4,1,0,2.300000e+00,1
50,869,5,6.125000e+01,56,2,3,0,3.249144e-01,3,1,0,2.100000e+00,1
50,870,5,4.777000e+01,42,1,2,0,2.785908e-01,3,1,0,1.200000e+00,1
50,871,5,3.815000e+01,45,1,3,0,2.235510e-01,4,1,0,1.300000e+00,1
50,872,5,3.382000e+01,29,1,3,0,2.970963e-01,3,1,0,1.200000e+00,1
50,873,5,1.335300e+02,57,3,1,0,3.542515e-01,4,1,0,3.200000e+00,1
50,874,5,6.830000e+01,55,2,2,1,2.513555e-01,2,1,0,2.100000e+00,1
50,875,5,8.037000e+01,30,2,1,0,2.288900e-01,3,1,0,2.300000e+00,1
50,876,5,4.777000e+01,42,1,1,1,2.705333e-01,4,1,0,1.200000e+00,1
50,877,5,1.127600e+02,7,3,3,1,2.475311e-01,3,1,0,3.200000e+00,1
50,878,5,1.301900e+02,70,3,2,0,2.170145e-01,3,1,0,3.100000e+00,1
50,879,5,8.628000e+01,49,2,1,0,3.059809e-01,3,1,0,2.300000e+00,1
50,880,5,4.914000e+01,10,1,1,1,2.994604e-01,4,1,0,1.300000e+00,1
50,881,5,3.178000e+01,67,1,1,1,7.670357e-02,4,1,0,1.200000e+00,1
50,882,5,5.920000e+00,71,1,3,0,2.461221e-01,4,1,0,1.200000e+00,1
50,883,5,1.326700e+02,58,3,2,0,3.674174e-01,2,1,0,3.200000e+00,1
50,884,5,5.436000e+01,24,2,1,0,2.485320e-01,4,1,0,2.100000e+00,1
50,885,5,6.729000e+01,38,2,3,0,6.901455e-01,4,1,0,2.300000e+00,1
50,886,5,9.424000e+01,20,2,2,1,2.991377e-01,4,1,0,2.300000e+00,1
50,887,5,3.599000e+01,4,1,1,1,2.444719e-01,4,1,0,1.300000e+00,1
50,888,5,1.447000e+02,5,3,4,0,5.497181e-01,4,1,0,3.200000e+00,1
50,889,5,1.392300e+02,21,3,3,1,3.275094e-01,2,1,0,3.100000e+00,1
50,890,5,1.596000e+01,9,1,1,1,2.009219e-01,1,1,0,1.200000e+00,1
50,891,5,1.261600e+02,64,3,2,0,2.021018e-01,4,1,0,3.100000e+00,1
50,892,5,4.295000e+01,15,1,1,1,2.333293e+00,4,1,0,1.200000e+00,1
50,893,5,5.239000e+01,1,2,0,0,2.500272e+00,3,1,0,2.100000e+00,1
50,894,5,1.326700e+02,58,3,2,0,5.376231e-01,3,1,0,3.200000e+00,1
50,895,5,7.145000e+01,22,2,1,0,4.871391e-01,3,1,0,2.100000e+00,1
50,896,5,1.202100e+02,54,3,1,0,3.333903e-01,3,1,0,3.100000e+00,1
50,897,5,5.641000e+01,33,2,3,0,6.181710e-01,3,1,0,2.300000e+00,1
50,898,5,1.096500e+02,32,3,0,0,2.500074e+00,3,1,0,3.200000e+00,1
50,899,5,1.596000e+01,9,1,1,1,4.658780e-01,2,1,0,1.200000e+00,1
50,900,5,5.236000e+01,46,2,2,1,9.521764e-01,4,1,0,2.300000e+00,1
50,901,5,1.060600e+02,16,3,3,1,2.708907e-01,4,1,0,3.100000e+00,1
50,902,5,1.016000e+01,44,1,1,1,2.361241e-01,2,1,0,1.300000e+00,1
50,903,5,1.392300e+02,21,3,1,0,3.388247e-01,3,1,0,3.100000e+00,1
50,904,5,1.596000e+01,9,1,4,0,1.241424e+00,3,1,0,1.200000e+00,1
50,905,5,5.641000e+01,33,2,1,0,3.598477e-01,4,1,0,2.300000e+00,1
50,906,5,1.202100e+02,54,3,3,1,2.379952e-01,4,1,0,3.100000e+00,1
50,907,5,9.703000e+01,13,3,3,1,3.884343e-01,4,1,0,3.100000e+00,1
50,908,5,1.016000e+01,44,1,2,0,2.836084e-01,3,1,0,1.300000e+00,1
50,909,5,1.026200e+02,41,3,3,1,3.921980e-01,4,1,0,3.200000e+00,1
50,910,5,1.794000e+01,63,1,3,0,3.357516e-01,3,1,0,1.200000e+00,1
50,911,5,9.875000e+01,47,3,2,0,2.621770e-01,4,1,0,3.200000e+00,1
50,912,5,5.844000e+01,23,2,2,1,3.807650e-01,1,1,0,2.100000e+00,1
50,913,5,8.628000e+01,49,2,3,0,3.059431e-01,4,1,0,2.300000e+00,1
50,914,5,6.830000e+01,55,2,1,0,2.479090e-01,3,1,0,2.100000e+00,1
50,915,5,1.596000e+01,9,1,1,1,2.228226e-01,4,1,0,1.200000e+00,1
50,916,5,27,40,1,2,0,1.444691e+00,2,1,0,1.300000e+00,1
50,917,5,5.844000e+01,23,2,2,1,2.197272e-01,2,1,0,2.100000e+00,1
50,918,5,7.145000e+01,22,2,3,0,5.777481e-02,4,1,0,2.100000e+00,1
50,919,5,27,40,1,2,0,2.639186e-01,3,1,0,1.300000e+00,1
50,920,5,1.301900e+02,70,3,1,0,2.866072e-01,4,1,0,3.100000e+00,1
50,921,5,1.110700e+02,36,3,1,0,2.531708e-01,3,1,0,3.100000e+00,1
50,922,5,1.840000e+00,48,1,3,0,9.723159e-01,4,1,0,1.200000e+00,1
50,923,5,8.037000e+01,30,2,1,0,3.065574e-01,4,1,0,2.300000e+00,1
50,924,5,1.341400e+02,6,3,2,0,7.125147e-01,3,1,0,3.100000e+00,1
50,925,5,1.326700e+02,58,3,1,0,1.385473e-04,4,1,0,3.200000e+00,1
50,926,5,1.392300e+02,21,3,1,0,4.382651e-02,4,1,0,3.100000e+00,1
50,927,5,6.125000e+01,56,2,2,1,1.563562e-04,4,1,0,2.100000e+00,1
50,928,5,9.029000e+01,52,2,1,0,2.480606e-01,4,1,0,2.100000e+00,1
50,929,5,5.844000e+01,23,2,2,1,1.736377e+00,3,1,0,2.100000e+00,1
50,930,5,27,40,1,3,0,4.621888e-01,4,1,0,1.300000e+00,1
50,931,5,9.038000e+01,31,2,1,0,8.856173e-01,4,1,0,2.300000e+00,1
50,932,5,5.844000e+01,23,2,2,1,3.563550e-01,4,1,0,2.100000e+00,1
50,933,5,6.830000e+01,55,2,1,0,2.503163e-01,4,1,0,2.100000e+00,1
50,934,5,2.491000e+01,60,1,3,0,2.410327e-01,4,1,0,1.200000e+00,1
50,935,5,1.127600e+02,7,3,1,0,3.910271e-01,4,1,0,3.200000e+00,1
50,936,5,1.794000e+01,63,1,2,0,4.785015e-01,4,1,0,1.200000e+00,1
50,937,5,1.341400e+02,6,3,3,1,7.322069e-01,4,1,0,3.100000e+00,1
50,938,5,8.334000e+01,26,2,2,1,7.227887e-01,4,1,0,2.100000e+00,1
50,939,5,5.239000e+01,1,2,1,0,2.486492e-01,4,1,0,2.100000e+00,1
50,940,5,1.110700e+02,36,3,2,0,3.582349e-01,4,1,0,3.100000e+00,1
50,941,5,1.276300e+02,53,3,4,0,1.506211e-04,4,1,0,3.200000e+00,1
50,942,5,1.096500e+02,32,3,4,0,2.756260e-01,4,1,0,3.200000e+00,1
50,943,5,1.103000e+01,28,1,4,0,2.496724e-01,3,1,0,1.300000e+00,1
50,944,5,1.103000e+01,28,1,1,1,2.078411e-01,4,1,0,1.300000e+00,1
50,945,5,3.382000e+01,29,1,1,1,2.379412e-01,4,1,0,1.200000e+00,1
50,946,5,3.190000e+00,72,1,1,1,2.604365e-01,4,1,0,1.300000e+00,1
50,947,5,1.016000e+01,44,1,2,0,2.674807e-01,4,1,0,1.300000e+00,1
50,948,6,23,21,2,2,1,2.218975e+00,NaN,2,0,1,1
50,949,6,19,70,2,2,1,2.872107e+00,NaN,2,0,1,1
50,950,6,45,22,1,2,0,3.435920e+00,NaN,2,0,1,1
50,951,6,16,64,2,0,0,3.499541e+00,NaN,2,0,1,1
50,952,6,94,63,1,2,0,1.702216e+00,NaN,2,0,2,1
50,953,6,135,8,1,0,0,3.499766e+00,NaN,2,1,3,1
50,954,6,136,46,2,0,0,3.499796e+00,NaN,2,0,3,1
50,955,6,92,71,1,1,1,1.676250e+00,NaN,2,0,2,1
50,956,6,65,32,1,2,0,2.018962e+00,NaN,2,0,2,1
50,957,6,22,3,2,2,1,2.417103e+00,NaN,2,0,1,1
50,958,6,14,6,1,1,1,1.860379e+00,NaN,2,0,1,1
50,959,6,119,72,1,1,1,1.179146e+00,NaN,2,0,3,1
50,960,6,129,38,1,2,0,1.420708e+00,NaN,2,0,3,1
50,961,6,141,33,1,1,1,2.132350e+00,NaN,2,0,3,1
50,962,6,69,62,2,2,1,1.068390e+00,NaN,2,1,2,1
50,963,6,80,25,2,2,1,8.523705e-01,NaN,2,1,2,1
50,964,6,28,69,1,2,0,2.091582e+00,NaN,2,1,1,1
50,965,6,39,1,1,1,1,1.132424e+00,NaN,2,0,1,1
50,966,6,74,59,2,2,1,9.239194e-01,NaN,2,1,2,1
50,967,6,34,26,1,1,1,1.341096e+00,NaN,2,0,1,1
50,968,6,128,49,1,1,1,1.747406e+00,NaN,2,0,3,1
50,969,6,72,19,2,2,1,6.919898e-01,NaN,2,1,2,1
50,970,6,110,11,1,1,1,1.205230e+00,NaN,2,1,3,1
50,971,6,116,44,2,2,1,9.733591e-01,NaN,2,0,3,1
50,972,6,101,12,1,1,1,1.404967e+00,NaN,2,1,3,1
50,973,6,20,27,1,1,1,1.444809e+00,NaN,2,0,1,1
50,974,6,76,7,2,2,1,1.011726e+00,NaN,2,0,2,1
50,975,6,3,13,1,1,1,1.987607e+00,NaN,2,0,1,1
50,976,6,114,10,1,1,1,1.668427e+00,NaN,2,0,3,1
50,977,6,84,48,2,2,1,9.236098e-01,NaN,2,0,2,1
50,978,6,100,40,2,1,0,1.972866e+00,NaN,2,0,3,1
50,979,6,62,41,1,2,0,7.483713e-01,NaN,2,0,2,1
50,980,6,6,16,1,1,1,1.389064e+00,NaN,2,0,1,1
50,981,6,63,53,1,1,1,1.180255e+00,NaN,2,0,2,1
50,982,6,95,15,2,1,0,8.845711e-01,NaN,2,0,2,1
50,983,6,143,50,1,1,1,1.140397e+00,NaN,2,0,3,1
50,984,6,104,68,2,2,1,1.708106e+00,NaN,2,1,3,1
50,985,6,29,52,1,2,0,1.548520e+00,NaN,2,0,1,1
50,986,6,96,9,2,2,1,1.308506e+00,NaN,2,0,2,1
50,987,6,60,34,1,1,1,9.397078e-01,NaN,2,1,2,1
50,988,6,75,47,1,2,0,8.687785e-01,NaN,2,0,2,1
50,989,6,81,35,1,1,1,1.044462e+00,NaN,2,1,2,1
50,990,6,43,66,2,1,0,1.987817e+00,NaN,2,1,1,1
50,991,6,77,42,1,2,0,1.835460e+00,NaN,2,0,2,1
50,992,6,18,43,1,1,1,1.027910e+00,NaN,2,0,1,1
50,993,6,105,18,2,2,1,1.508700e+00,NaN,2,0,3,1
50,994,6,7,36,1,1,1,1.476531e+00,NaN,2,0,1,1
50,995,6,140,65,2,2,1,2.243614e+00,NaN,2,1,3,1
50,996,6,99,4,1,0,0,3.500092e+00,NaN,2,0,3,1
50,997,6,44,23,1,2,0,8.691091e-01,NaN,2,0,1,1
50,998,6,41,37,1,1,1,1.819617e+00,NaN,2,1,1,1
50,999,6,88,17,2,2,1,1.644028e+00,NaN,2,1,2,1
50,1000,6,78,67,1,1,1,1.020263e+00,NaN,2,0,2,1
50,1001,6,53,57,1,1,1,1.156148e+00,NaN,2,0,2,1
50,1002,6,124,20,2,2,1,2.356498e+00,NaN,2,0,3,1
50,1003,6,142,51,1,1,1,1.412609e+00,NaN,2,0,3,1
50,1004,6,108,2,2,2,1,1.028421e+00,NaN,2,1,3,1
50,1005,6,36,24,2,1,0,9.248476e-01,NaN,2,0,1,1
50,1006,6,103,28,1,2,0,1.132474e+00,NaN,2,0,3,1
50,1007,6,8,61,1,2,0,8.603320e-01,NaN,2,1,1,1
50,1008,6,91,60,1,1,1,6.928818e-01,NaN,2,0,2,1
50,1009,6,30,55,2,2,1,8.363600e-01,NaN,2,0,1,1
50,1010,6,67,58,1,1,1,1.100274e+00,NaN,2,0,2,1
50,1011,6,70,5,1,1,1,1.244667e+00,NaN,2,0,2,1
50,1012,6,115,45,1,1,1,1.405042e+00,NaN,2,0,3,1
50,1013,6,21,54,2,2,1,1.924845e+00,NaN,2,0,1,1
50,1014,6,137,30,2,2,1,1.052801e+00,NaN,2,0,3,1
50,1015,6,46,39,2,2,1,1.027552e+00,NaN,2,1,1,1
50,1016,6,123,14,1,1,1,1.012563e+00,NaN,2,0,3,1
50,1017,6,138,31,2,2,1,1.532617e+00,NaN,2,0,3,1
50,1018,6,82,29,1,2,0,7.401744e-01,NaN,2,0,2,1
50,1019,6,25,56,1,1,1,1.236274e+00,NaN,2,0,1,1
50,1020,6,122,19,1,1,1,1.188279e+00,NaN,1,1,3,1
50,1021,6,24,60,1,1,1,9.400238e-01,NaN,1,0,1,1
50,1022,6,33,29,2,2,1,7.885268e-01,NaN,1,0,1,1
50,1023,6,73,65,1,1,1,1.228309e+00,NaN,1,1,2,1
50,1024,6,4,68,2,1,0,1.085160e+00,NaN,1,1,1,1
50,1025,6,125,34,2,2,1,1.597869e+00,NaN,1,1,3,1
50,1026,6,52,1,1,1,1,1.259516e+00,NaN,1,0,2,1
50,1027,6,106,16,2,2,1,2.204327e+00,NaN,1,0,3,1
50,1028,6,89,31,1,1,1,1.243299e+00,NaN,1,0,2,1
50,1029,6,59,14,2,1,0,1.011976e+00,NaN,1,0,2,1
50,1030,6,79,30,2,2,1,9.802578e-01,NaN,1,0,2,1
50,1031,6,11,17,1,1,1,1.355658e+00,NaN,1,1,1,1
50,1032,6,102,41,2,2,1,1.843985e+00,NaN,1,0,3,1
50,1033,6,112,7,2,2,1,1.139940e+00,NaN,1,0,3,1
50,1034,6,10,28,2,2,1,1.708478e+00,NaN,1,0,1,1
50,1035,6,13,25,1,1,1,1.252178e+00,NaN,1,1,1,1
50,1036,6,117,59,2,2,1,1.540757e+00,NaN,1,1,3,1
50,1037,6,35,4,1,1,1,1.084564e+00,NaN,1,0,1,1
50,1038,6,37,45,1,1,1,9.887357e-01,NaN,1,0,1,1
50,1039,6,48,10,1,1,1,6.519823e-01,NaN,1,0,1,1
50,1040,6,15,9,1,1,1,1.164545e+00,NaN,1,0,1,1
50,1041,6,64,8,1,1,1,9.886120e-01,NaN,1,1,2,1
50,1042,6,58,23,1,1,1,1.268449e+00,NaN,1,0,2,1
50,1043,6,83,26,1,2,0,7.884927e-01,NaN,1,0,2,1
50,1044,6,49,51,2,2,1,8.843254e-01,NaN,1,0,2,1
50,1045,6,120,54,1,1,1,1.676364e+00,NaN,1,0,3,1
50,1046,6,1,48,2,1,0,1.004516e+00,NaN,1,0,1,1
50,1047,6,93,20,1,1,1,9.394213e-01,NaN,1,0,2,1
50,1048,6,97,13,1,1,1,1.172479e+00,NaN,1,0,3,1
50,1049,6,38,11,1,1,1,2.228120e+00,NaN,1,1,1,1
50,1050,6,118,43,1,1,1,1.213142e+00,NaN,1,0,3,1
50,1051,6,121,3,2,2,1,1.004210e+00,NaN,1,0,3,1
50,1052,6,2,72,1,2,0,9.724493e-01,NaN,1,0,1,1
50,1053,6,12,12,1,1,1,8.595016e-01,NaN,1,1,1,1
50,1054,6,47,42,1,1,1,1.228828e+00,NaN,1,0,1,1
50,1055,6,54,24,2,2,1,8.361759e-01,NaN,1,0,2,1
50,1056,6,17,63,1,1,1,9.962592e-01,NaN,1,0,1,1
50,1057,6,66,38,2,2,1,9.241618e-01,NaN,1,0,2,1
50,1058,6,68,55,2,1,0,7.397566e-01,NaN,1,0,2,1
50,1059,6,113,62,1,1,1,9.168816e-01,NaN,1,1,3,1
50,1060,6,85,49,2,2,1,6.526617e-01,NaN,1,0,2,1
50,1061,6,42,15,1,1,1,9.545800e-01,NaN,1,0,1,1
50,1062,6,131,27,2,2,1,1.676421e+00,NaN,1,0,3,1
50,1063,6,86,66,1,1,1,8.763893e-01,NaN,1,1,2,1
50,1064,6,130,70,1,1,1,1.124410e+00,NaN,1,0,3,1
50,1065,6,144,5,2,2,1,1.052695e+00,NaN,1,0,3,1
50,1066,6,51,46,1,1,1,6.436039e-01,NaN,1,0,2,1
50,1067,6,98,47,1,2,0,1.235876e+00,NaN,1,0,3,1
50,1068,6,109,32,1,1,1,8.688148e-01,NaN,1,0,3,1
50,1069,6,40,18,2,1,0,1.092965e+00,NaN,1,0,1,1
50,1070,6,32,2,1,1,1,9.888272e-01,NaN,1,1,1,1
50,1071,6,5,71,2,2,1,1.061387e+00,NaN,1,0,1,1
50,1072,6,126,64,1,1,1,1.564299e+00,NaN,1,0,3,1
50,1073,6,26,40,1,2,0,1.052377e+00,NaN,1,0,1,1
50,1074,6,127,53,2,2,1,2.093238e+00,NaN,1,0,3,1
50,1075,6,134,6,1,1,1,1.636197e+00,NaN,1,0,3,1
50,1076,6,111,36,2,1,0,1.357600e+00,NaN,1,0,3,1
50,1077,6,56,50,1,2,0,1.531707e+00,NaN,1,0,2,1
50,1078,6,90,52,2,1,0,2.012344e+00,NaN,1,0,2,1
50,1079,6,9,44,2,2,1,1.036333e+00,NaN,1,0,1,1
50,1080,6,50,37,2,1,0,8.600054e-01,NaN,1,1,2,1
50,1081,6,132,58,1,1,1,1.236095e+00,NaN,1,0,3,1
50,1082,6,31,67,1,1,1,8.051398e-01,NaN,1,0,1,1
50,1083,6,133,57,2,2,1,7.809290e-01,NaN,1,0,3,1
50,1084,6,61,56,2,2,1,7.004312e-01,NaN,1,0,2,1
50,1085,6,87,39,1,1,1,6.678892e-01,NaN,1,1,2,1
50,1086,6,107,61,2,2,1,1.212335e+00,NaN,1,1,3,1
50,1087,6,57,69,2,2,1,9.161880e-01,NaN,1,1,2,1
50,1088,6,139,21,1,1,1,6.927861e-01,NaN,1,0,3,1
50,1089,6,27,35,1,2,0,1.884761e+00,NaN,1,1,1,1
50,1090,6,71,22,1,1,1,6.273764e-01,NaN,1,0,2,1
50,1091,6,55,33,1,1,1,6.846495e-01,NaN,1,0,2,1
