Subject,Trial,Cond,ImageNum,CueNum,Correct,Resp,Accuracy,RT,CueRep,ImageType,Baseline,Category,Block
19,1,1,85,NaN,NaN,1,NaN,5.147015e+00,NaN,0,0,2,1
19,2,1,107,NaN,NaN,1,NaN,2.459307e+00,NaN,2,0,3,1
19,3,1,124,NaN,NaN,1,NaN,1.364401e+00,NaN,0,0,3,1
19,4,1,26,NaN,NaN,1,NaN,9.346693e-01,NaN,0,0,1,1
19,5,1,62,NaN,NaN,1,NaN,8.032777e-01,NaN,1,0,2,1
19,6,1,79,NaN,NaN,1,NaN,6.623749e-01,NaN,0,1,2,1
19,7,1,69,NaN,NaN,1,NaN,7.808900e-01,NaN,1,1,2,1
19,8,1,68,NaN,NaN,1,NaN,8.637130e-01,NaN,2,0,2,1
19,9,1,20,NaN,NaN,1,NaN,1.023406e+00,NaN,0,0,1,1
19,10,1,127,NaN,NaN,1,NaN,7.526859e-01,NaN,2,0,3,1
19,11,1,66,NaN,NaN,1,NaN,9.085601e-01,NaN,1,0,2,1
19,12,1,18,NaN,NaN,1,NaN,9.068706e-01,NaN,2,0,1,1
19,13,1,102,NaN,NaN,1,NaN,8.323716e-01,NaN,1,0,3,1
19,14,1,26,NaN,NaN,1,NaN,7.769394e-01,NaN,1,0,1,1
19,15,1,48,NaN,NaN,1,NaN,9.085555e-01,NaN,0,1,1,1
19,16,1,36,NaN,NaN,1,NaN,8.266359e-01,NaN,0,1,1,1
19,17,1,24,NaN,NaN,1,NaN,9.720115e-01,NaN,0,0,1,1
19,18,1,135,NaN,NaN,1,NaN,1.039064e+00,NaN,0,1,3,1
19,19,1,125,NaN,NaN,1,NaN,1.111156e+00,NaN,1,1,3,1
19,20,1,30,NaN,NaN,1,NaN,9.488691e-01,NaN,0,1,1,1
19,21,1,31,NaN,NaN,1,NaN,1.184913e+00,NaN,0,1,1,1
19,22,1,28,NaN,NaN,1,NaN,9.317963e-01,NaN,1,0,1,1
19,23,1,44,NaN,NaN,1,NaN,6.650472e-01,NaN,0,0,1,1
19,24,1,8,NaN,NaN,1,NaN,7.683588e-01,NaN,0,0,1,1
19,25,1,55,NaN,NaN,1,NaN,7.320093e-01,NaN,0,1,2,1
19,26,1,76,NaN,NaN,1,NaN,5.766580e-01,NaN,1,1,2,1
19,27,1,91,NaN,NaN,1,NaN,5.561855e-01,NaN,1,0,2,1
19,28,1,95,NaN,NaN,1,NaN,6.084549e-01,NaN,2,0,2,1
19,29,1,56,NaN,NaN,1,NaN,7.380726e-01,NaN,0,0,2,1
19,30,1,88,NaN,NaN,1,NaN,9.263480e-01,NaN,0,1,2,1
19,31,1,27,NaN,NaN,1,NaN,5.718843e-01,NaN,1,0,1,1
19,32,1,70,NaN,NaN,1,NaN,7.267400e-01,NaN,1,0,2,1
19,33,1,12,NaN,NaN,1,NaN,9.162170e-01,NaN,2,1,1,1
19,34,1,49,NaN,NaN,1,NaN,8.094505e-01,NaN,2,0,2,1
19,35,1,117,NaN,NaN,1,NaN,1.011499e+00,NaN,0,1,3,1
19,36,1,41,NaN,NaN,1,NaN,1.557041e+00,NaN,0,0,1,1
19,37,1,78,NaN,NaN,1,NaN,4.648705e-01,NaN,2,0,2,1
19,38,1,65,NaN,NaN,1,NaN,4.724469e-01,NaN,1,0,2,1
19,39,1,33,NaN,NaN,1,NaN,5.679530e-01,NaN,2,0,1,1
19,40,1,15,NaN,NaN,1,NaN,5.871137e-01,NaN,2,0,1,1
19,41,1,126,NaN,NaN,1,NaN,8.299924e-01,NaN,0,0,3,1
19,42,1,1,NaN,NaN,1,NaN,7.908383e-01,NaN,0,0,1,1
19,43,1,52,NaN,NaN,1,NaN,3.691588e-01,NaN,0,0,2,1
19,44,1,5,NaN,NaN,1,NaN,5.166778e-01,NaN,1,0,1,1
19,45,1,129,NaN,NaN,1,NaN,9.780517e-01,NaN,2,0,3,1
19,46,1,112,NaN,NaN,1,NaN,6.611784e-01,NaN,0,0,3,1
19,47,1,51,NaN,NaN,1,NaN,9.006559e-01,NaN,0,0,2,1
19,48,1,45,NaN,NaN,1,NaN,1.154621e+00,NaN,0,0,1,1
19,49,1,137,NaN,NaN,1,NaN,3.749492e-01,NaN,1,0,3,1
19,50,1,118,NaN,NaN,1,NaN,4.100133e-01,NaN,0,0,3,1
19,51,1,68,NaN,NaN,2,NaN,7.718433e-01,NaN,0,0,2,1
19,52,1,144,NaN,NaN,1,NaN,6.391224e-01,NaN,0,0,3,1
19,53,1,28,NaN,NaN,2,NaN,6.239895e-01,NaN,0,0,1,1
19,54,1,80,NaN,NaN,1,NaN,8.172261e-01,NaN,0,0,2,1
19,55,1,59,NaN,NaN,1,NaN,5.148903e-01,NaN,0,0,2,1
19,56,1,89,NaN,NaN,1,NaN,5.199251e-01,NaN,1,0,2,1
19,57,1,122,NaN,NaN,1,NaN,5.091830e-01,NaN,0,0,3,1
19,58,1,112,NaN,NaN,2,NaN,4.991978e-01,NaN,2,0,3,1
19,59,1,33,NaN,NaN,1,NaN,4.895417e-01,NaN,0,0,1,1
19,60,1,67,NaN,NaN,1,NaN,6.240556e-01,NaN,1,1,2,1
19,61,1,94,NaN,NaN,1,NaN,5.453030e-01,NaN,1,1,2,1
19,62,1,71,NaN,NaN,1,NaN,4.538319e-01,NaN,1,1,2,1
19,63,1,72,NaN,NaN,1,NaN,5.016069e-01,NaN,2,1,2,1
19,64,1,73,NaN,NaN,1,NaN,5.717189e-01,NaN,0,0,2,1
19,65,1,139,NaN,NaN,1,NaN,7.991886e-01,NaN,0,0,3,1
19,66,1,9,NaN,NaN,1,NaN,6.010026e-01,NaN,0,0,1,1
19,67,1,87,NaN,NaN,1,NaN,4.354425e-01,NaN,2,0,2,1
19,68,1,69,NaN,NaN,1,NaN,5.484047e+00,NaN,0,1,2,1
19,69,1,123,NaN,NaN,1,NaN,3.870204e-01,NaN,0,0,3,1
19,70,1,144,NaN,NaN,1,NaN,5.011873e-01,NaN,1,0,3,1
19,71,1,109,NaN,NaN,1,NaN,3.955231e-01,NaN,2,0,3,1
19,72,1,133,NaN,NaN,1,NaN,5.431161e-01,NaN,2,0,3,1
19,73,1,111,NaN,NaN,1,NaN,4.903640e-01,NaN,0,0,3,1
19,74,1,65,NaN,NaN,2,NaN,7.848864e-01,NaN,0,0,2,1
19,75,1,97,NaN,NaN,1,NaN,9.480565e-01,NaN,0,0,3,1
19,76,1,99,NaN,NaN,1,NaN,4.643815e-01,NaN,0,0,3,1
19,77,1,13,NaN,NaN,1,NaN,6.397381e-01,NaN,2,0,1,1
19,78,1,101,NaN,NaN,1,NaN,6.563038e-01,NaN,1,0,3,1
19,79,1,6,NaN,NaN,1,NaN,5.923837e-01,NaN,2,0,1,1
19,80,1,74,NaN,NaN,1,NaN,3.786619e-01,NaN,0,1,2,1
19,81,1,35,NaN,NaN,1,NaN,5.499164e-01,NaN,0,0,1,1
19,82,1,136,NaN,NaN,1,NaN,2.578486e-01,NaN,2,1,3,1
19,83,1,50,NaN,NaN,1,NaN,3.698431e-01,NaN,2,1,2,1
19,84,1,101,NaN,NaN,1,NaN,4.132684e-01,NaN,0,0,3,1
19,85,1,43,NaN,NaN,1,NaN,3.110873e-01,NaN,1,0,1,1
19,86,1,58,NaN,NaN,1,NaN,4.447122e-01,NaN,0,1,2,1
19,87,1,4,NaN,NaN,1,NaN,6.210839e-01,NaN,2,0,1,1
19,88,1,42,NaN,NaN,1,NaN,1.310511e+00,NaN,0,0,1,1
19,89,1,42,NaN,NaN,2,NaN,6.203610e-01,NaN,1,0,1,1
19,90,1,132,NaN,NaN,1,NaN,4.372732e-01,NaN,0,0,3,1
19,91,1,86,NaN,NaN,1,NaN,9.176590e-01,NaN,0,0,2,1
19,92,1,120,NaN,NaN,1,NaN,3.875610e-01,NaN,0,0,3,1
19,93,1,10,NaN,NaN,1,NaN,5.979159e-01,NaN,0,0,1,1
19,94,1,77,NaN,NaN,1,NaN,3.681802e-01,NaN,2,0,2,1
19,95,1,6,NaN,NaN,2,NaN,1.043965e+00,NaN,0,0,1,1
19,96,1,20,NaN,NaN,1,NaN,1.612415e+00,NaN,2,0,1,1
19,97,1,58,NaN,NaN,2,NaN,5.017451e-01,NaN,2,1,2,1
19,98,1,140,NaN,NaN,1,NaN,3.481131e-01,NaN,1,1,3,1
19,99,1,143,NaN,NaN,1,NaN,1.224468e+00,NaN,0,1,3,1
19,100,1,19,NaN,NaN,1,NaN,3.456395e-01,NaN,0,0,1,1
19,101,1,14,NaN,NaN,1,NaN,2.538901e-01,NaN,2,0,1,1
19,102,1,8,NaN,NaN,2,NaN,6.778386e-01,NaN,1,0,1,1
19,103,1,138,NaN,NaN,1,NaN,1.433776e-04,NaN,1,0,3,1
19,104,1,79,NaN,NaN,1,NaN,3.511624e-01,NaN,1,1,2,1
19,105,1,37,NaN,NaN,1,NaN,5.235627e-01,NaN,0,1,1,1
19,106,1,85,NaN,NaN,1,NaN,3.129521e-01,NaN,2,0,2,1
19,107,1,75,NaN,NaN,1,NaN,1.374176e+00,NaN,0,1,2,1
19,108,1,116,NaN,NaN,1,NaN,4.413699e-01,NaN,0,0,3,1
19,109,1,95,NaN,NaN,1,NaN,2.433951e+00,NaN,0,0,2,1
19,110,1,43,NaN,NaN,2,NaN,7.305662e-01,NaN,0,0,1,1
19,111,1,90,NaN,NaN,1,NaN,4.397420e-01,NaN,0,1,2,1
19,112,1,45,NaN,NaN,1,NaN,4.003056e-01,NaN,2,0,1,1
19,113,1,130,NaN,NaN,1,NaN,4.421293e-01,NaN,0,1,3,1
19,114,1,117,NaN,NaN,2,NaN,4.830994e-01,NaN,1,1,3,1
19,115,1,108,NaN,NaN,1,NaN,8.021714e-01,NaN,1,0,3,1
19,116,1,127,NaN,NaN,2,NaN,3.079933e-01,NaN,0,0,3,1
19,117,1,19,NaN,NaN,2,NaN,2.902637e-01,NaN,1,0,1,1
19,118,1,35,NaN,NaN,2,NaN,5.765333e-01,NaN,2,0,1,1
19,119,1,94,NaN,NaN,2,NaN,3.401570e-01,NaN,0,1,2,1
19,120,1,73,NaN,NaN,1,NaN,3.203996e-01,NaN,2,0,2,1
19,121,1,106,NaN,NaN,1,NaN,7.578149e-01,NaN,1,0,3,1
19,122,1,81,NaN,NaN,1,NaN,5.307470e-01,NaN,0,1,2,1
19,123,1,39,NaN,NaN,1,NaN,6.627232e-01,NaN,0,1,1,1
19,124,1,104,NaN,NaN,1,NaN,5.819228e-01,NaN,2,1,3,1
19,125,1,27,NaN,NaN,2,NaN,4.652158e-01,NaN,0,0,1,1
19,126,1,78,NaN,NaN,2,NaN,6.489345e-01,NaN,0,0,2,1
19,127,1,37,NaN,NaN,2,NaN,1.192767e+00,NaN,1,1,1,1
19,128,1,93,NaN,NaN,1,NaN,6.835770e-01,NaN,1,0,2,1
19,129,1,54,NaN,NaN,1,NaN,6.022166e-01,NaN,0,0,2,1
19,130,1,60,NaN,NaN,1,NaN,4.527368e-01,NaN,0,0,2,1
19,131,1,126,NaN,NaN,1,NaN,6.771325e-01,NaN,2,0,3,1
19,132,1,107,NaN,NaN,1,NaN,4.202668e-01,NaN,0,0,3,1
19,133,1,103,NaN,NaN,1,NaN,3.015902e-01,NaN,0,0,3,1
19,134,1,63,NaN,NaN,1,NaN,6.357245e-01,NaN,0,0,2,1
19,135,1,50,NaN,NaN,2,NaN,7.883957e-01,NaN,0,1,2,1
19,136,1,75,NaN,NaN,2,NaN,6.230300e-01,NaN,2,1,2,1
19,137,1,40,NaN,NaN,1,NaN,3.683297e-01,NaN,0,0,1,1
19,138,1,46,NaN,NaN,1,NaN,5.319704e-01,NaN,0,0,1,1
19,139,1,104,NaN,NaN,2,NaN,7.130693e-01,NaN,0,1,3,1
19,140,1,114,NaN,NaN,1,NaN,7.982447e-01,NaN,0,0,3,1
19,141,1,131,NaN,NaN,1,NaN,5.604433e-01,NaN,0,0,3,1
19,142,1,48,NaN,NaN,1,NaN,3.567945e-01,NaN,1,1,1,1
19,143,1,134,NaN,NaN,1,NaN,1.000362e+00,NaN,0,0,3,1
19,144,1,57,NaN,NaN,1,NaN,9.397560e-01,NaN,0,0,2,1
19,145,1,116,NaN,NaN,2,NaN,4.553216e-01,NaN,1,0,3,1
19,146,1,143,NaN,NaN,1,NaN,8.390237e-01,NaN,2,1,3,1
19,147,1,84,NaN,NaN,1,NaN,3.037403e-01,NaN,0,0,2,1
19,148,1,64,NaN,NaN,1,NaN,6.540409e-01,NaN,2,0,2,1
19,149,1,122,NaN,NaN,2,NaN,8.134237e-01,NaN,1,0,3,1
19,150,1,129,NaN,NaN,2,NaN,3.110006e-01,NaN,0,0,3,1
19,151,1,16,NaN,NaN,1,NaN,7.728668e-01,NaN,1,0,1,1
19,152,1,22,NaN,NaN,1,NaN,5.683454e-01,NaN,0,0,1,1
19,153,1,36,NaN,NaN,2,NaN,2.996406e-01,NaN,2,1,1,1
19,154,1,82,NaN,NaN,1,NaN,3.381407e-01,NaN,0,1,2,1
19,155,1,142,NaN,NaN,1,NaN,5.666759e-01,NaN,0,0,3,1
19,156,1,124,NaN,NaN,2,NaN,3.379055e-01,NaN,2,0,3,1
19,157,1,121,NaN,NaN,1,NaN,6.385588e-01,NaN,0,0,3,1
19,158,1,119,NaN,NaN,1,NaN,7.196300e-01,NaN,0,0,3,1
19,159,1,123,NaN,NaN,2,NaN,7.729209e-01,NaN,2,0,3,1
19,160,1,49,NaN,NaN,2,NaN,4.159965e-01,NaN,0,0,2,1
19,161,1,12,NaN,NaN,1,NaN,7.697403e-01,NaN,0,1,1,1
19,162,1,136,NaN,NaN,2,NaN,2.767020e-01,NaN,0,1,3,1
19,163,1,40,NaN,NaN,2,NaN,1.228186e+00,NaN,2,0,1,1
19,164,1,4,NaN,NaN,2,NaN,2.690178e-01,NaN,0,0,1,1
19,165,1,15,NaN,NaN,2,NaN,4.926330e-01,NaN,0,0,1,1
19,166,1,130,NaN,NaN,1,NaN,6.030356e-01,NaN,1,1,3,1
19,167,1,34,NaN,NaN,1,NaN,7.489321e-01,NaN,2,1,1,1
19,168,1,113,NaN,NaN,1,NaN,2.264111e-01,NaN,1,0,3,1
19,169,1,93,NaN,NaN,2,NaN,4.830511e-01,NaN,0,0,2,1
19,170,1,98,NaN,NaN,1,NaN,3.455462e-01,NaN,0,0,3,1
19,171,1,115,NaN,NaN,1,NaN,5.980798e-01,NaN,2,0,3,1
19,172,1,3,NaN,NaN,1,NaN,1.016242e+00,NaN,2,0,1,1
19,173,1,10,NaN,NaN,2,NaN,2.257948e+00,NaN,1,0,1,1
19,174,1,81,NaN,NaN,1,NaN,2.733512e-01,NaN,1,1,2,1
19,175,1,11,NaN,NaN,1,NaN,3.846820e-01,NaN,0,0,1,1
19,176,1,137,NaN,NaN,2,NaN,3.475308e-01,NaN,0,0,3,1
19,177,1,72,NaN,NaN,2,NaN,3.757515e-01,NaN,0,1,2,1
19,178,1,60,NaN,NaN,2,NaN,3.231180e-01,NaN,1,0,2,1
19,179,1,90,NaN,NaN,1,NaN,2.720107e-01,NaN,2,1,2,1
19,180,1,82,NaN,NaN,2,NaN,3.751596e-01,NaN,2,1,2,1
19,181,1,14,NaN,NaN,2,NaN,3.138555e+00,NaN,0,0,1,1
19,182,1,11,NaN,NaN,2,NaN,2.866943e-01,NaN,1,0,1,1
19,183,1,34,NaN,NaN,2,NaN,3.491949e-01,NaN,0,1,1,1
19,184,1,23,NaN,NaN,1,NaN,3.139974e-01,NaN,1,1,1,1
19,185,1,97,NaN,NaN,1,NaN,4.873096e-01,NaN,2,0,3,1
19,186,1,56,NaN,NaN,1,NaN,2.699868e-01,NaN,1,0,2,1
19,187,1,100,NaN,NaN,1,NaN,4.293476e-01,NaN,2,0,3,1
19,188,1,25,NaN,NaN,1,NaN,3.505007e-01,NaN,0,0,1,1
19,189,1,141,NaN,NaN,1,NaN,6.505135e-01,NaN,2,1,3,1
19,190,1,100,NaN,NaN,2,NaN,4.824589e-01,NaN,0,0,3,1
19,191,1,7,NaN,NaN,1,NaN,3.458185e-01,NaN,1,0,1,1
19,192,1,61,NaN,NaN,1,NaN,4.937661e-01,NaN,0,0,2,1
19,193,1,99,NaN,NaN,2,NaN,5.817607e-01,NaN,1,0,3,1
19,194,1,1,NaN,NaN,1,NaN,4.396140e-01,NaN,2,0,1,1
19,195,1,83,NaN,NaN,1,NaN,5.043437e-01,NaN,2,0,2,1
19,196,1,77,NaN,NaN,2,NaN,6.300823e-01,NaN,0,0,2,1
19,197,1,121,NaN,NaN,2,NaN,5.830028e-01,NaN,1,0,3,1
19,198,1,132,NaN,NaN,2,NaN,3.540136e-01,NaN,2,0,3,1
19,199,1,71,NaN,NaN,2,NaN,4.135024e-01,NaN,0,1,2,1
19,200,1,134,NaN,NaN,1,NaN,4.071560e-01,NaN,2,0,3,1
19,201,1,53,NaN,NaN,1,NaN,2.731592e-01,NaN,0,0,2,1
19,202,1,113,NaN,NaN,2,NaN,3.289231e-01,NaN,0,0,3,1
19,203,1,38,NaN,NaN,1,NaN,3.732721e-01,NaN,0,0,1,1
19,204,1,16,NaN,NaN,2,NaN,4.565902e-01,NaN,0,0,1,1
19,205,1,53,NaN,NaN,2,NaN,2.484665e-01,NaN,1,0,2,1
19,206,1,83,NaN,NaN,2,NaN,3.686979e-01,NaN,0,0,2,1
19,207,1,21,NaN,NaN,1,NaN,4.447026e-01,NaN,1,1,1,1
19,208,1,46,NaN,NaN,1,NaN,4.765511e-01,NaN,1,0,1,1
19,209,1,41,NaN,NaN,2,NaN,1.213159e+00,NaN,1,0,1,1
19,210,1,108,NaN,NaN,2,NaN,4.774745e-01,NaN,0,0,3,1
19,211,1,64,NaN,NaN,1,NaN,3.003611e-01,NaN,0,0,2,1
19,212,1,23,NaN,NaN,2,NaN,4.669086e-01,NaN,0,1,1,1
19,213,1,87,NaN,NaN,2,NaN,4.505647e-01,NaN,0,0,2,1
19,214,1,2,NaN,NaN,1,NaN,9.467175e-01,NaN,1,0,1,1
19,215,1,3,NaN,NaN,1,NaN,1.503111e+00,NaN,0,0,1,1
19,216,1,128,NaN,NaN,1,NaN,3.248886e-01,NaN,1,0,3,1
19,217,1,128,NaN,NaN,2,NaN,3.780283e-01,NaN,0,0,3,1
19,218,1,76,NaN,NaN,1,NaN,4.206836e-01,NaN,0,1,2,1
19,219,1,67,NaN,NaN,1,NaN,3.899558e-01,NaN,0,1,2,1
19,220,1,24,NaN,NaN,2,NaN,4.008900e-01,NaN,1,0,1,1
19,221,1,105,NaN,NaN,1,NaN,7.551743e-01,NaN,2,0,3,1
19,222,1,32,NaN,NaN,1,NaN,6.307636e-01,NaN,2,0,1,1
19,223,1,2,NaN,NaN,2,NaN,2.958430e-01,NaN,0,0,1,1
19,224,1,25,NaN,NaN,1,NaN,5.661250e-01,NaN,1,0,1,1
19,225,1,106,NaN,NaN,2,NaN,2.415271e-01,NaN,0,0,3,1
19,226,1,57,NaN,NaN,2,NaN,3.703834e-01,NaN,2,0,2,1
19,227,1,55,NaN,NaN,1,NaN,2.456578e-01,NaN,1,1,2,1
19,228,1,119,NaN,NaN,2,NaN,3.819472e-01,NaN,1,0,3,1
19,229,1,74,NaN,NaN,2,NaN,1.280669e+00,NaN,1,1,2,1
19,230,1,59,NaN,NaN,1,NaN,2.391400e-01,NaN,2,0,2,1
19,231,1,103,NaN,NaN,2,NaN,8.879771e-01,NaN,1,0,3,1
19,232,1,30,NaN,NaN,2,NaN,2.624122e-01,NaN,2,1,1,1
19,233,1,9,NaN,NaN,2,NaN,3.019721e-01,NaN,2,0,1,1
19,234,1,142,NaN,NaN,2,NaN,2.446418e-01,NaN,1,0,3,1
19,235,1,98,NaN,NaN,2,NaN,4.925062e-01,NaN,1,0,3,1
19,236,1,51,NaN,NaN,1,NaN,4.112295e-01,NaN,1,0,2,1
19,237,1,110,NaN,NaN,1,NaN,3.612701e+00,NaN,0,0,3,1
19,238,1,29,NaN,NaN,1,NaN,2.245774e+00,NaN,0,0,1,1
19,239,1,111,NaN,NaN,1,NaN,9.982122e-01,NaN,1,0,3,1
19,240,1,96,NaN,NaN,1,NaN,8.404961e-01,NaN,0,0,2,1
19,241,1,140,NaN,NaN,1,NaN,3.848453e-01,NaN,0,1,3,1
19,242,1,17,NaN,NaN,1,NaN,3.315525e-01,NaN,1,1,1,1
19,243,1,63,NaN,NaN,1,NaN,8.004989e-01,NaN,2,0,2,1
19,244,1,5,NaN,NaN,1,NaN,3.722482e-01,NaN,0,0,1,1
19,245,1,52,NaN,NaN,1,NaN,2.304423e-01,NaN,2,0,2,1
19,246,1,22,NaN,NaN,2,NaN,5.912200e-01,NaN,1,0,1,1
19,247,1,29,NaN,NaN,1,NaN,1.306075e+00,NaN,2,0,1,1
19,248,1,115,NaN,NaN,1,NaN,4.393586e-01,NaN,0,0,3,1
19,249,1,135,NaN,NaN,2,NaN,2.483721e-01,NaN,2,1,3,1
19,250,1,44,NaN,NaN,1,NaN,3.000337e+00,NaN,1,0,1,1
19,251,1,84,NaN,NaN,2,NaN,3.702135e-01,NaN,1,0,2,1
19,252,1,62,NaN,NaN,2,NaN,4.215617e-01,NaN,0,0,2,1
19,253,1,39,NaN,NaN,1,NaN,3.506426e-01,NaN,2,1,1,1
19,254,1,21,NaN,NaN,2,NaN,4.506034e-01,NaN,0,1,1,1
19,255,1,31,NaN,NaN,2,NaN,5.949608e-01,NaN,2,1,1,1
19,256,1,70,NaN,NaN,2,NaN,3.496501e-01,NaN,0,0,2,1
19,257,1,80,NaN,NaN,1,NaN,4.176467e-01,NaN,1,0,2,1
19,258,1,13,NaN,NaN,1,NaN,3.507453e+00,NaN,0,0,1,1
19,259,1,120,NaN,NaN,1,NaN,3.526001e-01,NaN,2,0,3,1
19,260,1,47,NaN,NaN,1,NaN,2.849430e-01,NaN,0,0,1,1
19,261,1,118,NaN,NaN,2,NaN,3.477086e-01,NaN,1,0,3,1
19,262,1,105,NaN,NaN,2,NaN,2.958174e-01,NaN,0,0,3,1
19,263,1,96,NaN,NaN,2,NaN,4.303295e-01,NaN,2,0,2,1
19,264,1,139,NaN,NaN,1,NaN,4.309431e-01,NaN,2,0,3,1
19,265,1,92,NaN,NaN,1,NaN,2.243842e-01,NaN,0,0,2,1
19,266,1,89,NaN,NaN,1,NaN,3.136385e-01,NaN,0,0,2,1
19,267,1,131,NaN,NaN,2,NaN,3.108838e-01,NaN,1,0,3,1
19,268,1,91,NaN,NaN,1,NaN,7.806684e-01,NaN,0,0,2,1
19,269,1,61,NaN,NaN,2,NaN,4.395346e-01,NaN,1,0,2,1
19,270,1,38,NaN,NaN,2,NaN,6.800315e-01,NaN,2,0,1,1
19,271,1,54,NaN,NaN,1,NaN,7.271789e-01,NaN,1,0,2,1
19,272,1,88,NaN,NaN,1,NaN,2.604903e-01,NaN,2,1,2,1
19,273,1,125,NaN,NaN,2,NaN,5.561336e-01,NaN,0,1,3,1
19,274,1,66,NaN,NaN,1,NaN,2.399445e-01,NaN,0,0,2,1
19,275,1,141,NaN,NaN,2,NaN,3.687622e-01,NaN,0,1,3,1
19,276,1,86,NaN,NaN,2,NaN,1.380248e+00,NaN,2,0,2,1
19,277,1,114,NaN,NaN,1,NaN,5.913797e-01,NaN,2,0,3,1
19,278,1,133,NaN,NaN,1,NaN,8.419157e-01,NaN,0,0,3,1
19,279,1,138,NaN,NaN,1,NaN,8.900100e-01,NaN,0,0,3,1
19,280,1,17,NaN,NaN,1,NaN,1.641044e+00,NaN,0,1,1,1
19,281,1,92,NaN,NaN,2,NaN,4.091588e-01,NaN,2,0,2,1
19,282,1,47,NaN,NaN,2,NaN,4.035127e-01,NaN,2,0,1,1
19,283,1,109,NaN,NaN,2,NaN,2.769353e-01,NaN,0,0,3,1
19,284,1,18,NaN,NaN,2,NaN,4.126678e-01,NaN,0,0,1,1
19,285,1,102,NaN,NaN,2,NaN,3.741831e-01,NaN,0,0,3,1
19,286,1,110,NaN,NaN,1,NaN,2.414996e-01,NaN,2,0,3,1
19,287,1,32,NaN,NaN,2,NaN,4.337606e-01,NaN,0,0,1,1
19,288,1,7,NaN,NaN,2,NaN,5.466845e-01,NaN,0,0,1,1
19,402,2,27,2,2,0,0,3.499526e+00,NaN,1,0,1,1
19,403,2,21,11,1,1,1,1.584830e+00,NaN,1,1,1,1
19,404,2,46,56,1,1,1,2.934227e+00,NaN,1,0,1,1
19,405,2,28,25,2,2,1,2.806879e+00,NaN,1,0,1,1
19,406,2,117,8,1,1,1,3.059929e+00,NaN,1,1,3,1
19,407,2,56,71,2,2,1,1.526626e+00,NaN,1,0,2,1
19,408,2,144,21,2,2,1,1.551474e+00,NaN,1,0,3,1
19,409,2,119,62,1,1,1,1.710411e+00,NaN,1,0,3,1
19,410,2,121,44,1,1,1,1.415677e+00,NaN,1,0,3,1
19,411,2,122,26,1,1,1,1.708553e+00,NaN,1,0,3,1
19,412,2,66,13,2,2,1,1.477578e+00,NaN,1,0,2,1
19,413,2,25,45,1,1,1,3.081400e+00,NaN,1,0,1,1
19,414,2,44,46,2,0,0,3.499609e+00,NaN,1,0,1,1
19,415,2,2,52,1,1,1,1.179375e+00,NaN,1,0,1,1
19,416,2,19,12,1,1,1,1.417381e+00,NaN,1,0,1,1
19,417,2,93,24,2,2,1,1.693992e+00,NaN,1,0,2,1
19,418,2,17,49,2,1,0,1.535957e+00,NaN,1,1,1,1
19,419,2,70,72,2,2,1,1.671812e+00,NaN,1,0,2,1
19,420,2,76,28,2,2,1,1.154438e+00,NaN,1,1,2,1
19,421,2,125,41,2,1,0,2.537328e+00,NaN,1,1,3,1
19,422,2,42,29,2,2,1,1.600785e+00,NaN,1,0,1,1
19,423,2,140,50,1,1,1,2.702731e+00,NaN,1,1,3,1
19,424,2,23,5,2,2,1,2.591963e+00,NaN,1,1,1,1
19,425,2,89,33,2,2,1,1.221345e+00,NaN,1,0,2,1
19,426,3,125,41,2,1,0,1.549394e+00,NaN,1,1,3,1
19,427,3,46,56,1,1,1,1.220800e+00,NaN,1,0,1,1
19,428,3,144,21,1,1,1,1.121552e+00,NaN,1,0,3,1
19,429,3,17,49,2,1,0,2.786314e+00,NaN,1,1,1,1
19,430,3,119,62,2,2,1,1.335690e+00,NaN,1,0,3,1
19,431,3,122,26,1,1,1,7.679359e-01,NaN,1,0,3,1
19,432,3,56,71,1,1,1,1.263011e+00,NaN,1,0,2,1
19,433,3,44,46,2,2,1,2.337660e+00,NaN,1,0,1,1
19,434,3,23,5,1,2,0,1.617386e+00,NaN,1,1,1,1
19,435,3,121,44,2,2,1,1.046681e+00,NaN,1,0,3,1
19,436,3,27,2,2,1,0,1.505983e+00,NaN,1,0,1,1
19,437,3,76,28,2,2,1,1.530839e+00,NaN,1,1,2,1
19,438,3,25,45,1,2,0,1.538658e+00,NaN,1,0,1,1
19,439,3,93,24,2,2,1,1.506574e+00,NaN,1,0,2,1
19,440,3,21,11,2,2,1,1.475387e+00,NaN,1,1,1,1
19,441,3,42,29,1,1,1,9.017643e-01,NaN,1,0,1,1
19,442,3,66,13,1,1,1,9.114382e-01,NaN,1,0,2,1
19,443,3,2,52,2,2,1,1.568367e+00,NaN,1,0,1,1
19,444,3,140,50,2,2,1,3.159585e+00,NaN,1,1,3,1
19,445,3,19,12,1,1,1,1.574252e+00,NaN,1,0,1,1
19,446,3,70,72,1,1,1,8.047878e-01,NaN,1,0,2,1
19,447,3,89,33,1,1,1,1.049461e+00,NaN,1,0,2,1
19,448,3,28,25,2,2,1,7.092905e-01,NaN,1,0,1,1
19,449,3,117,8,2,2,1,1.846377e+00,NaN,1,1,3,1
19,474,2,138,1,2,2,1,9.112187e-01,NaN,1,0,3,2
19,475,2,43,51,1,1,1,9.919829e-01,NaN,1,0,1,2
19,476,2,41,19,1,1,1,1.533525e+00,NaN,1,0,1,2
19,477,2,102,9,2,2,1,1.733992e+00,NaN,1,0,3,2
19,478,2,131,7,2,2,1,9.582062e-01,NaN,1,0,3,2
19,479,2,81,40,2,2,1,9.569200e-01,NaN,1,1,2,2
19,480,2,71,47,2,2,1,9.557268e-01,NaN,1,1,2,2
19,481,2,79,16,2,2,1,8.512531e-01,NaN,1,1,2,2
19,482,2,80,63,1,1,1,1.046769e+00,NaN,1,0,2,2
19,483,2,60,30,1,1,1,1.018119e+00,NaN,1,0,2,2
19,484,2,94,3,2,1,0,1.399485e+00,NaN,1,1,2,2
19,485,2,37,68,2,1,0,9.004386e-01,NaN,1,1,1,2
19,486,2,101,38,2,2,1,1.358142e+00,NaN,1,0,3,2
19,487,2,10,69,1,1,1,1.093475e+00,NaN,1,0,1,2
19,488,2,16,36,1,2,0,1.392046e+00,NaN,1,0,1,2
19,489,2,54,14,1,1,1,1.037957e+00,NaN,1,0,2,2
19,490,2,74,32,1,2,0,7.610625e-01,NaN,1,1,2,2
19,491,2,128,34,2,2,1,1.184484e+00,NaN,1,0,3,2
19,492,2,11,27,1,1,1,1.334313e+00,NaN,1,0,1,2
19,493,2,108,23,2,2,1,1.166840e+00,NaN,1,0,3,2
19,494,2,69,39,1,1,1,1.045500e+00,NaN,1,1,2,2
19,495,2,113,65,1,1,1,1.161018e+00,NaN,1,0,3,2
19,496,2,137,61,1,2,0,1.232247e+00,NaN,1,0,3,2
19,497,2,99,20,2,2,1,1.756259e+00,NaN,1,0,3,2
19,498,3,102,9,1,2,0,1.450347e+00,NaN,1,0,3,2
19,499,3,128,34,1,1,1,2.077904e+00,NaN,1,0,3,2
19,500,3,16,36,2,2,1,1.040505e+00,NaN,1,0,1,2
19,501,3,54,14,2,2,1,6.999151e-01,NaN,1,0,2,2
19,502,3,108,23,2,2,1,1.245666e+00,NaN,1,0,3,2
19,503,3,80,63,2,2,1,7.855997e-01,NaN,1,0,2,2
19,504,3,79,16,1,1,1,8.718288e-01,NaN,1,1,2,2
19,505,3,137,61,2,2,1,1.074280e+00,NaN,1,0,3,2
19,506,3,81,40,1,1,1,6.527939e-01,NaN,1,1,2,2
19,507,3,131,7,2,2,1,6.167844e-01,NaN,1,0,3,2
19,508,3,11,27,1,1,1,6.778932e-01,NaN,1,0,1,2
19,509,3,74,32,2,2,1,7.040507e-01,NaN,1,1,2,2
19,510,3,101,38,1,1,1,1.361648e+00,NaN,1,0,3,2
19,511,3,138,1,2,2,1,1.576189e+00,NaN,1,0,3,2
19,512,3,60,30,1,1,1,6.305426e-01,NaN,1,0,2,2
19,513,3,37,68,1,2,0,1.610842e+00,NaN,1,1,1,2
19,514,3,43,51,1,1,1,9.835179e-01,NaN,1,0,1,2
19,515,3,10,69,1,1,1,9.098327e-01,NaN,1,0,1,2
19,516,3,94,3,2,2,1,1.207400e+00,NaN,1,1,2,2
19,517,3,69,39,2,2,1,5.880908e-01,NaN,1,1,2,2
19,518,3,41,19,2,2,1,1.034093e+00,NaN,1,0,1,2
19,519,3,113,65,1,1,1,1.150288e+00,NaN,1,0,3,2
19,520,3,99,20,2,2,1,1.101876e+00,NaN,1,0,3,2
19,521,3,71,47,2,2,1,6.393515e-01,NaN,1,1,2,2
19,546,2,142,17,1,1,1,1.340879e+00,NaN,1,0,3,3
19,547,2,65,22,1,1,1,8.441974e-01,NaN,1,0,2,3
19,548,2,116,15,2,2,1,1.448287e+00,NaN,1,0,3,3
19,549,2,62,42,1,1,1,1.291437e+00,NaN,1,0,2,3
19,550,2,48,53,1,1,1,1.053162e+00,NaN,1,1,1,3
19,551,2,98,64,1,1,1,1.208761e+00,NaN,1,0,3,3
19,552,2,111,59,1,1,1,1.293948e+00,NaN,1,0,3,3
19,553,2,61,37,2,2,1,7.036737e-01,NaN,1,0,2,3
19,554,2,5,10,1,1,1,1.288771e+00,NaN,1,0,1,3
19,555,2,22,70,1,1,1,9.386009e-01,NaN,1,0,1,3
19,556,2,55,18,1,2,0,1.114342e+00,NaN,1,1,2,3
19,557,2,103,55,2,2,1,1.451308e+00,NaN,1,0,3,3
19,558,2,7,6,2,1,0,1.526494e+00,NaN,1,0,1,3
19,559,2,84,58,1,1,1,7.831855e-01,NaN,1,0,2,3
19,560,2,26,57,1,1,1,1.461482e+00,NaN,1,0,1,3
19,561,2,24,67,1,1,1,1.048395e+00,NaN,1,0,1,3
19,562,2,8,54,1,2,0,1.771540e+00,NaN,1,0,1,3
19,563,2,51,43,1,2,0,1.129732e+00,NaN,1,0,2,3
19,564,2,106,4,1,1,1,1.130031e+00,NaN,1,0,3,3
19,565,2,130,31,2,2,1,1.114799e+00,NaN,1,1,3,3
19,566,2,67,48,1,1,1,1.627005e+00,NaN,1,1,2,3
19,567,2,91,60,1,2,0,9.761160e-01,NaN,1,0,2,3
19,568,2,118,66,1,1,1,1.830927e+00,NaN,1,0,3,3
19,569,2,53,35,1,1,1,1.259685e+00,NaN,1,0,2,3
19,570,3,61,37,1,1,1,5.352572e-01,NaN,1,0,2,3
19,571,3,103,55,1,1,1,1.071176e+00,NaN,1,0,3,3
19,572,3,24,67,1,1,1,1.321548e+00,NaN,1,0,1,3
19,573,3,7,6,1,2,0,1.201891e+00,NaN,1,0,1,3
19,574,3,8,54,1,1,1,9.354405e-01,NaN,1,0,1,3
19,575,3,51,43,1,1,1,7.358461e-01,NaN,1,0,2,3
19,576,3,106,4,2,2,1,1.015771e+00,NaN,1,0,3,3
19,577,3,48,53,2,2,1,1.228975e+00,NaN,1,1,1,3
19,578,3,118,66,1,2,0,1.153205e+00,NaN,1,0,3,3
19,579,3,98,64,2,1,0,1.040968e+00,NaN,1,0,3,3
19,580,3,65,22,2,2,1,1.596703e+00,NaN,1,0,2,3
19,581,3,53,35,1,1,1,1.113645e+00,NaN,1,0,2,3
19,582,3,26,57,2,2,1,1.210409e+00,NaN,1,0,1,3
19,583,3,22,70,2,2,1,9.520699e-01,NaN,1,0,1,3
19,584,3,91,60,1,1,1,1.399455e+00,NaN,1,0,2,3
19,585,3,67,48,2,2,1,9.646917e-01,NaN,1,1,2,3
19,586,3,84,58,2,2,1,7.000941e-01,NaN,1,0,2,3
19,587,3,142,17,1,1,1,1.541687e+00,NaN,1,0,3,3
19,588,3,62,42,1,1,1,8.936914e-01,NaN,1,0,2,3
19,589,3,5,10,1,1,1,8.552894e-01,NaN,1,0,1,3
19,590,3,55,18,2,2,1,9.938662e-01,NaN,1,1,2,3
19,591,3,111,59,2,2,1,8.563631e-01,NaN,1,0,3,3
19,592,3,116,15,1,1,1,1.155706e+00,NaN,1,0,3,3
19,593,3,130,31,2,2,1,1.058696e+00,NaN,1,1,3,3
19,618,4,32,71,1,1,1,1.085249e+00,NaN,2,0,1,1
19,619,4,72,53,2,2,1,1.127332e+00,NaN,2,1,2,1
19,620,4,57,29,2,1,0,9.116812e-01,NaN,2,0,2,1
19,621,4,64,69,1,1,1,1.160360e+00,NaN,2,0,2,1
19,622,4,14,9,2,2,1,1.159305e+00,NaN,2,0,1,1
19,623,4,123,67,1,1,1,1.134536e+00,NaN,2,0,3,1
19,624,4,132,33,2,2,1,1.462544e+00,NaN,2,0,3,1
19,625,4,87,21,2,1,0,1.273379e+00,NaN,2,0,2,1
19,626,4,4,44,2,1,0,1.619638e+00,NaN,2,0,1,1
19,627,4,13,61,2,2,1,1.160347e+00,NaN,2,0,1,1
19,628,4,133,37,2,2,1,1.224089e+00,NaN,2,0,3,1
19,629,4,82,31,2,2,1,1.228371e+00,NaN,2,1,2,1
19,630,4,75,5,2,2,1,7.447974e-01,NaN,2,1,2,1
19,631,4,114,51,1,1,1,1.472384e+00,NaN,2,0,3,1
19,632,4,86,17,2,2,1,9.151189e-01,NaN,2,0,2,1
19,633,4,120,52,2,2,1,1.684059e+00,NaN,2,0,3,1
19,634,4,136,16,2,2,1,1.286272e+00,NaN,2,1,3,1
19,635,4,112,46,2,2,1,2.000676e+00,NaN,2,0,3,1
19,636,4,124,60,1,1,1,1.037997e+00,NaN,2,0,3,1
19,637,4,50,11,1,1,1,9.854292e-01,NaN,2,1,2,1
19,638,4,59,19,2,1,0,1.192115e+00,NaN,2,0,2,1
19,639,4,12,8,1,1,1,1.661183e+00,NaN,2,1,1,1
19,640,4,1,55,2,2,1,9.766971e-01,NaN,2,0,1,1
19,641,4,139,22,2,2,1,1.015469e+00,NaN,2,0,3,1
19,666,4,77,64,1,1,1,1.444445e+00,NaN,2,0,2,2
19,667,4,15,1,2,1,0,1.238801e+00,NaN,2,0,1,2
19,668,4,52,45,1,1,1,1.186677e+00,NaN,2,0,2,2
19,669,4,97,56,2,2,1,8.886149e-01,NaN,2,0,3,2
19,670,4,88,41,2,2,1,8.103587e-01,NaN,2,1,2,2
19,671,4,115,57,2,2,1,1.256035e+00,NaN,2,0,3,2
19,672,4,38,43,2,2,1,1.178748e+00,NaN,2,0,1,2
19,673,4,68,70,2,2,1,7.530602e-01,NaN,2,0,2,2
19,674,4,96,59,1,1,1,6.161958e-01,NaN,2,0,2,2
19,675,4,90,50,1,1,1,1.349232e+00,NaN,2,1,2,2
19,676,4,30,18,1,1,1,9.729366e-01,NaN,2,1,1,2
19,677,4,58,49,1,2,0,6.915862e-01,NaN,2,1,2,2
19,678,4,45,72,2,2,1,1.981237e+00,NaN,2,0,1,2
19,679,4,33,30,1,1,1,9.874763e-01,NaN,2,0,1,2
19,680,4,40,13,2,2,1,1.144899e+00,NaN,2,0,1,2
19,681,4,141,28,2,1,0,1.313052e+00,NaN,2,1,3,2
19,682,4,39,48,1,1,1,7.857135e-01,NaN,2,1,1,2
19,683,4,3,66,2,2,1,1.263662e+00,NaN,2,0,1,2
19,684,4,6,23,1,1,1,1.523002e+00,NaN,2,0,1,2
19,685,4,104,68,1,1,1,1.355856e+00,NaN,2,1,3,2
19,686,4,126,24,1,1,1,1.307030e+00,NaN,2,0,3,2
19,687,4,47,63,1,1,1,1.260183e+00,NaN,2,0,1,2
19,688,4,31,32,1,1,1,1.927530e+00,NaN,2,1,1,2
19,689,4,143,47,2,2,1,1.608465e+00,NaN,2,1,3,2
19,714,4,92,15,2,2,1,1.308617e+00,NaN,2,0,2,3
19,715,4,83,26,1,2,0,8.938245e-01,NaN,2,0,2,3
19,716,4,20,65,2,2,1,1.247619e+00,NaN,2,0,1,3
19,717,4,9,34,1,1,1,1.594841e+00,NaN,2,0,1,3
19,718,4,36,40,1,1,1,1.656342e+00,NaN,2,1,1,3
19,719,4,110,27,1,2,0,1.867767e+00,NaN,2,0,3,3
19,720,4,73,6,1,1,1,7.423633e-01,NaN,2,0,2,3
19,721,4,129,14,1,1,1,1.086306e+00,NaN,2,0,3,3
19,722,4,18,38,2,2,1,1.280285e+00,NaN,2,0,1,3
19,723,4,95,62,2,1,0,1.114604e+00,NaN,2,0,2,3
19,724,4,63,36,1,1,1,1.243685e+00,NaN,2,0,2,3
19,725,4,29,4,1,1,1,1.438969e+00,NaN,2,0,1,3
19,726,4,78,20,1,1,1,8.992115e-01,NaN,2,0,2,3
19,727,4,127,58,2,2,1,1.172750e+00,NaN,2,0,3,3
19,728,4,100,12,2,2,1,1.771347e+00,NaN,2,0,3,3
19,729,4,109,2,1,1,1,1.289768e+00,NaN,2,0,3,3
19,730,4,49,10,1,1,1,7.718985e-01,NaN,2,0,2,3
19,731,4,105,54,2,1,0,1.330721e+00,NaN,2,0,3,3
19,732,4,134,42,2,2,1,1.026315e+00,NaN,2,0,3,3
19,733,4,85,7,2,2,1,1.127246e+00,NaN,2,0,2,3
19,734,4,35,35,2,1,0,1.135767e+00,NaN,2,0,1,3
19,735,4,135,39,2,2,1,1.352232e+00,NaN,2,1,3,3
19,736,4,107,25,2,2,1,1.295646e+00,NaN,2,0,3,3
19,737,4,34,3,2,2,1,1.409620e+00,NaN,2,1,1,3
19,738,5,6.233000e+01,37,2,0,0,2.500524e+00,1,1,0,2.300000e+00,1
19,739,5,1.021400e+02,9,3,2,0,7.526141e-01,1,1,0,3.100000e+00,1
19,740,5,1.381500e+02,1,3,1,0,6.746112e-01,1,1,0,3.100000e+00,1
19,741,5,2.809000e+01,2,1,3,0,5.317600e-01,1,1,0,1.300000e+00,1
19,742,5,1.169200e+02,15,3,2,0,5.171551e-01,1,1,0,3.200000e+00,1
19,743,5,1.011800e+02,38,3,1,0,8.231719e-01,1,1,0,3.100000e+00,1
19,744,5,1.663000e+01,36,1,2,0,5.768663e-01,1,1,0,1.200000e+00,1
19,745,5,2.809000e+01,2,1,2,0,1.042436e+00,2,1,0,1.300000e+00,1
19,746,5,1.210000e+01,27,1,1,1,4.119578e-01,1,1,0,1.300000e+00,1
19,747,5,4.697000e+01,56,1,2,0,5.096982e-01,1,1,0,1.300000e+00,1
19,748,5,4.159000e+01,19,1,1,1,3.833611e-01,1,1,0,1.200000e+00,1
19,749,5,6.233000e+01,37,2,2,1,1.425230e+00,2,1,0,2.300000e+00,1
19,750,5,1.030100e+02,55,3,3,1,4.989041e-01,1,1,0,3.100000e+00,1
19,751,5,8.047000e+01,63,2,2,1,5.245660e-01,1,1,0,2.100000e+00,1
19,752,5,2.268000e+01,70,1,1,1,3.256010e-01,1,1,0,1.200000e+00,1
19,753,5,1.199500e+02,62,3,3,1,9.196557e-01,1,1,0,3.200000e+00,1
19,754,5,8.527000e+01,58,2,2,1,3.370972e-01,1,1,0,2.300000e+00,1
19,755,5,5.138000e+01,43,2,1,0,1.178688e+00,1,1,0,2.100000e+00,1
19,756,5,6.640000e+01,13,2,2,1,2.841546e-01,1,1,0,2.100000e+00,1
19,757,5,6.233000e+01,37,2,2,1,3.254721e-01,3,1,0,2.300000e+00,1
19,758,5,1.318500e+02,7,3,3,1,3.510048e-01,1,1,0,3.200000e+00,1
19,759,5,9.978000e+01,20,3,2,0,8.727280e-01,1,1,0,3.200000e+00,1
19,760,5,1.132000e+02,65,3,3,1,8.102181e-01,1,1,0,3.100000e+00,1
19,761,5,1.021400e+02,9,3,1,0,4.603262e-01,2,1,0,3.100000e+00,1
19,762,5,1.448700e+02,21,3,3,1,3.021954e-01,1,1,0,3.200000e+00,1
19,763,5,9.224000e+01,60,2,2,1,3.441858e-01,1,1,0,2.300000e+00,1
19,764,5,2.552000e+01,45,1,2,0,4.178152e-01,1,1,0,1.200000e+00,1
19,765,5,4.512000e+01,46,1,3,0,1.539229e+00,1,1,0,1.300000e+00,1
19,766,5,1.663000e+01,36,1,3,0,1.725310e+00,2,1,0,1.200000e+00,1
19,767,5,1.169200e+02,15,3,2,0,3.918623e-01,2,1,0,3.200000e+00,1
19,768,5,1.119600e+02,59,3,1,0,6.811368e-01,1,1,0,3.200000e+00,1
19,769,5,1.280900e+02,34,3,2,0,5.000919e-01,1,1,0,3.100000e+00,1
19,770,5,5.529000e+01,14,2,2,1,3.408081e-01,1,1,0,2.300000e+00,1
19,771,5,9.050000e+00,54,1,1,1,5.979974e-01,1,1,0,1.300000e+00,1
19,772,5,5.335000e+01,35,2,3,0,3.034312e-01,1,1,0,2.100000e+00,1
19,773,5,1.062900e+02,4,3,3,1,1.064780e+00,1,1,0,3.100000e+00,1
19,774,5,7.730000e+00,6,1,1,1,2.746796e-01,1,1,0,1.200000e+00,1
19,775,5,9.032000e+01,33,2,1,0,3.877107e-01,1,1,0,2.300000e+00,1
19,776,5,1.064000e+01,69,1,1,1,2.616072e-01,1,1,0,1.200000e+00,1
19,777,5,1.210400e+02,44,3,3,1,7.269785e-01,1,1,0,3.100000e+00,1
19,778,5,6.639000e+01,22,2,1,0,7.524985e-01,1,1,0,2.300000e+00,1
19,779,5,9.877000e+01,64,3,2,0,2.338459e-01,1,1,0,3.200000e+00,1
19,780,5,1.199500e+02,62,3,1,0,2.601233e-01,2,1,0,3.200000e+00,1
19,781,5,1.428600e+02,17,3,2,0,2.935840e-01,1,1,0,3.200000e+00,1
19,782,5,4.257000e+01,29,1,1,1,3.674371e-01,1,1,0,1.200000e+00,1
19,783,5,5.335000e+01,35,2,2,1,9.212555e-01,2,1,0,2.100000e+00,1
19,784,5,1.011800e+02,38,3,1,0,2.506154e-01,2,1,0,3.100000e+00,1
19,785,5,1.064000e+01,69,1,1,1,3.170140e-01,2,1,0,1.200000e+00,1
19,786,5,5.529000e+01,14,2,2,1,4.382053e-01,2,1,0,2.300000e+00,1
19,787,5,2.907000e+01,25,1,1,1,3.598468e-01,1,1,0,1.300000e+00,1
19,788,5,4.257000e+01,29,1,1,1,2.416246e-01,2,1,0,1.200000e+00,1
19,789,5,1.280900e+02,34,3,3,1,2.596509e-01,2,1,0,3.100000e+00,1
19,790,5,1.381500e+02,1,3,2,0,3.649885e-01,2,1,0,3.100000e+00,1
19,791,5,2.523000e+01,67,1,3,0,3.103882e-01,1,1,0,1.300000e+00,1
19,792,5,1.210400e+02,44,3,3,1,2.484533e-01,2,1,0,3.100000e+00,1
19,793,5,1.371300e+02,61,3,2,0,2.500627e-01,1,1,0,3.100000e+00,1
19,794,5,5.335000e+01,35,2,1,0,5.393104e-01,3,1,0,2.100000e+00,1
19,795,5,9.426000e+01,24,2,1,0,1.141184e+00,1,1,0,2.300000e+00,1
19,796,5,2.523000e+01,67,1,1,1,3.183880e-01,2,1,0,1.300000e+00,1
19,797,5,5.138000e+01,43,2,1,0,2.802541e-01,2,1,0,2.100000e+00,1
19,798,5,1.428600e+02,17,3,3,1,1.409629e-04,2,1,0,3.200000e+00,1
19,799,5,6.640000e+01,13,2,2,1,4.527414e-01,2,1,0,2.100000e+00,1
19,800,5,1.064000e+01,69,1,1,1,3.331176e-01,3,1,0,1.200000e+00,1
19,801,5,2.715000e+01,57,1,1,1,8.545942e-01,1,1,0,1.300000e+00,1
19,802,5,4.257000e+01,29,1,1,1,3.038058e-01,3,1,0,1.200000e+00,1
19,803,5,9.426000e+01,24,2,2,1,3.213015e-01,2,1,0,2.300000e+00,1
19,804,5,2.268000e+01,70,1,1,1,3.549992e-01,2,1,0,1.200000e+00,1
19,805,5,9.877000e+01,64,3,3,1,4.767051e-01,2,1,0,3.200000e+00,1
19,806,5,5.138000e+01,43,2,1,0,4.778880e-01,3,1,0,2.100000e+00,1
19,807,5,8.527000e+01,58,2,2,1,3.438118e-01,2,1,0,2.300000e+00,1
19,808,5,1.011800e+02,38,3,1,0,3.775001e-01,3,1,0,3.100000e+00,1
19,809,5,1.062900e+02,4,3,2,0,5.953892e-01,2,1,0,3.100000e+00,1
19,810,5,1.448700e+02,21,3,3,1,7.485711e-01,2,1,0,3.200000e+00,1
19,811,5,4.697000e+01,56,1,2,0,7.338102e-01,2,1,0,1.300000e+00,1
19,812,5,9.978000e+01,20,3,1,0,4.559105e-01,2,1,0,3.200000e+00,1
19,813,5,3.200000e+00,52,1,1,1,3.214593e-01,1,1,0,1.300000e+00,1
19,814,5,1.663000e+01,36,1,3,0,4.347467e-01,3,1,0,1.200000e+00,1
19,815,5,8.527000e+01,58,2,2,1,3.003617e-01,3,1,0,2.300000e+00,1
19,816,5,1.021400e+02,9,3,3,1,3.186697e-01,3,1,0,3.100000e+00,1
19,817,5,20,12,1,1,1,3.603041e-01,1,1,0,1.300000e+00,1
19,818,5,9.877000e+01,64,3,3,1,2.578093e-01,3,1,0,3.200000e+00,1
19,819,5,1.371300e+02,61,3,2,0,3.551546e-01,2,1,0,3.100000e+00,1
19,820,5,6.640000e+01,13,2,2,1,3.808760e-01,3,1,0,2.100000e+00,1
19,821,5,2.552000e+01,45,1,1,1,3.822038e-01,2,1,0,1.200000e+00,1
19,822,5,2.523000e+01,67,1,1,1,3.114320e-01,3,1,0,1.300000e+00,1
19,823,5,2.907000e+01,25,1,1,1,2.254455e-01,2,1,0,1.300000e+00,1
19,824,5,9.050000e+00,54,1,3,0,2.350923e-01,2,1,0,1.300000e+00,1
19,825,5,1.119600e+02,59,3,3,1,2.689499e-01,2,1,0,3.200000e+00,1
19,826,5,2.268000e+01,70,1,1,1,4.546946e-01,3,1,0,1.200000e+00,1
19,827,5,4.159000e+01,19,1,1,1,3.520788e-01,2,1,0,1.200000e+00,1
19,828,5,1.210000e+01,27,1,1,1,3.537824e-01,2,1,0,1.300000e+00,1
19,829,5,1.030100e+02,55,3,3,1,4.190847e-01,2,1,0,3.100000e+00,1
19,830,5,2.907000e+01,25,1,1,1,3.492508e-01,3,1,0,1.300000e+00,1
19,831,5,5.490000e+00,10,1,3,0,8.625241e-01,1,1,0,1.200000e+00,1
19,832,5,20,12,1,1,1,2.957812e-01,2,1,0,1.300000e+00,1
19,833,5,1.080600e+02,23,3,2,0,1.041387e+00,1,1,0,3.100000e+00,1
19,834,5,1.448700e+02,21,3,3,1,2.666571e-01,3,1,0,3.200000e+00,1
19,835,5,1.062900e+02,4,3,3,1,6.368787e-01,3,1,0,3.100000e+00,1
19,836,5,8.527000e+01,58,2,2,1,4.863581e-01,4,1,0,2.300000e+00,1
19,837,5,6.639000e+01,22,2,2,1,3.114422e-01,2,1,0,2.300000e+00,1
19,838,5,2.552000e+01,45,1,3,0,3.131039e-01,3,1,0,1.200000e+00,1
19,839,5,1.064000e+01,69,1,1,1,3.063135e-01,4,1,0,1.200000e+00,1
19,840,5,1.381500e+02,1,3,3,1,4.441834e-01,3,1,0,3.100000e+00,1
19,841,5,1.119600e+02,59,3,3,1,2.616974e-01,3,1,0,3.200000e+00,1
19,842,5,6.639000e+01,22,2,2,1,7.832380e-01,3,1,0,2.300000e+00,1
19,843,5,1.210400e+02,44,3,3,1,2.167339e-01,3,1,0,3.100000e+00,1
19,844,5,4.512000e+01,46,1,3,0,6.586284e-01,2,1,0,1.300000e+00,1
19,845,5,1.180300e+02,66,3,3,1,2.529019e-01,1,1,0,3.100000e+00,1
19,846,5,1.180300e+02,66,3,3,1,4.702902e-01,2,1,0,3.100000e+00,1
19,847,5,5.490000e+00,10,1,2,0,1.039688e+00,2,1,0,1.200000e+00,1
19,848,5,9.032000e+01,33,2,2,1,2.007378e-01,2,1,0,2.300000e+00,1
19,849,5,8.047000e+01,63,2,2,1,4.264927e-01,2,1,0,2.100000e+00,1
19,850,5,2.715000e+01,57,1,3,0,5.482641e-01,2,1,0,1.300000e+00,1
19,851,5,2.715000e+01,57,1,1,1,2.458054e-01,3,1,0,1.300000e+00,1
19,852,5,9.426000e+01,24,2,3,0,5.193899e-01,3,1,0,2.300000e+00,1
19,853,5,7.045000e+01,72,2,2,1,1.500617e+00,1,1,0,2.100000e+00,1
19,854,5,5.632000e+01,71,2,1,0,8.434838e-01,1,1,0,2.100000e+00,1
19,855,5,1.210000e+01,27,1,1,1,2.211813e-01,3,1,0,1.300000e+00,1
19,856,5,1.228300e+02,26,3,2,0,9.745349e-01,1,1,0,3.200000e+00,1
19,857,5,5.529000e+01,14,2,2,1,2.478266e-01,3,1,0,2.300000e+00,1
19,858,5,4.414000e+01,51,1,1,1,4.252639e-01,1,1,0,1.300000e+00,1
19,859,5,1.062900e+02,4,3,3,1,1.018955e+00,4,1,0,3.100000e+00,1
19,860,5,2.907000e+01,25,1,1,1,3.406741e-01,4,1,0,1.300000e+00,1
19,861,5,6.033000e+01,30,2,1,0,1.102165e+00,1,1,0,2.100000e+00,1
19,862,5,6.639000e+01,22,2,2,1,1.999702e-01,4,1,0,2.300000e+00,1
19,863,5,9.032000e+01,33,2,1,0,3.695084e-01,3,1,0,2.300000e+00,1
19,864,5,1.318500e+02,7,3,3,1,2.510938e-01,2,1,0,3.200000e+00,1
19,865,5,7.730000e+00,6,1,3,0,3.170403e-01,2,1,0,1.200000e+00,1
19,866,5,1.030100e+02,55,3,3,1,3.268054e-01,3,1,0,3.100000e+00,1
19,867,5,5.632000e+01,71,2,1,0,5.606417e-01,2,1,0,2.100000e+00,1
19,868,5,5.490000e+00,10,1,1,1,8.582052e-01,3,1,0,1.200000e+00,1
19,869,5,4.697000e+01,56,1,2,0,7.719966e-01,3,1,0,1.300000e+00,1
19,870,5,3.200000e+00,52,1,1,1,2.858350e-01,2,1,0,1.300000e+00,1
19,871,5,4.512000e+01,46,1,2,0,1.255415e+00,3,1,0,1.300000e+00,1
19,872,5,8.047000e+01,63,2,2,1,3.286258e-01,3,1,0,2.100000e+00,1
19,873,5,1.228300e+02,26,3,3,1,4.585414e-01,2,1,0,3.200000e+00,1
19,874,5,7.045000e+01,72,2,2,1,6.838022e-01,2,1,0,2.100000e+00,1
19,875,5,5.529000e+01,14,2,2,1,2.859113e-01,4,1,0,2.300000e+00,1
19,876,5,5.138000e+01,43,2,1,0,2.718975e-01,4,1,0,2.100000e+00,1
19,877,5,1.228300e+02,26,3,3,1,2.568814e-01,3,1,0,3.200000e+00,1
19,878,5,1.169200e+02,15,3,1,0,4.344621e-01,3,1,0,3.200000e+00,1
19,879,5,5.632000e+01,71,2,2,1,3.725275e-01,3,1,0,2.100000e+00,1
19,880,5,4.414000e+01,51,1,1,1,2.774509e-01,2,1,0,1.300000e+00,1
19,881,5,6.033000e+01,30,2,1,0,5.511830e-01,2,1,0,2.100000e+00,1
19,882,5,9.978000e+01,20,3,3,1,2.971959e-01,3,1,0,3.200000e+00,1
19,883,5,5.335000e+01,35,2,2,1,2.663335e-01,4,1,0,2.100000e+00,1
19,884,5,9.050000e+00,54,1,1,1,8.120243e-01,3,1,0,1.300000e+00,1
19,885,5,3.200000e+00,52,1,1,1,3.336277e-01,3,1,0,1.300000e+00,1
19,886,5,1.080600e+02,23,3,2,0,9.911634e-01,2,1,0,3.100000e+00,1
19,887,5,9.224000e+01,60,2,3,0,9.522592e-01,2,1,0,2.300000e+00,1
19,888,5,5.632000e+01,71,2,2,1,8.499316e-01,4,1,0,2.100000e+00,1
19,889,5,20,12,1,1,1,2.998265e-01,3,1,0,1.300000e+00,1
19,890,5,2.809000e+01,2,1,1,1,2.459470e-01,3,1,0,1.300000e+00,1
19,891,5,4.697000e+01,56,1,2,0,8.469261e-01,4,1,0,1.300000e+00,1
19,892,5,9.877000e+01,64,3,3,1,1.120365e+00,4,1,0,3.200000e+00,1
19,893,5,1.228300e+02,26,3,3,1,2.983016e-01,4,1,0,3.200000e+00,1
19,894,5,6.334000e+01,42,2,1,0,6.515017e-01,1,1,0,2.300000e+00,1
19,895,5,9.032000e+01,33,2,2,1,8.450018e-01,4,1,0,2.300000e+00,1
19,896,5,1.371300e+02,61,3,3,1,4.306017e-01,3,1,0,3.100000e+00,1
19,897,5,1.428600e+02,17,3,3,1,2.723101e-01,3,1,0,3.200000e+00,1
19,898,5,2.715000e+01,57,1,1,1,2.973894e-01,4,1,0,1.300000e+00,1
19,899,5,1.318500e+02,7,3,3,1,2.829424e-01,3,1,0,3.200000e+00,1
19,900,5,1.381500e+02,1,3,2,0,1.676693e+00,4,1,0,3.100000e+00,1
19,901,5,1.280900e+02,34,3,2,0,4.467228e-01,3,1,0,3.100000e+00,1
19,902,5,2.523000e+01,67,1,3,0,8.319807e-01,4,1,0,1.300000e+00,1
19,903,5,1.199500e+02,62,3,3,1,4.736404e-01,3,1,0,3.200000e+00,1
19,904,5,4.159000e+01,19,1,1,1,2.908970e-01,3,1,0,1.200000e+00,1
19,905,5,1.318500e+02,7,3,3,1,3.406342e-01,4,1,0,3.200000e+00,1
19,906,5,1.371300e+02,61,3,2,0,6.138843e-01,4,1,0,3.100000e+00,1
19,907,5,1.080600e+02,23,3,1,0,8.479469e-01,3,1,0,3.100000e+00,1
19,908,5,2.268000e+01,70,1,1,1,6.169320e-01,4,1,0,1.200000e+00,1
19,909,5,9.050000e+00,54,1,2,0,6.749106e-01,4,1,0,1.300000e+00,1
19,910,5,2.552000e+01,45,1,2,0,4.447285e-01,4,1,0,1.200000e+00,1
19,911,5,1.180300e+02,66,3,3,1,4.222701e-01,3,1,0,3.100000e+00,1
19,912,5,6.640000e+01,13,2,2,1,4.555712e-01,4,1,0,2.100000e+00,1
19,913,5,1.132000e+02,65,3,2,0,2.406436e-01,2,1,0,3.100000e+00,1
19,914,5,4.414000e+01,51,1,1,1,8.983609e-01,3,1,0,1.300000e+00,1
19,915,5,9.978000e+01,20,3,2,0,3.958660e-01,4,1,0,3.200000e+00,1
19,916,5,1.132000e+02,65,3,2,0,7.094520e-01,3,1,0,3.100000e+00,1
19,917,5,1.132000e+02,65,3,3,1,3.429120e-01,4,1,0,3.100000e+00,1
19,918,5,1.428600e+02,17,3,3,1,3.447569e-01,4,1,0,3.200000e+00,1
19,919,5,3.200000e+00,52,1,1,1,3.783432e-01,4,1,0,1.300000e+00,1
19,920,5,4.414000e+01,51,1,1,1,2.760892e-01,4,1,0,1.300000e+00,1
19,921,5,2.809000e+01,2,1,1,1,2.134996e-01,4,1,0,1.300000e+00,1
19,922,5,7.730000e+00,6,1,3,0,4.309274e-01,3,1,0,1.200000e+00,1
19,923,5,9.224000e+01,60,2,2,1,3.045683e-01,3,1,0,2.300000e+00,1
19,924,5,8.047000e+01,63,2,2,1,3.139267e-01,4,1,0,2.100000e+00,1
19,925,5,9.224000e+01,60,2,2,1,2.751988e-01,4,1,0,2.300000e+00,1
19,926,5,6.233000e+01,37,2,2,1,2.133544e-01,4,1,0,2.300000e+00,1
19,927,5,6.033000e+01,30,2,2,1,2.866101e-01,3,1,0,2.100000e+00,1
19,928,5,20,12,1,1,1,7.677877e-01,4,1,0,1.300000e+00,1
19,929,5,1.280900e+02,34,3,2,0,2.575959e-01,4,1,0,3.100000e+00,1
19,930,5,6.334000e+01,42,2,2,1,3.710882e-01,2,1,0,2.300000e+00,1
19,931,5,1.663000e+01,36,1,1,1,2.047496e-01,4,1,0,1.200000e+00,1
19,932,5,7.730000e+00,6,1,1,1,3.903730e-01,4,1,0,1.200000e+00,1
19,933,5,1.448700e+02,21,3,2,0,8.076002e-01,4,1,0,3.200000e+00,1
19,934,5,4.257000e+01,29,1,1,1,2.887454e-01,4,1,0,1.200000e+00,1
19,935,5,4.159000e+01,19,1,1,1,2.669719e-01,4,1,0,1.200000e+00,1
19,936,5,1.021400e+02,9,3,3,1,3.164496e-01,4,1,0,3.100000e+00,1
19,937,5,6.334000e+01,42,2,2,1,2.709759e-01,3,1,0,2.300000e+00,1
19,938,5,1.030100e+02,55,3,1,0,7.992821e-01,4,1,0,3.100000e+00,1
19,939,5,5.490000e+00,10,1,2,0,7.523584e-01,4,1,0,1.200000e+00,1
19,940,5,1.169200e+02,15,3,3,1,1.226091e+00,4,1,0,3.200000e+00,1
19,941,5,6.334000e+01,42,2,2,1,2.839783e-01,4,1,0,2.300000e+00,1
19,942,5,1.210000e+01,27,1,1,1,1.029669e+00,4,1,0,1.300000e+00,1
19,943,5,1.119600e+02,59,3,2,0,8.308225e-01,4,1,0,3.200000e+00,1
19,944,5,6.033000e+01,30,2,1,0,5.126382e-01,4,1,0,2.100000e+00,1
19,945,5,7.045000e+01,72,2,2,1,4.577988e-01,3,1,0,2.100000e+00,1
19,946,5,1.210400e+02,44,3,3,1,7.315693e-01,4,1,0,3.100000e+00,1
19,947,5,1.011800e+02,38,3,1,0,1.396958e+00,4,1,0,3.100000e+00,1
19,948,5,4.512000e+01,46,1,2,0,7.825909e-01,4,1,0,1.300000e+00,1
19,949,5,9.426000e+01,24,2,3,0,1.543636e+00,4,1,0,2.300000e+00,1
19,950,5,1.080600e+02,23,3,1,0,4.096740e-01,4,1,0,3.100000e+00,1
19,951,5,1.180300e+02,66,3,3,1,2.833764e-01,4,1,0,3.100000e+00,1
19,952,5,1.199500e+02,62,3,2,0,1.277265e+00,4,1,0,3.200000e+00,1
19,953,5,7.045000e+01,72,2,2,1,4.310829e-01,4,1,0,2.100000e+00,1
19,954,6,30,18,2,2,1,9.705315e-01,NaN,2,1,1,1
19,955,6,133,37,1,1,1,3.945590e-01,NaN,2,0,3,1
19,956,6,123,67,1,2,0,1.241909e+00,NaN,2,0,3,1
19,957,6,15,1,2,2,1,8.541478e-01,NaN,2,0,1,1
19,958,6,95,62,1,2,0,7.148849e-01,NaN,2,0,2,1
19,959,6,87,21,2,2,1,1.052605e+00,NaN,2,0,2,1
19,960,6,34,3,1,2,0,9.935323e-01,NaN,2,1,1,1
19,961,6,143,47,2,2,1,1.576497e+00,NaN,2,1,3,1
19,962,6,135,39,2,2,1,8.559519e-01,NaN,2,1,3,1
19,963,6,64,69,2,2,1,8.134005e-01,NaN,2,0,2,1
19,964,6,112,46,2,2,1,1.106618e+00,NaN,2,0,3,1
19,965,6,124,60,1,1,1,1.188664e+00,NaN,2,0,3,1
19,966,6,36,40,2,2,1,2.683639e+00,NaN,2,1,1,1
19,967,6,120,52,1,1,1,2.174266e+00,NaN,2,0,3,1
19,968,6,1,55,1,1,1,1.414186e+00,NaN,2,0,1,1
19,969,6,129,14,1,1,1,2.436133e+00,NaN,2,0,3,1
19,970,6,104,68,2,1,0,1.369116e+00,NaN,2,1,3,1
19,971,6,72,53,1,1,1,1.280721e+00,NaN,2,1,2,1
19,972,6,90,50,2,2,1,1.116079e+00,NaN,2,1,2,1
19,973,6,127,58,2,2,1,1.518556e+00,NaN,2,0,3,1
19,974,6,107,25,2,2,1,9.360883e-01,NaN,2,0,3,1
19,975,6,14,9,1,1,1,2.857861e+00,NaN,2,0,1,1
19,976,6,59,19,2,1,0,1.333267e+00,NaN,2,0,2,1
19,977,6,32,71,2,2,1,1.103022e+00,NaN,2,0,1,1
19,978,6,88,41,2,2,1,6.813038e-01,NaN,2,1,2,1
19,979,6,82,31,2,2,1,7.961203e-01,NaN,2,1,2,1
19,980,6,83,26,2,1,0,1.354983e+00,NaN,2,0,2,1
19,981,6,141,28,1,1,1,1.083736e+00,NaN,2,1,3,1
19,982,6,39,48,1,2,0,2.693903e+00,NaN,2,1,1,1
19,983,6,139,22,2,2,1,1.321132e+00,NaN,2,0,3,1
19,984,6,50,11,1,1,1,8.265112e-01,NaN,2,1,2,1
19,985,6,73,6,1,1,1,1.327444e+00,NaN,2,0,2,1
19,986,6,115,57,2,1,0,2.177078e+00,NaN,2,0,3,1
19,987,6,105,54,2,2,1,2.089334e+00,NaN,2,0,3,1
19,988,6,97,56,2,2,1,1.668017e+00,NaN,2,0,3,1
19,989,6,3,66,2,2,1,9.284817e-01,NaN,2,0,1,1
19,990,6,75,5,1,1,1,6.418704e-01,NaN,2,1,2,1
19,991,6,110,27,1,2,0,2.110330e+00,NaN,2,0,3,1
19,992,6,29,4,2,2,1,1.041180e+00,NaN,2,0,1,1
19,993,6,85,7,2,2,1,6.780849e-01,NaN,2,0,2,1
19,994,6,40,13,1,1,1,1.440982e+00,NaN,2,0,1,1
19,995,6,45,72,2,2,1,2.813752e+00,NaN,2,0,1,1
19,996,6,6,23,2,2,1,2.483853e+00,NaN,2,0,1,1
19,997,6,38,43,1,1,1,1.798630e+00,NaN,2,0,1,1
19,998,6,92,15,1,1,1,1.444390e+00,NaN,2,0,2,1
19,999,6,9,34,2,2,1,1.305542e+00,NaN,2,0,1,1
19,1000,6,96,59,1,1,1,8.117663e-01,NaN,2,0,2,1
19,1001,6,136,16,1,1,1,3.442204e+00,NaN,2,1,3,1
19,1002,6,58,49,2,2,1,1.054593e+00,NaN,2,1,2,1
19,1003,6,18,38,1,1,1,2.186803e+00,NaN,2,0,1,1
19,1004,6,109,2,1,1,1,1.385565e+00,NaN,2,0,3,1
19,1005,6,35,35,1,1,1,2.816687e+00,NaN,2,0,1,1
19,1006,6,114,51,2,2,1,1.526716e+00,NaN,2,0,3,1
19,1007,6,52,45,1,1,1,2.679997e+00,NaN,2,0,2,1
19,1008,6,33,30,1,1,1,1.634799e+00,NaN,2,0,1,1
19,1009,6,31,32,1,1,1,1.568088e+00,NaN,2,1,1,1
19,1010,6,100,12,1,1,1,1.680039e+00,NaN,2,0,3,1
19,1011,6,49,10,2,2,1,6.994056e-01,NaN,2,0,2,1
19,1012,6,47,63,1,1,1,1.094049e+00,NaN,2,0,1,1
19,1013,6,126,24,1,1,1,1.361208e+00,NaN,2,0,3,1
19,1014,6,68,70,1,1,1,8.570808e-01,NaN,2,0,2,1
19,1015,6,63,36,1,1,1,8.610085e-01,NaN,2,0,2,1
19,1016,6,78,20,2,2,1,8.173535e-01,NaN,2,0,2,1
19,1017,6,57,29,2,1,0,3.126994e+00,NaN,2,0,2,1
19,1018,6,134,42,2,2,1,1.303928e+00,NaN,2,0,3,1
19,1019,6,4,44,1,2,0,1.930340e+00,NaN,2,0,1,1
19,1020,6,20,65,1,1,1,2.610936e+00,NaN,2,0,1,1
19,1021,6,86,17,2,2,1,9.771746e-01,NaN,2,0,2,1
19,1022,6,13,61,2,2,1,9.447015e-01,NaN,2,0,1,1
19,1023,6,77,64,1,1,1,2.409350e+00,NaN,2,0,2,1
19,1024,6,12,8,2,2,1,1.423283e+00,NaN,2,1,1,1
19,1025,6,132,33,2,2,1,1.332715e+00,NaN,2,0,3,1
19,1026,6,37,68,2,2,1,2.718282e+00,NaN,1,1,1,1
19,1027,6,106,4,1,1,1,1.479874e+00,NaN,1,0,3,1
19,1028,6,27,2,1,2,0,1.075685e+00,NaN,1,0,1,1
19,1029,6,54,14,1,1,1,2.110875e+00,NaN,1,0,2,1
19,1030,6,66,13,2,2,1,9.610976e-01,NaN,1,0,2,1
19,1031,6,102,9,2,1,0,1.889460e+00,NaN,1,0,3,1
19,1032,6,116,15,1,1,1,1.596387e+00,NaN,1,0,3,1
19,1033,6,71,47,2,2,1,9.384505e-01,NaN,1,1,2,1
19,1034,6,7,6,2,1,0,1.899388e+00,NaN,1,0,1,1
19,1035,6,61,37,2,2,1,6.774537e-01,NaN,1,0,2,1
19,1036,6,122,26,1,1,1,1.497153e+00,NaN,1,0,3,1
19,1037,6,70,72,1,1,1,1.307683e+00,NaN,1,0,2,1
19,1038,6,81,40,2,2,1,8.858886e-01,NaN,1,1,2,1
19,1039,6,111,59,2,2,1,1.513316e+00,NaN,1,0,3,1
19,1040,6,5,10,2,2,1,1.794965e+00,NaN,1,0,1,1
19,1041,6,94,3,1,1,1,1.610343e+00,NaN,1,1,2,1
19,1042,6,65,22,2,2,1,1.735877e+00,NaN,1,0,2,1
19,1043,6,76,28,2,2,1,8.414162e-01,NaN,1,1,2,1
19,1044,6,23,5,1,2,0,2.485864e+00,NaN,1,1,1,1
19,1045,6,89,33,2,2,1,7.688698e-01,NaN,1,0,2,1
19,1046,6,128,34,1,1,1,1.792753e+00,NaN,1,0,3,1
19,1047,6,144,21,1,1,1,1.311842e+00,NaN,1,0,3,1
19,1048,6,8,54,2,0,0,3.499554e+00,NaN,1,0,1,1
19,1049,6,101,38,2,2,1,1.124752e+00,NaN,1,0,3,1
19,1050,6,60,30,2,2,1,8.058449e-01,NaN,1,0,2,1
19,1051,6,142,17,1,1,1,8.840929e-01,NaN,1,0,3,1
19,1052,6,22,70,2,2,1,8.954107e-01,NaN,1,0,1,1
19,1053,6,140,50,2,1,0,1.818729e+00,NaN,1,1,3,1
19,1054,6,17,49,1,2,0,1.992116e+00,NaN,1,1,1,1
19,1055,6,41,19,2,1,0,1.591377e+00,NaN,1,0,1,1
19,1056,6,130,31,1,1,1,1.854372e+00,NaN,1,1,3,1
19,1057,6,74,32,2,2,1,7.059747e-01,NaN,1,1,2,1
19,1058,6,118,66,1,1,1,1.692774e+00,NaN,1,0,3,1
19,1059,6,42,29,1,1,1,1.751344e+00,NaN,1,0,1,1
19,1060,6,56,71,2,2,1,7.595629e-01,NaN,1,0,2,1
19,1061,6,48,53,1,2,0,9.996900e-01,NaN,1,1,1,1
19,1062,6,2,52,2,2,1,1.214838e+00,NaN,1,0,1,1
19,1063,6,11,27,1,1,1,1.068162e+00,NaN,1,0,1,1
19,1064,6,16,36,2,2,1,1.008601e+00,NaN,1,0,1,1
19,1065,6,121,44,2,1,0,1.070717e+00,NaN,1,0,3,1
19,1066,6,137,61,2,2,1,1.826496e+00,NaN,1,0,3,1
19,1067,6,62,42,1,2,0,6.396584e-01,NaN,1,0,2,1
19,1068,6,19,12,2,2,1,1.916400e+00,NaN,1,0,1,1
19,1069,6,67,48,1,1,1,1.110330e+00,NaN,1,1,2,1
19,1070,6,69,39,2,2,1,8.325337e-01,NaN,1,1,2,1
19,1071,6,131,7,2,2,1,1.181662e+00,NaN,1,0,3,1
19,1072,6,53,35,2,1,0,1.340919e+00,NaN,1,0,2,1
19,1073,6,55,18,1,1,1,1.853396e+00,NaN,1,1,2,1
19,1074,6,21,11,1,1,1,1.217461e+00,NaN,1,1,1,1
19,1075,6,98,64,2,1,0,2.159729e+00,NaN,1,0,3,1
19,1076,6,138,1,1,1,1,1.023987e+00,NaN,1,0,3,1
19,1077,6,79,16,1,2,0,1.477455e+00,NaN,1,1,2,1
19,1078,6,26,57,2,0,0,3.499819e+00,NaN,1,0,1,1
19,1079,6,93,24,2,2,1,7.632859e-01,NaN,1,0,2,1
19,1080,6,51,43,2,2,1,1.443002e+00,NaN,1,0,2,1
19,1081,6,84,58,1,1,1,7.274910e-01,NaN,1,0,2,1
19,1082,6,80,63,1,1,1,7.777520e-01,NaN,1,0,2,1
19,1083,6,119,62,2,2,1,7.689045e-01,NaN,1,0,3,1
19,1084,6,43,51,1,1,1,1.344685e+00,NaN,1,0,1,1
19,1085,6,99,20,2,2,1,1.625816e+00,NaN,1,0,3,1
19,1086,6,46,56,1,1,1,9.035974e-01,NaN,1,0,1,1
19,1087,6,25,45,2,2,1,1.337496e+00,NaN,1,0,1,1
19,1088,6,24,67,2,2,1,2.042909e+00,NaN,1,0,1,1
19,1089,6,91,60,1,1,1,1.151897e+00,NaN,1,0,2,1
19,1090,6,10,69,1,1,1,9.200571e-01,NaN,1,0,1,1
19,1091,6,28,25,1,1,1,1.306059e+00,NaN,1,0,1,1
19,1092,6,117,8,1,2,0,1.828303e+00,NaN,1,1,3,1
19,1093,6,103,55,2,2,1,9.376944e-01,NaN,1,0,3,1
19,1094,6,125,41,2,1,0,1.131123e+00,NaN,1,1,3,1
19,1095,6,44,46,2,2,1,1.148303e+00,NaN,1,0,1,1
19,1096,6,113,65,2,2,1,1.332971e+00,NaN,1,0,3,1
19,1097,6,108,23,2,2,1,9.424814e-01,NaN,1,0,3,1
