Subject,Trial,Cond,ImageNum,CueNum,Correct,Resp,Accuracy,RT,CueRep,ImageType,Baseline,Category,Block
30,1,1,94,NaN,NaN,1,NaN,9.091104e-01,NaN,1,0,2,1
30,2,1,108,NaN,NaN,1,NaN,8.792060e-01,NaN,2,1,3,1
30,3,1,107,NaN,NaN,1,NaN,1.100408e-01,NaN,2,1,3,1
30,4,1,64,NaN,NaN,1,NaN,1.068085e+00,NaN,1,0,2,1
30,5,1,90,NaN,NaN,1,NaN,9.795837e-01,NaN,2,0,2,1
30,6,1,114,NaN,NaN,1,NaN,1.462518e+00,NaN,0,0,3,1
30,7,1,99,NaN,NaN,2,NaN,2.437743e+00,NaN,0,1,3,1
30,8,1,127,NaN,NaN,1,NaN,7.024441e-01,NaN,0,0,3,1
30,9,1,2,NaN,NaN,1,NaN,7.002476e-01,NaN,2,1,1,1
30,10,1,61,NaN,NaN,1,NaN,8.025692e-01,NaN,0,0,2,1
30,11,1,35,NaN,NaN,2,NaN,4.212665e+00,NaN,0,0,1,1
30,12,1,43,NaN,NaN,1,NaN,9.739589e-01,NaN,2,0,1,1
30,13,1,100,NaN,NaN,1,NaN,4.812275e-01,NaN,1,0,3,1
30,14,1,27,NaN,NaN,1,NaN,4.241860e-01,NaN,0,0,1,1
30,15,1,97,NaN,NaN,1,NaN,2.337484e+00,NaN,0,0,3,1
30,16,1,71,NaN,NaN,1,NaN,5.180203e-01,NaN,0,0,2,1
30,17,1,126,NaN,NaN,1,NaN,1.475065e+00,NaN,1,0,3,1
30,18,1,85,NaN,NaN,1,NaN,7.867300e-01,NaN,1,0,2,1
30,19,1,20,NaN,NaN,1,NaN,1.165104e+00,NaN,2,0,1,1
30,20,1,22,NaN,NaN,2,NaN,1.137400e+00,NaN,0,0,1,1
30,21,1,5,NaN,NaN,1,NaN,5.572981e-01,NaN,1,0,1,1
30,22,1,5,NaN,NaN,1,NaN,4.889861e-01,NaN,0,0,1,1
30,23,1,14,NaN,NaN,1,NaN,3.516632e-01,NaN,1,0,1,1
30,24,1,8,NaN,NaN,1,NaN,4.843452e-01,NaN,0,0,1,1
30,25,1,52,NaN,NaN,1,NaN,4.911587e-01,NaN,2,0,2,1
30,26,1,109,NaN,NaN,1,NaN,7.617082e-01,NaN,1,0,3,1
30,27,1,83,NaN,NaN,1,NaN,4.213607e-01,NaN,2,0,2,1
30,28,1,104,NaN,NaN,1,NaN,2.358158e+00,NaN,2,0,3,1
30,29,1,96,NaN,NaN,1,NaN,1.097890e+00,NaN,1,0,2,1
30,30,1,121,NaN,NaN,1,NaN,7.992228e+00,NaN,2,0,3,1
30,31,1,72,NaN,NaN,1,NaN,5.866897e-01,NaN,0,0,2,1
30,32,1,36,NaN,NaN,2,NaN,1.389262e+00,NaN,1,0,1,1
30,33,1,125,NaN,NaN,1,NaN,5.998180e-01,NaN,0,0,3,1
30,34,1,74,NaN,NaN,1,NaN,5.700446e-01,NaN,2,1,2,1
30,35,1,131,NaN,NaN,1,NaN,1.573055e+00,NaN,1,1,3,1
30,36,1,86,NaN,NaN,2,NaN,5.367792e+00,NaN,2,0,2,1
30,37,1,115,NaN,NaN,2,NaN,7.018720e+00,NaN,0,0,3,1
30,38,1,137,NaN,NaN,1,NaN,1.436296e+00,NaN,2,0,3,1
30,39,1,76,NaN,NaN,1,NaN,7.008746e-01,NaN,0,0,2,1
30,40,1,28,NaN,NaN,2,NaN,2.971009e+00,NaN,1,1,1,1
30,41,1,131,NaN,NaN,1,NaN,1.206323e+00,NaN,0,1,3,1
30,42,1,56,NaN,NaN,1,NaN,8.292212e-03,NaN,0,0,2,1
30,43,1,92,NaN,NaN,1,NaN,4.338558e-01,NaN,1,1,2,1
30,44,1,15,NaN,NaN,1,NaN,3.162941e+00,NaN,1,1,1,1
30,45,1,15,NaN,NaN,1,NaN,2.238072e+00,NaN,0,1,1,1
30,46,1,37,NaN,NaN,1,NaN,1.462668e+00,NaN,2,0,1,1
30,47,1,11,NaN,NaN,1,NaN,5.980598e-01,NaN,2,1,1,1
30,48,1,65,NaN,NaN,1,NaN,5.766082e-01,NaN,2,0,2,1
30,49,1,40,NaN,NaN,1,NaN,4.595160e-01,NaN,2,0,1,1
30,50,1,57,NaN,NaN,1,NaN,1.264727e-04,NaN,0,0,2,1
30,51,1,13,NaN,NaN,1,NaN,1.293682e+00,NaN,2,0,1,1
30,52,1,127,NaN,NaN,1,NaN,5.404436e-01,NaN,2,0,3,1
30,53,1,137,NaN,NaN,1,NaN,3.208533e-01,NaN,0,0,3,1
30,54,1,98,NaN,NaN,1,NaN,4.464127e-01,NaN,2,0,3,1
30,55,1,134,NaN,NaN,1,NaN,9.745318e-01,NaN,2,0,3,1
30,56,1,49,NaN,NaN,1,NaN,4.100549e-01,NaN,0,0,2,1
30,57,1,114,NaN,NaN,1,NaN,1.027739e+00,NaN,2,0,3,1
30,58,1,20,NaN,NaN,1,NaN,4.131065e-01,NaN,0,0,1,1
30,59,1,56,NaN,NaN,1,NaN,4.785888e-01,NaN,1,0,2,1
30,60,1,80,NaN,NaN,1,NaN,1.195297e-04,NaN,2,0,2,1
30,61,1,10,NaN,NaN,1,NaN,1.642928e-02,NaN,1,0,1,1
30,62,1,1,NaN,NaN,1,NaN,2.416740e-01,NaN,0,0,1,1
30,63,1,103,NaN,NaN,1,NaN,3.058237e+00,NaN,0,0,3,1
30,64,1,9,NaN,NaN,1,NaN,6.977490e-01,NaN,1,0,1,1
30,65,1,51,NaN,NaN,1,NaN,6.641452e-01,NaN,0,0,2,1
30,66,1,87,NaN,NaN,1,NaN,1.183774e+00,NaN,1,0,2,1
30,67,1,144,NaN,NaN,1,NaN,1.778531e+00,NaN,2,0,3,1
30,68,1,33,NaN,NaN,1,NaN,1.253348e+00,NaN,0,0,1,1
30,69,1,48,NaN,NaN,1,NaN,5.414617e-01,NaN,1,0,1,1
30,70,1,120,NaN,NaN,1,NaN,1.473783e+00,NaN,0,0,3,1
30,71,1,13,NaN,NaN,1,NaN,5.452359e-01,NaN,0,0,1,1
30,72,1,8,NaN,NaN,1,NaN,4.298799e-01,NaN,1,0,1,1
30,73,1,128,NaN,NaN,2,NaN,7.717917e+00,NaN,1,1,3,1
30,74,1,120,NaN,NaN,1,NaN,6.352872e-01,NaN,2,0,3,1
30,75,1,91,NaN,NaN,0,NaN,9.995280e+00,NaN,1,0,2,1
30,76,1,34,NaN,NaN,1,NaN,1.061190e+00,NaN,2,0,1,1
30,77,1,141,NaN,NaN,1,NaN,7.167904e-01,NaN,0,0,3,1
30,78,1,40,NaN,NaN,1,NaN,4.458270e+00,NaN,0,0,1,1
30,79,1,139,NaN,NaN,1,NaN,8.819114e-01,NaN,0,0,3,1
30,80,1,44,NaN,NaN,1,NaN,5.289681e-01,NaN,0,0,1,1
30,81,1,58,NaN,NaN,1,NaN,6.138139e-01,NaN,0,0,2,1
30,82,1,79,NaN,NaN,1,NaN,7.592711e-01,NaN,2,1,2,1
30,83,1,105,NaN,NaN,1,NaN,6.915177e-01,NaN,2,0,3,1
30,84,1,140,NaN,NaN,1,NaN,8.502762e-01,NaN,1,1,3,1
30,85,1,93,NaN,NaN,1,NaN,5.941368e-01,NaN,0,1,2,1
30,86,1,123,NaN,NaN,1,NaN,9.567315e-01,NaN,0,0,3,1
30,87,1,14,NaN,NaN,1,NaN,6.488137e-01,NaN,0,0,1,1
30,88,1,92,NaN,NaN,1,NaN,1.057014e+00,NaN,0,1,2,1
30,89,1,69,NaN,NaN,1,NaN,1.136894e+00,NaN,0,0,2,1
30,90,1,132,NaN,NaN,1,NaN,9.254622e-01,NaN,0,0,3,1
30,91,1,135,NaN,NaN,1,NaN,1.106939e+00,NaN,0,0,3,1
30,92,1,88,NaN,NaN,1,NaN,9.687970e-01,NaN,1,0,2,1
30,93,1,60,NaN,NaN,1,NaN,1.051977e+00,NaN,0,0,2,1
30,94,1,122,NaN,NaN,1,NaN,7.163799e-01,NaN,0,1,3,1
30,95,1,18,NaN,NaN,1,NaN,8.098399e-01,NaN,1,0,1,1
30,96,1,12,NaN,NaN,1,NaN,8.356650e-01,NaN,1,0,1,1
30,97,1,68,NaN,NaN,1,NaN,7.727960e-01,NaN,0,0,2,1
30,98,1,144,NaN,NaN,1,NaN,5.042605e-01,NaN,0,0,3,1
30,99,1,81,NaN,NaN,1,NaN,4.378763e-01,NaN,0,0,2,1
30,100,1,69,NaN,NaN,1,NaN,6.307982e-01,NaN,1,0,2,1
30,101,1,117,NaN,NaN,1,NaN,1.663413e+00,NaN,0,0,3,1
30,102,1,49,NaN,NaN,1,NaN,5.192132e-01,NaN,1,0,2,1
30,103,1,67,NaN,NaN,1,NaN,3.245520e-01,NaN,1,0,2,1
30,104,1,68,NaN,NaN,1,NaN,2.899965e-01,NaN,1,0,2,1
30,105,1,94,NaN,NaN,1,NaN,1.206083e-01,NaN,0,0,2,1
30,106,1,38,NaN,NaN,1,NaN,1.374038e+00,NaN,1,0,1,1
30,107,1,123,NaN,NaN,1,NaN,9.372259e-01,NaN,2,0,3,1
30,108,1,23,NaN,NaN,1,NaN,7.017016e-01,NaN,0,0,1,1
30,109,1,91,NaN,NaN,0,NaN,9.995020e+00,NaN,0,0,2,1
30,110,1,53,NaN,NaN,1,NaN,7.090107e-01,NaN,2,1,2,1
30,111,1,60,NaN,NaN,1,NaN,5.628919e-01,NaN,2,0,2,1
30,112,1,47,NaN,NaN,1,NaN,4.642881e-01,NaN,0,1,1,1
30,113,1,46,NaN,NaN,2,NaN,2.294142e+00,NaN,2,0,1,1
30,114,1,31,NaN,NaN,1,NaN,4.848714e-01,NaN,0,0,1,1
30,115,1,63,NaN,NaN,1,NaN,4.200036e-01,NaN,1,0,2,1
30,116,1,118,NaN,NaN,1,NaN,6.450026e-01,NaN,0,0,3,1
30,117,1,140,NaN,NaN,1,NaN,8.131258e-01,NaN,0,1,3,1
30,118,1,129,NaN,NaN,1,NaN,1.414604e+00,NaN,0,0,3,1
30,119,1,17,NaN,NaN,1,NaN,5.209291e-01,NaN,0,0,1,1
30,120,1,62,NaN,NaN,1,NaN,7.818884e-01,NaN,0,1,2,1
30,121,1,30,NaN,NaN,2,NaN,9.687563e-01,NaN,0,1,1,1
30,122,1,41,NaN,NaN,1,NaN,4.203830e-01,NaN,0,1,1,1
30,123,1,105,NaN,NaN,1,NaN,5.092729e-01,NaN,0,0,3,1
30,124,1,6,NaN,NaN,1,NaN,3.071741e-01,NaN,2,0,1,1
30,125,1,41,NaN,NaN,1,NaN,5.930722e-01,NaN,2,1,1,1
30,126,1,39,NaN,NaN,2,NaN,2.395690e+00,NaN,0,1,1,1
30,127,1,64,NaN,NaN,1,NaN,4.860184e-01,NaN,0,0,2,1
30,128,1,133,NaN,NaN,2,NaN,8.048188e-01,NaN,2,0,3,1
30,129,1,44,NaN,NaN,1,NaN,4.067935e-01,NaN,1,0,1,1
30,130,1,50,NaN,NaN,1,NaN,1.632492e+00,NaN,0,0,2,1
30,131,1,54,NaN,NaN,1,NaN,1.698806e+00,NaN,0,0,2,1
30,132,1,29,NaN,NaN,1,NaN,1.116473e-01,NaN,0,0,1,1
30,133,1,98,NaN,NaN,1,NaN,5.811853e-01,NaN,0,0,3,1
30,134,1,53,NaN,NaN,1,NaN,1.648480e+00,NaN,0,1,2,1
30,135,1,39,NaN,NaN,2,NaN,1.344191e+00,NaN,2,1,1,1
30,136,1,134,NaN,NaN,1,NaN,5.729224e-01,NaN,0,0,3,1
30,137,1,110,NaN,NaN,1,NaN,3.919435e-01,NaN,0,1,3,1
30,138,1,118,NaN,NaN,1,NaN,1.026537e+00,NaN,2,0,3,1
30,139,1,125,NaN,NaN,1,NaN,4.518341e-01,NaN,1,0,3,1
30,140,1,139,NaN,NaN,1,NaN,3.639766e-01,NaN,1,0,3,1
30,141,1,122,NaN,NaN,2,NaN,2.263667e+00,NaN,1,1,3,1
30,142,1,31,NaN,NaN,1,NaN,3.352357e-01,NaN,1,0,1,1
30,143,1,107,NaN,NaN,1,NaN,6.758521e-01,NaN,0,1,3,1
30,144,1,57,NaN,NaN,1,NaN,5.474351e-01,NaN,2,0,2,1
30,145,1,55,NaN,NaN,1,NaN,8.953111e-01,NaN,2,0,2,1
30,146,1,19,NaN,NaN,1,NaN,7.892649e-01,NaN,0,0,1,1
30,147,1,30,NaN,NaN,2,NaN,2.647991e+00,NaN,2,1,1,1
30,148,1,42,NaN,NaN,1,NaN,1.096108e+00,NaN,1,1,1,1
30,149,1,27,NaN,NaN,1,NaN,2.126333e+00,NaN,1,0,1,1
30,150,1,22,NaN,NaN,1,NaN,6.831271e-01,NaN,2,0,1,1
30,151,1,3,NaN,NaN,2,NaN,1.194586e+00,NaN,0,0,1,1
30,152,1,78,NaN,NaN,1,NaN,4.608257e-01,NaN,0,0,2,1
30,153,1,16,NaN,NaN,1,NaN,8.368983e-01,NaN,0,0,1,1
30,154,1,28,NaN,NaN,2,NaN,1.597346e+00,NaN,0,1,1,1
30,155,1,59,NaN,NaN,1,NaN,4.638163e-01,NaN,0,1,2,1
30,156,1,66,NaN,NaN,1,NaN,6.392058e-01,NaN,1,1,2,1
30,157,1,76,NaN,NaN,1,NaN,5.839737e-01,NaN,2,0,2,1
30,158,1,88,NaN,NaN,1,NaN,8.587429e-01,NaN,0,0,2,1
30,159,1,78,NaN,NaN,1,NaN,1.081833e-02,NaN,1,0,2,1
30,160,1,29,NaN,NaN,1,NaN,8.446707e-01,NaN,1,0,1,1
30,161,1,32,NaN,NaN,1,NaN,3.340955e+00,NaN,0,0,1,1
30,162,1,113,NaN,NaN,1,NaN,6.577422e-01,NaN,0,0,3,1
30,163,1,96,NaN,NaN,1,NaN,6.093880e-01,NaN,0,0,2,1
30,164,1,108,NaN,NaN,1,NaN,5.952669e-01,NaN,0,1,3,1
30,165,1,66,NaN,NaN,1,NaN,4.858717e-01,NaN,0,1,2,1
30,166,1,110,NaN,NaN,1,NaN,3.806914e-01,NaN,1,1,3,1
30,167,1,10,NaN,NaN,1,NaN,5.997390e-01,NaN,0,0,1,1
30,168,1,111,NaN,NaN,1,NaN,5.294828e-01,NaN,0,1,3,1
30,169,1,26,NaN,NaN,1,NaN,7.347856e-01,NaN,0,1,1,1
30,170,1,136,NaN,NaN,1,NaN,3.531255e+00,NaN,1,1,3,1
30,171,1,70,NaN,NaN,1,NaN,4.719362e-01,NaN,2,0,2,1
30,172,1,84,NaN,NaN,1,NaN,5.675424e-01,NaN,1,1,2,1
30,173,1,129,NaN,NaN,1,NaN,3.788311e-01,NaN,1,0,3,1
30,174,1,116,NaN,NaN,1,NaN,3.743536e-01,NaN,0,0,3,1
30,175,1,113,NaN,NaN,1,NaN,6.811627e-01,NaN,1,0,3,1
30,176,1,124,NaN,NaN,1,NaN,8.483239e-01,NaN,0,0,3,1
30,177,1,73,NaN,NaN,1,NaN,6.483069e-01,NaN,0,1,2,1
30,178,1,21,NaN,NaN,1,NaN,4.970990e-01,NaN,0,1,1,1
30,179,1,77,NaN,NaN,1,NaN,4.550581e-01,NaN,0,0,2,1
30,180,1,109,NaN,NaN,1,NaN,1.590882e+00,NaN,0,0,3,1
30,181,1,102,NaN,NaN,1,NaN,9.698384e-01,NaN,2,0,3,1
30,182,1,4,NaN,NaN,1,NaN,3.407220e-01,NaN,1,0,1,1
30,183,1,87,NaN,NaN,1,NaN,5.535601e-01,NaN,0,0,2,1
30,184,1,65,NaN,NaN,1,NaN,3.732250e-01,NaN,0,0,2,1
30,185,1,143,NaN,NaN,1,NaN,6.312205e+00,NaN,0,1,3,1
30,186,1,19,NaN,NaN,1,NaN,1.829515e+00,NaN,2,0,1,1
30,187,1,51,NaN,NaN,1,NaN,3.184002e-01,NaN,2,0,2,1
30,188,1,2,NaN,NaN,1,NaN,6.198610e-01,NaN,0,1,1,1
30,189,1,62,NaN,NaN,1,NaN,4.053438e-01,NaN,2,1,2,1
30,190,1,101,NaN,NaN,1,NaN,7.110599e-01,NaN,2,0,3,1
30,191,1,75,NaN,NaN,1,NaN,1.956842e+00,NaN,1,1,2,1
30,192,1,106,NaN,NaN,1,NaN,5.442238e-01,NaN,2,0,3,1
30,193,1,71,NaN,NaN,1,NaN,4.703950e-01,NaN,2,0,2,1
30,194,1,17,NaN,NaN,1,NaN,3.245369e-01,NaN,1,0,1,1
30,195,1,4,NaN,NaN,1,NaN,3.854816e-01,NaN,0,0,1,1
30,196,1,48,NaN,NaN,1,NaN,2.848737e-01,NaN,0,0,1,1
30,197,1,23,NaN,NaN,1,NaN,4.354423e-01,NaN,1,0,1,1
30,198,1,26,NaN,NaN,1,NaN,1.036609e+00,NaN,2,1,1,1
30,199,1,58,NaN,NaN,1,NaN,4.771113e-01,NaN,2,0,2,1
30,200,1,128,NaN,NaN,1,NaN,1.244417e+00,NaN,0,1,3,1
30,201,1,141,NaN,NaN,1,NaN,6.613024e-01,NaN,2,0,3,1
30,202,1,135,NaN,NaN,1,NaN,1.255665e-04,NaN,1,0,3,1
30,203,1,37,NaN,NaN,1,NaN,1.231079e+00,NaN,0,0,1,1
30,204,1,89,NaN,NaN,1,NaN,8.241820e-01,NaN,0,0,2,1
30,205,1,99,NaN,NaN,2,NaN,3.490171e+00,NaN,2,1,3,1
30,206,1,16,NaN,NaN,1,NaN,3.116709e-01,NaN,2,0,1,1
30,207,1,67,NaN,NaN,1,NaN,3.412131e-01,NaN,0,0,2,1
30,208,1,124,NaN,NaN,1,NaN,3.699624e-01,NaN,1,0,3,1
30,209,1,24,NaN,NaN,1,NaN,1.933317e+00,NaN,0,0,1,1
30,210,1,42,NaN,NaN,1,NaN,1.034030e+00,NaN,0,1,1,1
30,211,1,54,NaN,NaN,1,NaN,6.508010e-01,NaN,2,0,2,1
30,212,1,73,NaN,NaN,1,NaN,7.390806e-01,NaN,1,1,2,1
30,213,1,97,NaN,NaN,1,NaN,3.677780e-01,NaN,1,0,3,1
30,214,1,95,NaN,NaN,1,NaN,4.753422e-01,NaN,0,0,2,1
30,215,1,112,NaN,NaN,1,NaN,4.267522e-01,NaN,2,0,3,1
30,216,1,33,NaN,NaN,1,NaN,1.203755e+00,NaN,1,0,1,1
30,217,1,95,NaN,NaN,1,NaN,1.053743e+00,NaN,1,0,2,1
30,218,1,100,NaN,NaN,1,NaN,7.337766e-01,NaN,0,0,3,1
30,219,1,82,NaN,NaN,1,NaN,5.062629e-01,NaN,1,0,2,1
30,220,1,11,NaN,NaN,1,NaN,4.085222e-01,NaN,0,1,1,1
30,221,1,126,NaN,NaN,1,NaN,8.184545e-01,NaN,0,0,3,1
30,222,1,45,NaN,NaN,2,NaN,1.388036e+00,NaN,2,0,1,1
30,223,1,103,NaN,NaN,1,NaN,5.425100e-01,NaN,1,0,3,1
30,224,1,104,NaN,NaN,1,NaN,7.554066e-01,NaN,0,0,3,1
30,225,1,102,NaN,NaN,1,NaN,5.512809e-01,NaN,0,0,3,1
30,226,1,59,NaN,NaN,1,NaN,4.432663e-01,NaN,2,1,2,1
30,227,1,25,NaN,NaN,1,NaN,8.280211e-01,NaN,0,1,1,1
30,228,1,55,NaN,NaN,1,NaN,7.652992e-01,NaN,0,0,2,1
30,229,1,74,NaN,NaN,1,NaN,7.608715e-01,NaN,0,1,2,1
30,230,1,47,NaN,NaN,1,NaN,1.268412e+00,NaN,2,1,1,1
30,231,1,80,NaN,NaN,1,NaN,1.715853e+00,NaN,0,0,2,1
30,232,1,121,NaN,NaN,2,NaN,4.241742e+00,NaN,0,0,3,1
30,233,1,90,NaN,NaN,1,NaN,3.537963e-01,NaN,0,0,2,1
30,234,1,43,NaN,NaN,1,NaN,5.740724e-01,NaN,0,0,1,1
30,235,1,1,NaN,NaN,1,NaN,5.530011e-01,NaN,1,0,1,1
30,236,1,70,NaN,NaN,1,NaN,7.006669e-01,NaN,0,0,2,1
30,237,1,84,NaN,NaN,1,NaN,3.393284e-01,NaN,0,1,2,1
30,238,1,119,NaN,NaN,1,NaN,6.395809e-01,NaN,2,1,3,1
30,239,1,83,NaN,NaN,1,NaN,5.764334e-01,NaN,0,0,2,1
30,240,1,112,NaN,NaN,1,NaN,3.635111e-01,NaN,0,0,3,1
30,241,1,50,NaN,NaN,1,NaN,7.273012e-01,NaN,1,0,2,1
30,242,1,132,NaN,NaN,1,NaN,9.161295e-01,NaN,1,0,3,1
30,243,1,138,NaN,NaN,1,NaN,4.581402e-01,NaN,0,0,3,1
30,244,1,79,NaN,NaN,1,NaN,6.740535e-01,NaN,0,1,2,1
30,245,1,9,NaN,NaN,1,NaN,5.692206e-01,NaN,0,0,1,1
30,246,1,89,NaN,NaN,1,NaN,5.644551e-01,NaN,2,0,2,1
30,247,1,82,NaN,NaN,1,NaN,4.323677e-01,NaN,0,0,2,1
30,248,1,45,NaN,NaN,2,NaN,1.649392e+00,NaN,0,0,1,1
30,249,1,81,NaN,NaN,1,NaN,4.495887e-01,NaN,2,0,2,1
30,250,1,119,NaN,NaN,1,NaN,4.817624e-01,NaN,0,1,3,1
30,251,1,63,NaN,NaN,1,NaN,1.256727e+00,NaN,0,0,2,1
30,252,1,130,NaN,NaN,2,NaN,8.160097e+00,NaN,1,0,3,1
30,253,1,7,NaN,NaN,1,NaN,5.398474e-01,NaN,0,0,1,1
30,254,1,142,NaN,NaN,1,NaN,3.071833e+00,NaN,0,1,3,1
30,255,1,133,NaN,NaN,1,NaN,2.102823e+00,NaN,0,0,3,1
30,256,1,6,NaN,NaN,1,NaN,3.810467e-01,NaN,0,0,1,1
30,257,1,21,NaN,NaN,1,NaN,3.683958e-01,NaN,1,1,1,1
30,258,1,106,NaN,NaN,1,NaN,1.619644e+00,NaN,0,0,3,1
30,259,1,72,NaN,NaN,1,NaN,2.529487e-01,NaN,1,0,2,1
30,260,1,130,NaN,NaN,2,NaN,1.837112e+00,NaN,0,0,3,1
30,261,1,3,NaN,NaN,2,NaN,1.293864e+00,NaN,2,0,1,1
30,262,1,117,NaN,NaN,1,NaN,3.565075e-01,NaN,2,0,3,1
30,263,1,24,NaN,NaN,1,NaN,4.000117e-01,NaN,2,0,1,1
30,264,1,101,NaN,NaN,1,NaN,7.543468e-01,NaN,0,0,3,1
30,265,1,61,NaN,NaN,1,NaN,4.700693e-01,NaN,2,0,2,1
30,266,1,142,NaN,NaN,1,NaN,6.698995e-01,NaN,2,1,3,1
30,267,1,46,NaN,NaN,2,NaN,3.731281e-01,NaN,0,0,1,1
30,268,1,75,NaN,NaN,1,NaN,3.921554e-01,NaN,0,1,2,1
30,269,1,18,NaN,NaN,1,NaN,4.138388e+00,NaN,0,0,1,1
30,270,1,85,NaN,NaN,1,NaN,2.782864e+00,NaN,0,0,2,1
30,271,1,52,NaN,NaN,1,NaN,1.769797e+00,NaN,0,0,2,1
30,272,1,77,NaN,NaN,1,NaN,1.532775e+00,NaN,2,0,2,1
30,273,1,34,NaN,NaN,1,NaN,8.979495e-01,NaN,0,0,1,1
30,274,1,93,NaN,NaN,1,NaN,1.252647e-04,NaN,1,1,2,1
30,275,1,36,NaN,NaN,1,NaN,9.301818e-01,NaN,0,0,1,1
30,276,1,143,NaN,NaN,1,NaN,6.394053e-01,NaN,1,1,3,1
30,277,1,35,NaN,NaN,1,NaN,1.864000e+00,NaN,2,0,1,1
30,278,1,38,NaN,NaN,1,NaN,3.593578e-01,NaN,0,0,1,1
30,279,1,25,NaN,NaN,1,NaN,6.274375e-01,NaN,2,1,1,1
30,280,1,86,NaN,NaN,1,NaN,4.847527e-01,NaN,0,0,2,1
30,281,1,136,NaN,NaN,1,NaN,8.758510e-01,NaN,0,1,3,1
30,282,1,7,NaN,NaN,1,NaN,4.359011e-01,NaN,2,0,1,1
30,283,1,116,NaN,NaN,1,NaN,6.196473e-01,NaN,1,0,3,1
30,284,1,111,NaN,NaN,1,NaN,3.330969e-01,NaN,1,1,3,1
30,285,1,115,NaN,NaN,1,NaN,4.099493e-01,NaN,1,0,3,1
30,286,1,32,NaN,NaN,1,NaN,7.962087e-01,NaN,1,0,1,1
30,287,1,12,NaN,NaN,1,NaN,2.622738e-01,NaN,0,0,1,1
30,288,1,138,NaN,NaN,1,NaN,6.700574e-01,NaN,1,0,3,1
30,338,2,32,7,2,0,0,3.499996e+00,NaN,1,0,1,1
30,339,2,82,26,2,2,1,1.138664e+00,NaN,1,0,2,1
30,340,2,132,19,2,2,1,1.250682e+00,NaN,1,0,3,1
30,341,2,48,8,2,2,1,1.069725e+00,NaN,1,0,1,1
30,342,2,75,68,2,2,1,1.040779e+00,NaN,1,1,2,1
30,343,2,94,64,1,1,1,9.248856e-01,NaN,1,0,2,1
30,344,2,139,57,2,2,1,1.565749e+00,NaN,1,0,3,1
30,345,2,69,67,1,1,1,1.380492e+00,NaN,1,0,2,1
30,346,2,15,44,2,2,1,2.642489e+00,NaN,1,1,1,1
30,347,2,4,40,2,1,0,3.061519e+00,NaN,1,0,1,1
30,348,2,49,39,2,2,1,1.248241e+00,NaN,1,0,2,1
30,349,2,12,17,2,2,1,2.059676e+00,NaN,1,0,1,1
30,350,2,143,14,2,2,1,1.158783e+00,NaN,1,1,3,1
30,351,2,138,20,1,1,1,9.588372e-01,NaN,1,0,3,1
30,352,2,56,50,1,1,1,7.094254e-01,NaN,1,0,2,1
30,353,2,8,48,1,1,1,1.366947e+00,NaN,1,0,1,1
30,354,2,64,31,2,2,1,7.735555e-01,NaN,1,0,2,1
30,355,2,29,51,2,2,1,1.372492e+00,NaN,1,0,1,1
30,356,2,36,24,2,2,1,8.826108e-01,NaN,1,0,1,1
30,357,2,66,53,1,1,1,1.477090e+00,NaN,1,1,2,1
30,358,2,87,42,1,1,1,2.087230e+00,NaN,1,0,2,1
30,359,2,33,55,2,2,1,2.536766e+00,NaN,1,0,1,1
30,360,2,67,45,1,1,1,1.832685e+00,NaN,1,0,2,1
30,361,2,68,3,2,2,1,1.140339e+00,NaN,1,0,2,1
30,362,3,87,42,1,1,1,1.723781e+00,NaN,1,0,2,1
30,363,3,67,45,1,1,1,8.766280e-01,NaN,1,0,2,1
30,364,3,68,3,2,2,1,5.428598e-01,NaN,1,0,2,1
30,365,3,49,39,2,2,1,9.987781e-01,NaN,1,0,2,1
30,366,3,48,8,2,2,1,1.587849e+00,NaN,1,0,1,1
30,367,3,15,44,2,2,1,2.113765e+00,NaN,1,1,1,1
30,368,3,56,50,2,2,1,9.066160e-01,NaN,1,0,2,1
30,369,3,94,64,1,1,1,8.277338e-01,NaN,1,0,2,1
30,370,3,132,19,1,1,1,2.280524e+00,NaN,1,0,3,1
30,371,3,75,68,2,2,1,1.386488e+00,NaN,1,1,2,1
30,372,3,32,7,2,2,1,1.848554e+00,NaN,1,0,1,1
30,373,3,29,51,2,2,1,1.179597e+00,NaN,1,0,1,1
30,374,3,36,24,2,2,1,9.461311e-01,NaN,1,0,1,1
30,375,3,139,57,1,1,1,2.137781e+00,NaN,1,0,3,1
30,376,3,138,20,2,2,1,8.417954e-01,NaN,1,0,3,1
30,377,3,82,26,2,2,1,8.373649e-01,NaN,1,0,2,1
30,378,3,64,31,2,2,1,7.688555e-01,NaN,1,0,2,1
30,379,3,4,40,1,2,0,2.719516e+00,NaN,1,0,1,1
30,380,3,69,67,2,2,1,1.272405e+00,NaN,1,0,2,1
30,381,3,8,48,2,2,1,1.338718e+00,NaN,1,0,1,1
30,382,3,66,53,2,2,1,7.704556e-01,NaN,1,1,2,1
30,383,3,143,14,1,1,1,1.017013e+00,NaN,1,1,3,1
30,384,3,33,55,1,1,1,2.094079e+00,NaN,1,0,1,1
30,385,3,12,17,1,1,1,2.431982e+00,NaN,1,0,1,1
30,410,2,50,59,2,2,1,8.754257e-01,NaN,1,0,2,2
30,411,2,63,13,2,1,0,9.658372e-01,NaN,1,0,2,2
30,412,2,128,11,1,1,1,1.116943e+00,NaN,1,1,3,2
30,413,2,115,4,2,2,1,1.150053e+00,NaN,1,0,3,2
30,414,2,124,52,1,1,1,7.174336e-01,NaN,1,0,3,2
30,415,2,9,46,2,2,1,9.982572e-01,NaN,1,0,1,2
30,416,2,126,36,1,1,1,1.419597e+00,NaN,1,0,3,2
30,417,2,125,27,1,1,1,1.512762e+00,NaN,1,0,3,2
30,418,2,14,72,1,1,1,1.074097e+00,NaN,1,0,1,2
30,419,2,5,35,2,2,1,9.082366e-01,NaN,1,0,1,2
30,420,2,31,23,2,2,1,8.614752e-01,NaN,1,0,1,2
30,421,2,18,70,2,2,1,1.208858e+00,NaN,1,0,1,2
30,422,2,96,12,1,1,1,6.935842e-01,NaN,1,0,2,2
30,423,2,85,25,2,2,1,6.395870e-01,NaN,1,0,2,2
30,424,2,111,16,1,1,1,1.115822e+00,NaN,1,1,3,2
30,425,2,113,69,1,1,1,1.100973e+00,NaN,1,0,3,2
30,426,2,91,60,2,2,1,7.907922e-01,NaN,1,0,2,2
30,427,2,78,9,2,2,1,9.162478e-01,NaN,1,0,2,2
30,428,2,84,62,2,1,0,8.371983e-01,NaN,1,1,2,2
30,429,2,130,41,2,2,1,1.017552e+00,NaN,1,0,3,2
30,430,2,97,66,2,2,1,1.750864e+00,NaN,1,0,3,2
30,431,2,42,58,1,0,0,3.499788e+00,NaN,1,1,1,2
30,432,2,109,37,2,2,1,1.966972e+00,NaN,1,0,3,2
30,433,2,21,63,2,2,1,9.421082e-01,NaN,1,1,1,2
30,434,3,78,9,1,1,1,7.376927e-01,NaN,1,0,2,2
30,435,3,91,60,2,2,1,9.459068e-01,NaN,1,0,2,2
30,436,3,115,4,2,1,0,1.753174e+00,NaN,1,0,3,2
30,437,3,18,70,2,2,1,9.446992e-01,NaN,1,0,1,2
30,438,3,5,35,1,1,1,8.087334e-01,NaN,1,0,1,2
30,439,3,97,66,2,2,1,9.416098e-01,NaN,1,0,3,2
30,440,3,14,72,1,1,1,1.206162e+00,NaN,1,0,1,2
30,441,3,31,23,1,1,1,1.259526e+00,NaN,1,0,1,2
30,442,3,126,36,2,2,1,1.486804e+00,NaN,1,0,3,2
30,443,3,50,59,2,2,1,1.008523e+00,NaN,1,0,2,2
30,444,3,9,46,2,2,1,1.317782e+00,NaN,1,0,1,2
30,445,3,130,41,1,1,1,1.374562e+00,NaN,1,0,3,2
30,446,3,128,11,2,2,1,1.173283e+00,NaN,1,1,3,2
30,447,3,109,37,1,1,1,1.107429e+00,NaN,1,0,3,2
30,448,3,113,69,1,1,1,9.092424e-01,NaN,1,0,3,2
30,449,3,124,52,1,1,1,1.006454e+00,NaN,1,0,3,2
30,450,3,63,13,1,1,1,1.091422e+00,NaN,1,0,2,2
30,451,3,21,63,1,1,1,6.696357e-01,NaN,1,1,1,2
30,452,3,96,12,2,2,1,6.640103e-01,NaN,1,0,2,2
30,453,3,111,16,2,2,1,1.315521e+00,NaN,1,1,3,2
30,454,3,125,27,2,2,1,1.083833e+00,NaN,1,0,3,2
30,455,3,85,25,1,1,1,5.824096e-01,NaN,1,0,2,2
30,456,3,84,62,2,2,1,1.652640e+00,NaN,1,1,2,2
30,457,3,42,58,1,2,0,1.535993e+00,NaN,1,1,1,2
30,482,2,88,6,2,2,1,1.064400e+00,NaN,1,0,2,3
30,483,2,27,65,2,1,0,1.211370e+00,NaN,1,0,1,3
30,484,2,103,33,2,2,1,9.766163e-01,NaN,1,0,3,3
30,485,2,129,38,1,1,1,1.695224e+00,NaN,1,0,3,3
30,486,2,122,10,1,1,1,1.736882e+00,NaN,1,1,3,3
30,487,2,131,56,2,1,0,1.192533e+00,NaN,1,1,3,3
30,488,2,95,22,2,1,0,1.286288e+00,NaN,1,0,2,3
30,489,2,140,18,1,2,0,1.080327e+00,NaN,1,1,3,3
30,490,2,28,43,2,1,0,1.074046e+00,NaN,1,1,1,3
30,491,2,110,1,1,2,0,1.013117e+00,NaN,1,1,3,3
30,492,2,135,28,2,2,1,1.058446e+00,NaN,1,0,3,3
30,493,2,92,29,2,2,1,8.535063e-01,NaN,1,1,2,3
30,494,2,1,34,1,2,0,1.528910e+00,NaN,1,0,1,3
30,495,2,73,5,1,2,0,1.496640e+00,NaN,1,1,2,3
30,496,2,100,49,2,2,1,1.474335e+00,NaN,1,0,3,3
30,497,2,38,71,2,1,0,1.852863e+00,NaN,1,0,1,3
30,498,2,93,54,1,2,0,1.376003e+00,NaN,1,1,2,3
30,499,2,10,2,1,2,0,1.742635e+00,NaN,1,0,1,3
30,500,2,136,32,2,1,0,2.014354e+00,NaN,1,1,3,3
30,501,2,44,47,1,1,1,1.570946e+00,NaN,1,0,1,3
30,502,2,23,61,1,2,0,2.385858e+00,NaN,1,0,1,3
30,503,2,72,21,2,2,1,1.151807e+00,NaN,1,0,2,3
30,504,2,17,30,2,1,0,1.559036e+00,NaN,1,0,1,3
30,505,2,116,15,2,1,0,1.230403e+00,NaN,1,0,3,3
30,506,3,23,61,2,0,0,3.499508e+00,NaN,1,0,1,3
30,507,3,122,10,2,2,1,1.196400e+00,NaN,1,1,3,3
30,508,3,135,28,2,2,1,9.782586e-01,NaN,1,0,3,3
30,509,3,136,32,2,1,0,2.904756e+00,NaN,1,1,3,3
30,510,3,28,43,1,2,0,1.145966e+00,NaN,1,1,1,3
30,511,3,88,6,1,1,1,1.289105e+00,NaN,1,0,2,3
30,512,3,17,30,1,1,1,1.610562e+00,NaN,1,0,1,3
30,513,3,110,1,1,1,1,2.015862e+00,NaN,1,1,3,3
30,514,3,95,22,2,2,1,2.684302e+00,NaN,1,0,2,3
30,515,3,100,49,1,1,1,1.822526e+00,NaN,1,0,3,3
30,516,3,103,33,2,2,1,1.539323e+00,NaN,1,0,3,3
30,517,3,116,15,2,2,1,2.314853e+00,NaN,1,0,3,3
30,518,3,129,38,1,2,0,2.036087e+00,NaN,1,0,3,3
30,519,3,72,21,1,1,1,1.152049e+00,NaN,1,0,2,3
30,520,3,73,5,2,1,0,1.671475e+00,NaN,1,1,2,3
30,521,3,93,54,2,1,0,1.401705e+00,NaN,1,1,2,3
30,522,3,44,47,1,0,0,3.499752e+00,NaN,1,0,1,3
30,523,3,38,71,1,1,1,2.448228e+00,NaN,1,0,1,3
30,524,3,1,34,2,2,1,1.395965e+00,NaN,1,0,1,3
30,525,3,140,18,1,2,0,1.761626e+00,NaN,1,1,3,3
30,526,3,131,56,2,1,0,1.257011e+00,NaN,1,1,3,3
30,527,3,27,65,2,0,0,3.499698e+00,NaN,1,0,1,3
30,528,3,10,2,2,2,1,1.069164e+00,NaN,1,0,1,3
30,529,3,92,29,1,1,1,8.880760e-01,NaN,1,1,2,3
30,554,4,45,49,1,1,1,1.797791e+00,NaN,2,0,1,1
30,555,4,112,39,1,1,1,1.059786e+00,NaN,2,0,3,1
30,556,4,120,17,1,1,1,1.558955e+00,NaN,2,0,3,1
30,557,4,71,23,2,2,1,1.374128e+00,NaN,2,0,2,1
30,558,4,34,41,1,2,0,1.884498e+00,NaN,2,0,1,1
30,559,4,7,60,2,2,1,1.087228e+00,NaN,2,0,1,1
30,560,4,11,68,2,2,1,8.725555e-01,NaN,2,1,1,1
30,561,4,80,47,1,1,1,8.991862e-01,NaN,2,0,2,1
30,562,4,13,26,2,2,1,9.168916e-01,NaN,2,0,1,1
30,563,4,98,67,2,2,1,1.173625e+00,NaN,2,0,3,1
30,564,4,141,51,1,1,1,9.007425e-01,NaN,2,0,3,1
30,565,4,39,14,1,1,1,1.606095e+00,NaN,2,1,1,1
30,566,4,79,63,2,2,1,1.043086e+00,NaN,2,1,2,1
30,567,4,61,57,2,1,0,1.166989e+00,NaN,2,0,2,1
30,568,4,35,33,2,1,0,2.525633e+00,NaN,2,0,1,1
30,569,4,74,58,2,2,1,1.005851e+00,NaN,2,1,2,1
30,570,4,114,6,1,1,1,1.090917e+00,NaN,2,0,3,1
30,571,4,123,30,2,2,1,1.213141e+00,NaN,2,0,3,1
30,572,4,55,20,1,1,1,1.913978e+00,NaN,2,0,2,1
30,573,4,46,36,2,2,1,1.378927e+00,NaN,2,0,1,1
30,574,4,101,25,2,1,0,1.489090e+00,NaN,2,0,3,1
30,575,4,26,11,2,2,1,1.251122e+00,NaN,2,1,1,1
30,576,4,47,10,2,2,1,1.110607e+00,NaN,2,1,1,1
30,577,4,142,44,2,1,0,1.247558e+00,NaN,2,1,3,1
30,602,4,107,54,2,2,1,1.114602e+00,NaN,2,1,3,2
30,603,4,70,72,2,2,1,6.515303e-01,NaN,2,0,2,2
30,604,4,19,22,2,2,1,9.990477e-01,NaN,2,0,1,2
30,605,4,24,59,2,2,1,1.179904e+00,NaN,2,0,1,2
30,606,4,127,2,1,1,1,1.354486e+00,NaN,2,0,3,2
30,607,4,106,12,2,2,1,2.362242e+00,NaN,2,0,3,2
30,608,4,81,61,2,2,1,1.057183e+00,NaN,2,0,2,2
30,609,4,121,8,1,1,1,1.140281e+00,NaN,2,0,3,2
30,610,4,89,40,1,1,1,1.580418e+00,NaN,2,0,2,2
30,611,4,76,35,1,2,0,2.506379e+00,NaN,2,0,2,2
30,612,4,51,19,2,2,1,1.083167e+00,NaN,2,0,2,2
30,613,4,108,29,2,2,1,1.357677e+00,NaN,2,1,3,2
30,614,4,118,71,2,2,1,1.924908e+00,NaN,2,0,3,2
30,615,4,105,9,2,2,1,1.957837e+00,NaN,2,0,3,2
30,616,4,86,46,2,2,1,8.846084e-01,NaN,2,0,2,2
30,617,4,41,18,2,2,1,1.622477e+00,NaN,2,1,1,2
30,618,4,99,53,1,1,1,2.027498e+00,NaN,2,1,3,2
30,619,4,6,3,1,2,0,2.103794e+00,NaN,2,0,1,2
30,620,4,60,66,2,2,1,1.064877e+00,NaN,2,0,2,2
30,621,4,59,56,1,1,1,1.219676e+00,NaN,2,1,2,2
30,622,4,2,62,1,1,1,1.480550e+00,NaN,2,1,1,2
30,623,4,37,38,2,2,1,3.074280e+00,NaN,2,0,1,2
30,624,4,77,55,1,1,1,1.084291e+00,NaN,2,0,2,2
30,625,4,16,50,2,1,0,1.534793e+00,NaN,2,0,1,2
30,650,4,134,65,1,2,0,1.087682e+00,NaN,2,0,3,3
30,651,4,43,4,2,2,1,1.146048e+00,NaN,2,0,1,3
30,652,4,133,70,2,2,1,1.425558e+00,NaN,2,0,3,3
30,653,4,30,16,2,2,1,1.077817e+00,NaN,2,1,1,3
30,654,4,104,31,2,2,1,1.272612e+00,NaN,2,0,3,3
30,655,4,144,24,2,2,1,1.243324e+00,NaN,2,0,3,3
30,656,4,3,13,2,1,0,1.646748e+00,NaN,2,0,1,3
30,657,4,62,32,2,1,0,1.218394e+00,NaN,2,1,2,3
30,658,4,65,15,2,2,1,8.709651e-01,NaN,2,0,2,3
30,659,4,40,27,2,2,1,1.545654e+00,NaN,2,0,1,3
30,660,4,58,52,1,1,1,1.272965e+00,NaN,2,0,2,3
30,661,4,57,37,1,2,0,9.951856e-01,NaN,2,0,2,3
30,662,4,83,48,1,2,0,2.016292e+00,NaN,2,0,2,3
30,663,4,117,45,1,2,0,1.581623e+00,NaN,2,0,3,3
30,664,4,54,28,1,1,1,1.147742e+00,NaN,2,0,2,3
30,665,4,90,7,2,1,0,1.180143e+00,NaN,2,0,2,3
30,666,4,20,42,1,2,0,1.521584e+00,NaN,2,0,1,3
30,667,4,119,43,2,2,1,1.602123e+00,NaN,2,1,3,3
30,668,4,137,34,2,1,0,1.591495e+00,NaN,2,0,3,3
30,669,4,25,5,2,2,1,1.509392e+00,NaN,2,1,1,3
30,670,4,102,64,1,1,1,2.822828e+00,NaN,2,0,3,3
30,671,4,53,1,2,2,1,1.259005e+00,NaN,2,1,2,3
30,672,4,22,21,1,1,1,1.174213e+00,NaN,2,0,1,3
30,673,4,52,69,1,2,0,1.324817e+00,NaN,2,0,2,3
30,674,5,8.601000e+01,25,2,2,1,2.845948e-01,1,1,0,2.300000e+00,1
30,675,5,1.823000e+01,30,1,1,1,4.878122e-01,1,1,0,1.300000e+00,1
30,676,5,6.817000e+01,45,2,2,1,9.849399e-01,1,1,0,2.300000e+00,1
30,677,5,4.480000e+01,47,1,2,0,1.901033e-02,1,1,0,1.200000e+00,1
30,678,5,2.834000e+01,65,1,0,0,2.500325e+00,1,1,0,1.300000e+00,1
30,679,5,9.519000e+01,22,2,0,0,2.500101e+00,1,1,0,2.100000e+00,1
30,680,5,5.760000e+00,35,1,2,0,9.453412e-01,1,1,0,1.200000e+00,1
30,681,5,9.706000e+01,12,2,2,1,3.629829e-01,1,1,0,2.300000e+00,1
30,682,5,1.396100e+02,57,3,0,0,2.500422e+00,1,1,0,3.200000e+00,1
30,683,5,7.222000e+01,21,2,1,0,5.504327e-01,1,1,0,2.100000e+00,1
30,684,5,5.760000e+00,35,1,1,1,4.322506e-01,2,1,0,1.200000e+00,1
30,685,5,1.385500e+02,20,3,0,0,2.500282e+00,1,1,0,3.200000e+00,1
30,686,5,5.012000e+01,39,2,2,1,3.963356e-01,1,1,0,2.300000e+00,1
30,687,5,6.303000e+01,13,2,1,0,5.735575e-01,1,1,0,2.100000e+00,1
30,688,5,3.744000e+01,24,1,1,1,8.632902e-01,1,1,0,1.300000e+00,1
30,689,5,1.470000e+01,72,1,1,1,3.923126e-01,1,1,0,1.200000e+00,1
30,690,5,4.890000e+00,40,1,1,1,4.103779e-01,1,1,0,1.200000e+00,1
30,691,5,9.860000e+00,46,1,0,0,2.500477e+00,1,1,0,1.200000e+00,1
30,692,5,4.921000e+01,8,1,1,1,4.065544e-01,1,1,0,1.300000e+00,1
30,693,5,1.004500e+02,49,3,2,0,4.400025e-01,1,1,0,3.100000e+00,1
30,694,5,8.213000e+01,26,2,1,0,1.225272e+00,1,1,0,2.100000e+00,1
30,695,5,1.933000e+01,70,1,2,0,1.299512e+00,1,1,0,1.300000e+00,1
30,696,5,9.860000e+00,46,1,1,1,1.348996e+00,2,1,0,1.200000e+00,1
30,697,5,1.396100e+02,57,3,2,0,3.100651e-01,2,1,0,3.200000e+00,1
30,698,5,1.004500e+02,49,3,1,0,1.081151e+00,2,1,0,3.100000e+00,1
30,699,5,1.325100e+02,19,3,0,0,2.500294e+00,1,1,0,3.200000e+00,1
30,700,5,6.504000e+01,31,2,1,0,1.195976e+00,1,1,0,2.300000e+00,1
30,701,5,6.303000e+01,13,2,2,1,1.125524e+00,2,1,0,2.100000e+00,1
30,702,5,1.154300e+02,4,3,1,0,7.274370e-01,1,1,0,3.100000e+00,1
30,703,5,6.504000e+01,31,2,2,1,7.769980e-01,2,1,0,2.300000e+00,1
30,704,5,8.914000e+01,6,2,0,0,2.500092e+00,1,1,0,2.300000e+00,1
30,705,5,8.830000e+00,48,1,2,0,1.125003e+00,1,1,0,1.200000e+00,1
30,706,5,2.370000e+00,34,1,1,1,5.432296e-01,1,1,0,1.300000e+00,1
30,707,5,4.480000e+01,47,1,0,0,2.500318e+00,2,1,0,1.200000e+00,1
30,708,5,1.264600e+02,36,3,2,0,5.626942e-01,1,1,0,3.100000e+00,1
30,709,5,6.998000e+01,67,2,0,0,2.500012e+00,1,1,0,2.300000e+00,1
30,710,5,1.254000e+02,27,3,1,0,5.106273e-01,1,1,0,3.100000e+00,1
30,711,5,8.830000e+00,48,1,3,0,5.283853e-01,2,1,0,1.200000e+00,1
30,712,5,2.381000e+01,61,1,2,0,7.380836e-01,1,1,0,1.200000e+00,1
30,713,5,1.127000e+01,2,1,3,0,4.355023e-01,1,1,0,1.300000e+00,1
30,714,5,7.905000e+01,9,2,2,1,4.455615e-01,1,1,0,2.300000e+00,1
30,715,5,9.760000e+01,66,3,2,0,3.430372e-01,1,1,0,3.200000e+00,1
30,716,5,9.502000e+01,64,2,2,1,6.166995e-01,1,1,0,2.300000e+00,1
30,717,5,1.245800e+02,52,3,0,0,2.500371e+00,1,1,0,3.200000e+00,1
30,718,5,6.817000e+01,45,2,2,1,3.089395e-01,2,1,0,2.300000e+00,1
30,719,5,5.760000e+00,35,1,1,1,3.744822e-01,3,1,0,1.200000e+00,1
30,720,5,1.166500e+02,15,3,3,1,1.000094e+00,1,1,0,3.200000e+00,1
30,721,5,1.264600e+02,36,3,2,0,1.138076e+00,2,1,0,3.100000e+00,1
30,722,5,1.320000e+01,17,1,1,1,4.754593e-01,1,1,0,1.300000e+00,1
30,723,5,7.222000e+01,21,2,1,0,4.772299e-01,2,1,0,2.100000e+00,1
30,724,5,1.325100e+02,19,3,3,1,4.549594e-01,2,1,0,3.200000e+00,1
30,725,5,5.024000e+01,59,2,1,0,5.608351e-01,1,1,0,2.100000e+00,1
30,726,5,1.470000e+01,72,1,1,1,6.502502e-01,2,1,0,1.200000e+00,1
30,727,5,2.834000e+01,65,1,1,1,4.444526e-01,2,1,0,1.300000e+00,1
30,728,5,7.905000e+01,9,2,2,1,5.661098e-01,2,1,0,2.300000e+00,1
30,729,5,6.817000e+01,45,2,2,1,4.485024e-01,3,1,0,2.300000e+00,1
30,730,5,1.355400e+02,28,3,3,1,4.651445e-01,1,1,0,3.200000e+00,1
30,731,5,5.012000e+01,39,2,2,1,5.867054e-01,2,1,0,2.300000e+00,1
30,732,5,6.504000e+01,31,2,1,0,5.001877e-01,3,1,0,2.300000e+00,1
30,733,5,9.860000e+00,46,1,1,1,6.062177e-01,3,1,0,1.200000e+00,1
30,734,5,8.914000e+01,6,2,3,0,5.112977e-01,2,1,0,2.300000e+00,1
30,735,5,5.760000e+00,35,1,1,1,5.127350e-01,4,1,0,1.200000e+00,1
30,736,5,1.154300e+02,4,3,2,0,5.224112e-01,2,1,0,3.100000e+00,1
30,737,5,1.245800e+02,52,3,2,0,4.771644e-01,2,1,0,3.200000e+00,1
30,738,5,1.254000e+02,27,3,1,0,5.898250e-01,2,1,0,3.100000e+00,1
30,739,5,4.480000e+01,47,1,1,1,1.496259e+00,3,1,0,1.200000e+00,1
30,740,5,3.918000e+01,71,1,2,0,4.009957e-01,1,1,0,1.300000e+00,1
30,741,5,1.325100e+02,19,3,3,1,5.947616e-01,3,1,0,3.200000e+00,1
30,742,5,2.370000e+00,34,1,1,1,1.732428e+00,2,1,0,1.300000e+00,1
30,743,5,1.127000e+01,2,1,1,1,4.305775e-01,2,1,0,1.300000e+00,1
30,744,5,9.107000e+01,60,2,2,1,1.144086e+00,1,1,0,2.100000e+00,1
30,745,5,2.834000e+01,65,1,1,1,1.081609e+00,3,1,0,1.300000e+00,1
30,746,5,3.377000e+01,55,1,3,0,1.435050e+00,1,1,0,1.200000e+00,1
30,747,5,8.213000e+01,26,2,0,0,2.500456e+00,2,1,0,2.100000e+00,1
30,748,5,2.370000e+00,34,1,1,1,5.755122e-01,3,1,0,1.300000e+00,1
30,749,5,5.616000e+01,50,2,3,0,7.929633e-01,1,1,0,2.100000e+00,1
30,750,5,7.222000e+01,21,2,1,0,3.872362e-01,3,1,0,2.100000e+00,1
30,751,5,1.004500e+02,49,3,2,0,7.324144e-01,3,1,0,3.100000e+00,1
30,752,5,1.033500e+02,33,3,1,0,6.860677e-01,1,1,0,3.100000e+00,1
30,753,5,8.720000e+01,42,2,1,0,1.695815e+00,1,1,0,2.100000e+00,1
30,754,5,1.166500e+02,15,3,3,1,7.539846e-01,2,1,0,3.200000e+00,1
30,755,5,8.601000e+01,25,2,1,0,9.229155e-01,2,1,0,2.300000e+00,1
30,756,5,8.601000e+01,25,2,2,1,5.886695e-01,3,1,0,2.300000e+00,1
30,757,5,9.502000e+01,64,2,2,1,8.386028e-01,2,1,0,2.300000e+00,1
30,758,5,9.706000e+01,12,2,2,1,7.676632e-01,2,1,0,2.300000e+00,1
30,759,5,8.720000e+01,42,2,1,0,1.217498e+00,2,1,0,2.100000e+00,1
30,760,5,8.914000e+01,6,2,2,1,8.924605e-01,3,1,0,2.300000e+00,1
30,761,5,1.033500e+02,33,3,3,1,3.975094e-01,2,1,0,3.100000e+00,1
30,762,5,1.325100e+02,19,3,3,1,5.749305e-01,4,1,0,3.200000e+00,1
30,763,5,1.127000e+01,2,1,1,1,3.687381e-01,3,1,0,1.300000e+00,1
30,764,5,2.381000e+01,61,1,2,0,6.346316e-01,2,1,0,1.200000e+00,1
30,765,5,3.744000e+01,24,1,0,0,2.500265e+00,2,1,0,1.300000e+00,1
30,766,5,9.760000e+01,66,3,2,0,4.063516e-01,2,1,0,3.200000e+00,1
30,767,5,6.303000e+01,13,2,1,0,8.558917e-01,3,1,0,2.100000e+00,1
30,768,5,9.519000e+01,22,2,3,0,8.098064e-01,2,1,0,2.100000e+00,1
30,769,5,6.998000e+01,67,2,2,1,1.155809e+00,2,1,0,2.300000e+00,1
30,770,5,1.004500e+02,49,3,1,0,1.076850e+00,4,1,0,3.100000e+00,1
30,771,5,4.890000e+00,40,1,1,1,7.108779e-01,2,1,0,1.200000e+00,1
30,772,5,8.601000e+01,25,2,2,1,1.232290e+00,4,1,0,2.300000e+00,1
30,773,5,5.012000e+01,39,2,2,1,5.622139e-01,3,1,0,2.300000e+00,1
30,774,5,3.290000e+01,7,1,1,1,4.756806e-01,1,1,0,1.200000e+00,1
30,775,5,1.154300e+02,4,3,1,0,3.655280e-01,3,1,0,3.100000e+00,1
30,776,5,6.998000e+01,67,2,2,1,8.309393e-01,3,1,0,2.300000e+00,1
30,777,5,1.385500e+02,20,3,3,1,4.244914e-01,2,1,0,3.200000e+00,1
30,778,5,1.254000e+02,27,3,3,1,6.099856e-01,3,1,0,3.100000e+00,1
30,779,5,3.744000e+01,24,1,3,0,4.517982e-01,3,1,0,1.300000e+00,1
30,780,5,3.041000e+01,51,1,2,0,3.498911e-01,1,1,0,1.300000e+00,1
30,781,5,3.171000e+01,23,1,3,0,9.997664e-01,1,1,0,1.200000e+00,1
30,782,5,3.744000e+01,24,1,1,1,3.771798e-01,4,1,0,1.300000e+00,1
30,783,5,1.823000e+01,30,1,1,1,4.594013e-01,2,1,0,1.300000e+00,1
30,784,5,9.107000e+01,60,2,2,1,1.212751e+00,2,1,0,2.100000e+00,1
30,785,5,1.303400e+02,41,3,1,0,3.747339e-01,1,1,0,3.100000e+00,1
30,786,5,1.355400e+02,28,3,1,0,3.199782e-01,2,1,0,3.200000e+00,1
30,787,5,4.921000e+01,8,1,1,1,3.455397e-01,2,1,0,1.300000e+00,1
30,788,5,1.264600e+02,36,3,3,1,3.711263e-01,3,1,0,3.100000e+00,1
30,789,5,1.823000e+01,30,1,3,0,1.084655e+00,3,1,0,1.300000e+00,1
30,790,5,1.033500e+02,33,3,3,1,3.582503e-01,3,1,0,3.100000e+00,1
30,791,5,1.385500e+02,20,3,0,0,2.500591e+00,3,1,0,3.200000e+00,1
30,792,5,2.834000e+01,65,1,3,0,6.737525e-01,4,1,0,1.300000e+00,1
30,793,5,5.616000e+01,50,2,1,0,7.395312e-01,2,1,0,2.100000e+00,1
30,794,5,9.760000e+01,66,3,3,1,8.619877e-01,3,1,0,3.200000e+00,1
30,795,5,7.222000e+01,21,2,1,0,1.521287e-04,4,1,0,2.100000e+00,1
30,796,5,4.480000e+01,47,1,0,0,2.500619e+00,4,1,0,1.200000e+00,1
30,797,5,1.095700e+02,37,3,0,0,2.500136e+00,1,1,0,3.200000e+00,1
30,798,5,2.381000e+01,61,1,2,0,2.164503e+00,3,1,0,1.200000e+00,1
30,799,5,1.245800e+02,52,3,0,0,2.500402e+00,3,1,0,3.200000e+00,1
30,800,5,3.041000e+01,51,1,0,0,2.500082e+00,2,1,0,1.300000e+00,1
30,801,5,6.806000e+01,3,2,0,0,2.500152e+00,1,1,0,2.100000e+00,1
30,802,5,3.290000e+01,7,1,0,0,2.500320e+00,2,1,0,1.200000e+00,1
30,803,5,5.024000e+01,59,2,2,1,1.535581e+00,2,1,0,2.100000e+00,1
30,804,5,9.107000e+01,60,2,3,0,1.529565e+00,3,1,0,2.100000e+00,1
30,805,5,3.171000e+01,23,1,3,0,4.274954e-01,2,1,0,1.200000e+00,1
30,806,5,9.502000e+01,64,2,3,0,9.897374e-01,3,1,0,2.300000e+00,1
30,807,5,8.830000e+00,48,1,1,1,9.188781e-01,3,1,0,1.200000e+00,1
30,808,5,1.127000e+01,2,1,1,1,4.811771e-01,4,1,0,1.300000e+00,1
30,809,5,5.616000e+01,50,2,3,0,1.026452e+00,3,1,0,2.100000e+00,1
30,810,5,1.355400e+02,28,3,0,0,2.500176e+00,3,1,0,3.200000e+00,1
30,811,5,1.135200e+02,69,3,3,1,7.265097e-01,1,1,0,3.200000e+00,1
30,812,5,1.293700e+02,38,3,0,0,2.500507e+00,1,1,0,3.100000e+00,1
30,813,5,9.519000e+01,22,2,2,1,8.101089e-01,3,1,0,2.100000e+00,1
30,814,5,1.154300e+02,4,3,0,0,2.500160e+00,4,1,0,3.100000e+00,1
30,815,5,3.171000e+01,23,1,0,0,2.500518e+00,3,1,0,1.200000e+00,1
30,816,5,1.396100e+02,57,3,3,1,9.124485e-01,3,1,0,3.200000e+00,1
30,817,5,5.012000e+01,39,2,0,0,2.500088e+00,4,1,0,2.300000e+00,1
30,818,5,7.905000e+01,9,2,2,1,2.332300e+00,3,1,0,2.300000e+00,1
30,819,5,3.041000e+01,51,1,0,0,2.500050e+00,3,1,0,1.300000e+00,1
30,820,5,1.470000e+01,72,1,0,0,2.500344e+00,3,1,0,1.200000e+00,1
30,821,5,3.918000e+01,71,1,2,0,1.266771e+00,2,1,0,1.300000e+00,1
30,822,5,2.381000e+01,61,1,3,0,1.596934e+00,4,1,0,1.200000e+00,1
30,823,5,4.890000e+00,40,1,1,1,9.990374e-01,3,1,0,1.200000e+00,1
30,824,5,1.470000e+01,72,1,0,0,2.500437e+00,4,1,0,1.200000e+00,1
30,825,5,1.293700e+02,38,3,3,1,7.464138e-01,2,1,0,3.100000e+00,1
30,826,5,8.720000e+01,42,2,1,0,4.598529e-01,3,1,0,2.100000e+00,1
30,827,5,1.320000e+01,17,1,0,0,2.500530e+00,2,1,0,1.300000e+00,1
30,828,5,1.320000e+01,17,1,3,0,1.720225e+00,3,1,0,1.300000e+00,1
30,829,5,3.290000e+01,7,1,0,0,2.500104e+00,3,1,0,1.200000e+00,1
30,830,5,1.033500e+02,33,3,2,0,1.604356e+00,4,1,0,3.100000e+00,1
30,831,5,1.245800e+02,52,3,1,0,7.504573e-01,4,1,0,3.200000e+00,1
30,832,5,6.806000e+01,3,2,2,1,3.289082e-01,2,1,0,2.100000e+00,1
30,833,5,9.519000e+01,22,2,1,0,8.100920e-01,4,1,0,2.100000e+00,1
30,834,5,1.166500e+02,15,3,3,1,1.019623e+00,3,1,0,3.200000e+00,1
30,835,5,5.024000e+01,59,2,1,0,4.053872e-01,3,1,0,2.100000e+00,1
30,836,5,6.817000e+01,45,2,2,1,6.390346e-01,4,1,0,2.300000e+00,1
30,837,5,1.303400e+02,41,3,3,1,4.806166e-01,2,1,0,3.100000e+00,1
30,838,5,9.860000e+00,46,1,2,0,3.775839e-01,4,1,0,1.200000e+00,1
30,839,5,9.107000e+01,60,2,3,0,9.231941e-01,4,1,0,2.100000e+00,1
30,840,5,3.377000e+01,55,1,1,1,9.648794e-01,2,1,0,1.200000e+00,1
30,841,5,4.921000e+01,8,1,0,0,2.500339e+00,3,1,0,1.300000e+00,1
30,842,5,1.933000e+01,70,1,3,0,6.646052e-01,2,1,0,1.300000e+00,1
30,843,5,6.504000e+01,31,2,2,1,1.185887e+00,4,1,0,2.300000e+00,1
30,844,5,1.396100e+02,57,3,0,0,2.500122e+00,4,1,0,3.200000e+00,1
30,845,5,1.135200e+02,69,3,0,0,2.500476e+00,2,1,0,3.200000e+00,1
30,846,5,1.823000e+01,30,1,2,0,5.922638e-01,4,1,0,1.300000e+00,1
30,847,5,1.254000e+02,27,3,1,0,5.057821e-01,4,1,0,3.100000e+00,1
30,848,5,9.706000e+01,12,2,2,1,5.398042e-01,3,1,0,2.300000e+00,1
30,849,5,1.095700e+02,37,3,0,0,2.500327e+00,2,1,0,3.200000e+00,1
30,850,5,3.377000e+01,55,1,1,1,1.079233e+00,3,1,0,1.200000e+00,1
30,851,5,9.706000e+01,12,2,2,1,1.024686e+00,4,1,0,2.300000e+00,1
30,852,5,3.171000e+01,23,1,1,1,1.490150e+00,4,1,0,1.200000e+00,1
30,853,5,4.890000e+00,40,1,1,1,4.120474e-01,4,1,0,1.200000e+00,1
30,854,5,7.905000e+01,9,2,2,1,5.174293e-01,4,1,0,2.300000e+00,1
30,855,5,2.370000e+00,34,1,2,0,1.343349e+00,4,1,0,1.300000e+00,1
30,856,5,1.095700e+02,37,3,3,1,8.649084e-01,3,1,0,3.200000e+00,1
30,857,5,1.303400e+02,41,3,0,0,2.500039e+00,3,1,0,3.100000e+00,1
30,858,5,8.213000e+01,26,2,1,0,1.436911e+00,3,1,0,2.100000e+00,1
30,859,5,1.166500e+02,15,3,2,0,1.438372e+00,4,1,0,3.200000e+00,1
30,860,5,3.290000e+01,7,1,1,1,3.915529e-01,4,1,0,1.200000e+00,1
30,861,5,6.806000e+01,3,2,3,0,8.654405e-01,3,1,0,2.100000e+00,1
30,862,5,3.377000e+01,55,1,3,0,3.872453e-01,4,1,0,1.200000e+00,1
30,863,5,8.213000e+01,26,2,2,1,3.723439e-01,4,1,0,2.100000e+00,1
30,864,5,1.293700e+02,38,3,1,0,1.197945e+00,3,1,0,3.100000e+00,1
30,865,5,1.320000e+01,17,1,1,1,4.635462e-01,4,1,0,1.300000e+00,1
30,866,5,1.135200e+02,69,3,3,1,3.612093e-01,3,1,0,3.200000e+00,1
30,867,5,6.303000e+01,13,2,2,1,4.105273e-01,4,1,0,2.100000e+00,1
30,868,5,1.933000e+01,70,1,3,0,3.883552e-01,3,1,0,1.300000e+00,1
30,869,5,1.303400e+02,41,3,2,0,4.461214e-01,4,1,0,3.100000e+00,1
30,870,5,3.918000e+01,71,1,3,0,1.383255e+00,3,1,0,1.300000e+00,1
30,871,5,8.830000e+00,48,1,2,0,3.131222e-01,4,1,0,1.200000e+00,1
30,872,5,6.998000e+01,67,2,3,0,9.305319e-01,4,1,0,2.300000e+00,1
30,873,5,9.502000e+01,64,2,2,1,4.200009e-01,4,1,0,2.300000e+00,1
30,874,5,3.918000e+01,71,1,3,0,3.736603e-01,4,1,0,1.300000e+00,1
30,875,5,5.024000e+01,59,2,1,0,4.472205e-01,4,1,0,2.100000e+00,1
30,876,5,1.264600e+02,36,3,3,1,3.362862e-01,4,1,0,3.100000e+00,1
30,877,5,9.760000e+01,66,3,3,1,3.543605e-01,4,1,0,3.200000e+00,1
30,878,5,1.385500e+02,20,3,3,1,4.035134e-01,4,1,0,3.200000e+00,1
30,879,5,1.135200e+02,69,3,1,0,4.367381e-01,4,1,0,3.200000e+00,1
30,880,5,1.355400e+02,28,3,1,0,1.046680e+00,4,1,0,3.200000e+00,1
30,881,5,1.095700e+02,37,3,3,1,3.443517e-01,4,1,0,3.200000e+00,1
30,882,5,1.933000e+01,70,1,1,1,4.580575e-01,4,1,0,1.300000e+00,1
30,883,5,3.041000e+01,51,1,2,0,3.717116e-01,4,1,0,1.300000e+00,1
30,884,5,6.806000e+01,3,2,1,0,3.811526e-01,4,1,0,2.100000e+00,1
30,885,5,5.616000e+01,50,2,2,1,3.748758e-01,4,1,0,2.100000e+00,1
30,886,5,1.293700e+02,38,3,0,0,2.500544e+00,4,1,0,3.100000e+00,1
30,887,5,8.914000e+01,6,2,1,0,9.066287e-01,4,1,0,2.300000e+00,1
30,888,5,4.921000e+01,8,1,0,0,2.500322e+00,4,1,0,1.300000e+00,1
30,889,5,8.720000e+01,42,2,0,0,2.500496e+00,4,1,0,2.100000e+00,1
30,890,6,79,63,2,2,1,9.314851e-01,NaN,2,1,2,1
30,891,6,45,49,2,1,0,1.037050e+00,NaN,2,0,1,1
30,892,6,141,51,2,2,1,8.741508e-01,NaN,2,0,3,1
30,893,6,102,64,1,2,0,9.020021e-01,NaN,2,0,3,1
30,894,6,60,66,1,1,1,7.124384e-01,NaN,2,0,2,1
30,895,6,83,48,2,2,1,7.062947e-01,NaN,2,0,2,1
30,896,6,26,11,2,2,1,1.037239e+00,NaN,2,1,1,1
30,897,6,101,25,1,1,1,1.786046e+00,NaN,2,0,3,1
30,898,6,57,37,2,1,0,9.375781e-01,NaN,2,0,2,1
30,899,6,134,65,2,2,1,1.082740e+00,NaN,2,0,3,1
30,900,6,99,53,1,1,1,1.150252e+00,NaN,2,1,3,1
30,901,6,41,18,1,1,1,1.310967e+00,NaN,2,1,1,1
30,902,6,106,12,2,1,0,1.480929e+00,NaN,2,0,3,1
30,903,6,121,8,1,1,1,1.068832e+00,NaN,2,0,3,1
30,904,6,22,21,1,2,0,2.680384e+00,NaN,2,0,1,1
30,905,6,112,39,1,1,1,1.219561e+00,NaN,2,0,3,1
30,906,6,65,15,2,2,1,1.209766e+00,NaN,2,0,2,1
30,907,6,86,46,1,1,1,9.434302e-01,NaN,2,0,2,1
30,908,6,39,14,1,1,1,1.504267e+00,NaN,2,1,1,1
30,909,6,62,32,1,2,0,1.314199e+00,NaN,2,1,2,1
30,910,6,20,42,1,1,1,1.828413e+00,NaN,2,0,1,1
30,911,6,114,6,1,1,1,1.354210e+00,NaN,2,0,3,1
30,912,6,61,57,2,2,1,1.058094e+00,NaN,2,0,2,1
30,913,6,35,33,1,2,0,1.214145e+00,NaN,2,0,1,1
30,914,6,24,59,1,2,0,1.172609e+00,NaN,2,0,1,1
30,915,6,76,35,1,2,0,1.612285e+00,NaN,2,0,2,1
30,916,6,43,4,1,1,1,1.362282e+00,NaN,2,0,1,1
30,917,6,77,55,1,1,1,7.300253e-01,NaN,2,0,2,1
30,918,6,58,52,2,2,1,8.671701e-01,NaN,2,0,2,1
30,919,6,46,36,2,2,1,1.224241e+00,NaN,2,0,1,1
30,920,6,90,7,1,2,0,9.728043e-01,NaN,2,0,2,1
30,921,6,47,10,2,2,1,7.967074e-01,NaN,2,1,1,1
30,922,6,117,45,1,2,0,1.267156e+00,NaN,2,0,3,1
30,923,6,52,69,2,2,1,1.886980e+00,NaN,2,0,2,1
30,924,6,55,20,1,2,0,2.858168e+00,NaN,2,0,2,1
30,925,6,51,19,1,1,1,8.137310e-01,NaN,2,0,2,1
30,926,6,11,68,2,2,1,1.435454e+00,NaN,2,1,1,1
30,927,6,3,13,1,1,1,1.744782e+00,NaN,2,0,1,1
30,928,6,2,62,2,2,1,1.089827e+00,NaN,2,1,1,1
30,929,6,19,22,1,1,1,1.508914e+00,NaN,2,0,1,1
30,930,6,6,3,2,2,1,1.270986e+00,NaN,2,0,1,1
30,931,6,118,71,2,1,0,1.282237e+00,NaN,2,0,3,1
30,932,6,25,5,1,1,1,1.805707e+00,NaN,2,1,1,1
30,933,6,80,47,2,2,1,8.916522e-01,NaN,2,0,2,1
30,934,6,40,27,2,2,1,1.310500e+00,NaN,2,0,1,1
30,935,6,104,31,1,1,1,1.248762e+00,NaN,2,0,3,1
30,936,6,30,16,2,2,1,1.085606e+00,NaN,2,1,1,1
30,937,6,105,9,1,1,1,1.224902e+00,NaN,2,0,3,1
30,938,6,13,26,1,1,1,8.302638e-01,NaN,2,0,1,1
30,939,6,119,43,1,1,1,9.153193e-01,NaN,2,1,3,1
30,940,6,70,72,2,2,1,7.330911e-01,NaN,2,0,2,1
30,941,6,98,67,2,2,1,1.118884e+00,NaN,2,0,3,1
30,942,6,7,60,1,1,1,9.685764e-01,NaN,2,0,1,1
30,943,6,108,29,2,2,1,1.097312e+00,NaN,2,1,3,1
30,944,6,89,40,1,1,1,1.307595e+00,NaN,2,0,2,1
30,945,6,81,61,1,1,1,9.739015e-01,NaN,2,0,2,1
30,946,6,123,30,2,2,1,1.061752e+00,NaN,2,0,3,1
30,947,6,16,50,1,2,0,1.218155e+00,NaN,2,0,1,1
30,948,6,127,2,1,2,0,1.192160e+00,NaN,2,0,3,1
30,949,6,137,34,2,2,1,9.592778e-01,NaN,2,0,3,1
30,950,6,120,17,2,1,0,1.151454e+00,NaN,2,0,3,1
30,951,6,54,28,1,1,1,2.047885e+00,NaN,2,0,2,1
30,952,6,71,23,1,2,0,1.139962e+00,NaN,2,0,2,1
30,953,6,37,38,1,2,0,1.165235e+00,NaN,2,0,1,1
30,954,6,59,56,2,2,1,1.972993e+00,NaN,2,1,2,1
30,955,6,53,1,2,2,1,9.404960e-01,NaN,2,1,2,1
30,956,6,144,24,2,2,1,1.165668e+00,NaN,2,0,3,1
30,957,6,142,44,2,1,0,9.258171e-01,NaN,2,1,3,1
30,958,6,133,70,1,2,0,2.095615e+00,NaN,2,0,3,1
30,959,6,74,58,2,2,1,1.329782e+00,NaN,2,1,2,1
30,960,6,34,41,1,1,1,2.627273e+00,NaN,2,0,1,1
30,961,6,107,54,2,2,1,9.524846e-01,NaN,2,1,3,1
30,962,6,128,11,1,1,1,1.465276e+00,NaN,1,1,3,1
30,963,6,27,65,2,1,0,1.397339e+00,NaN,1,0,1,1
30,964,6,4,40,1,2,0,2.612349e+00,NaN,1,0,1,1
30,965,6,92,29,1,1,1,1.017711e+00,NaN,1,1,2,1
30,966,6,32,7,2,2,1,1.671857e+00,NaN,1,0,1,1
30,967,6,138,20,1,1,1,1.243139e+00,NaN,1,0,3,1
30,968,6,94,64,2,2,1,3.144563e+00,NaN,1,0,2,1
30,969,6,18,70,1,2,0,1.657269e+00,NaN,1,0,1,1
30,970,6,87,42,1,1,1,1.204847e+00,NaN,1,0,2,1
30,971,6,140,18,2,2,1,2.347037e+00,NaN,1,1,3,1
30,972,6,109,37,2,2,1,1.987288e+00,NaN,1,0,3,1
30,973,6,8,48,2,2,1,2.138186e+00,NaN,1,0,1,1
30,974,6,10,2,1,1,1,2.058721e+00,NaN,1,0,1,1
30,975,6,14,72,2,2,1,2.231263e+00,NaN,1,0,1,1
30,976,6,131,56,1,2,0,1.196060e+00,NaN,1,1,3,1
30,977,6,69,67,1,1,1,9.545812e-01,NaN,1,0,2,1
30,978,6,44,47,1,2,0,1.666662e+00,NaN,1,0,1,1
30,979,6,50,59,1,1,1,1.774461e+00,NaN,1,0,2,1
30,980,6,1,34,1,2,0,1.070044e+00,NaN,1,0,1,1
30,981,6,124,52,2,1,0,1.210087e+00,NaN,1,0,3,1
30,982,6,93,54,2,2,1,1.368214e+00,NaN,1,1,2,1
30,983,6,38,71,1,1,1,1.624086e+00,NaN,1,0,1,1
30,984,6,95,22,2,1,0,1.365173e+00,NaN,1,0,2,1
30,985,6,96,12,2,2,1,8.300127e-01,NaN,1,0,2,1
30,986,6,113,69,2,2,1,2.026201e+00,NaN,1,0,3,1
30,987,6,48,8,2,2,1,1.648072e+00,NaN,1,0,1,1
30,988,6,67,45,1,1,1,1.292415e+00,NaN,1,0,2,1
30,989,6,73,5,2,2,1,1.158805e+00,NaN,1,1,2,1
30,990,6,28,43,2,2,1,1.711279e+00,NaN,1,1,1,1
30,991,6,129,38,2,1,0,1.073942e+00,NaN,1,0,3,1
30,992,6,136,32,2,1,0,1.445430e+00,NaN,1,1,3,1
30,993,6,135,28,2,2,1,8.267135e-01,NaN,1,0,3,1
30,994,6,115,4,2,1,0,1.160366e+00,NaN,1,0,3,1
30,995,6,49,39,1,2,0,6.966542e-01,NaN,1,0,2,1
30,996,6,64,31,1,1,1,9.869320e-01,NaN,1,0,2,1
30,997,6,116,15,1,0,0,3.500092e+00,NaN,1,0,3,1
30,998,6,143,14,2,2,1,1.228939e+00,NaN,1,1,3,1
30,999,6,139,57,1,1,1,9.382186e-01,NaN,1,0,3,1
30,1000,6,78,9,1,2,0,2.034832e+00,NaN,1,0,2,1
30,1001,6,88,6,2,2,1,1.032169e+00,NaN,1,0,2,1
30,1002,6,21,63,2,2,1,1.301188e+00,NaN,1,1,1,1
30,1003,6,111,16,1,1,1,9.280079e-01,NaN,1,1,3,1
30,1004,6,17,30,1,1,1,1.233707e+00,NaN,1,0,1,1
30,1005,6,15,44,1,2,0,1.615205e+00,NaN,1,1,1,1
30,1006,6,130,41,1,1,1,1.980923e+00,NaN,1,0,3,1
30,1007,6,5,35,2,2,1,1.276134e+00,NaN,1,0,1,1
30,1008,6,91,60,2,1,0,1.223870e+00,NaN,1,0,2,1
30,1009,6,36,24,1,2,0,1.045410e+00,NaN,1,0,1,1
30,1010,6,66,53,2,2,1,9.458767e-01,NaN,1,1,2,1
30,1011,6,125,27,2,2,1,1.154735e+00,NaN,1,0,3,1
30,1012,6,23,61,2,2,1,1.539348e+00,NaN,1,0,1,1
30,1013,6,122,10,1,1,1,1.011939e+00,NaN,1,1,3,1
30,1014,6,33,55,2,2,1,1.066005e+00,NaN,1,0,1,1
30,1015,6,97,66,1,2,0,1.222358e+00,NaN,1,0,3,1
30,1016,6,29,51,1,1,1,9.399910e-01,NaN,1,0,1,1
30,1017,6,12,17,2,2,1,1.452685e+00,NaN,1,0,1,1
30,1018,6,84,62,1,1,1,1.170094e+00,NaN,1,1,2,1
30,1019,6,100,49,2,2,1,1.225710e+00,NaN,1,0,3,1
30,1020,6,68,3,1,1,1,9.270435e-01,NaN,1,0,2,1
30,1021,6,85,25,2,2,1,5.842747e-01,NaN,1,0,2,1
30,1022,6,110,1,1,1,1,8.236963e-01,NaN,1,1,3,1
30,1023,6,56,50,1,1,1,6.935295e-01,NaN,1,0,2,1
30,1024,6,31,23,1,1,1,9.687789e-01,NaN,1,0,1,1
30,1025,6,42,58,1,2,0,8.489270e-01,NaN,1,1,1,1
30,1026,6,132,19,1,2,0,2.012889e+00,NaN,1,0,3,1
30,1027,6,9,46,1,2,0,1.490992e+00,NaN,1,0,1,1
30,1028,6,72,21,1,1,1,1.693492e+00,NaN,1,0,2,1
30,1029,6,126,36,1,1,1,1.145899e+00,NaN,1,0,3,1
30,1030,6,75,68,1,1,1,8.093401e-01,NaN,1,1,2,1
30,1031,6,103,33,1,1,1,8.878973e-01,NaN,1,0,3,1
30,1032,6,82,26,2,2,1,7.706925e-01,NaN,1,0,2,1
30,1033,6,63,13,1,2,0,1.050021e+00,NaN,1,0,2,1
