Subject,Trial,Cond,ImageNum,CueNum,Correct,Resp,Accuracy,RT,CueRep,ImageType,Baseline,Category,Block
22,1,1,107,NaN,NaN,1,NaN,3.935080e+00,NaN,0,0,3,1
22,2,1,139,NaN,NaN,1,NaN,8.072934e-01,NaN,1,0,3,1
22,3,1,109,NaN,NaN,1,NaN,5.047382e-01,NaN,0,1,3,1
22,4,1,13,NaN,NaN,1,NaN,2.134543e+00,NaN,1,0,1,1
22,5,1,59,NaN,NaN,1,NaN,9.312522e-01,NaN,0,1,2,1
22,6,1,105,NaN,NaN,2,NaN,2.736195e+00,NaN,0,0,3,1
22,7,1,82,NaN,NaN,1,NaN,1.940784e+00,NaN,0,1,2,1
22,8,1,63,NaN,NaN,1,NaN,1.592960e+00,NaN,2,1,2,1
22,9,1,111,NaN,NaN,2,NaN,9.550811e-01,NaN,1,0,3,1
22,10,1,7,NaN,NaN,1,NaN,4.551999e-01,NaN,2,0,1,1
22,11,1,104,NaN,NaN,2,NaN,3.614731e+00,NaN,2,0,3,1
22,12,1,53,NaN,NaN,1,NaN,3.841411e-01,NaN,1,1,2,1
22,13,1,13,NaN,NaN,2,NaN,4.130453e+00,NaN,0,0,1,1
22,14,1,71,NaN,NaN,1,NaN,3.591169e-01,NaN,0,0,2,1
22,15,1,11,NaN,NaN,1,NaN,4.831282e-01,NaN,1,0,1,1
22,16,1,49,NaN,NaN,1,NaN,3.538681e-01,NaN,0,0,2,1
22,17,1,100,NaN,NaN,2,NaN,3.498457e-01,NaN,1,0,3,1
22,18,1,91,NaN,NaN,1,NaN,6.502581e-01,NaN,0,0,2,1
22,19,1,57,NaN,NaN,1,NaN,2.742330e-01,NaN,0,1,2,1
22,20,1,3,NaN,NaN,2,NaN,7.852916e-01,NaN,2,0,1,1
22,21,1,24,NaN,NaN,1,NaN,7.801539e-01,NaN,2,0,1,1
22,22,1,29,NaN,NaN,1,NaN,3.907802e-01,NaN,2,0,1,1
22,23,1,114,NaN,NaN,1,NaN,3.218827e-01,NaN,0,0,3,1
22,24,1,8,NaN,NaN,1,NaN,8.308688e-01,NaN,2,1,1,1
22,25,1,21,NaN,NaN,1,NaN,7.436387e-01,NaN,2,0,1,1
22,26,1,34,NaN,NaN,1,NaN,1.962922e-01,NaN,1,1,1,1
22,27,1,38,NaN,NaN,1,NaN,1.430201e+00,NaN,0,0,1,1
22,28,1,34,NaN,NaN,1,NaN,4.312188e-01,NaN,0,1,1,1
22,29,1,123,NaN,NaN,1,NaN,4.320039e-01,NaN,0,0,3,1
22,30,1,12,NaN,NaN,1,NaN,7.208460e-01,NaN,2,0,1,1
22,31,1,68,NaN,NaN,1,NaN,2.937585e-01,NaN,2,0,2,1
22,32,1,83,NaN,NaN,1,NaN,2.685348e-01,NaN,0,0,2,1
22,33,1,48,NaN,NaN,1,NaN,2.520313e-01,NaN,2,1,1,1
22,34,1,48,NaN,NaN,1,NaN,1.400399e-01,NaN,0,1,1,1
22,35,1,2,NaN,NaN,1,NaN,1.607972e-01,NaN,0,1,1,1
22,36,1,15,NaN,NaN,2,NaN,2.883081e-02,NaN,1,0,1,1
22,37,1,56,NaN,NaN,1,NaN,1.355289e-04,NaN,0,1,2,1
22,38,1,107,NaN,NaN,1,NaN,1.024095e+00,NaN,2,0,3,1
22,39,1,112,NaN,NaN,1,NaN,3.929282e-01,NaN,0,0,3,1
22,40,1,140,NaN,NaN,1,NaN,2.833261e-01,NaN,0,0,3,1
22,41,1,82,NaN,NaN,1,NaN,3.623047e-01,NaN,2,1,2,1
22,42,1,80,NaN,NaN,1,NaN,2.618087e-01,NaN,1,0,2,1
22,43,1,10,NaN,NaN,2,NaN,9.893862e-01,NaN,2,0,1,1
22,44,1,135,NaN,NaN,1,NaN,5.201710e-01,NaN,0,0,3,1
22,45,1,103,NaN,NaN,1,NaN,1.251975e-01,NaN,1,0,3,1
22,46,1,51,NaN,NaN,1,NaN,2.261734e-01,NaN,1,0,2,1
22,47,1,76,NaN,NaN,1,NaN,2.517533e-01,NaN,2,1,2,1
22,48,1,99,NaN,NaN,2,NaN,3.641058e-01,NaN,2,0,3,1
22,49,1,75,NaN,NaN,1,NaN,3.964957e-02,NaN,1,1,2,1
22,50,1,38,NaN,NaN,1,NaN,4.399488e-01,NaN,1,0,1,1
22,51,1,21,NaN,NaN,1,NaN,3.765292e-01,NaN,0,0,1,1
22,52,1,37,NaN,NaN,2,NaN,2.838079e-01,NaN,2,0,1,1
22,53,1,100,NaN,NaN,2,NaN,3.546949e-01,NaN,0,0,3,1
22,54,1,52,NaN,NaN,1,NaN,3.023995e-01,NaN,2,0,2,1
22,55,1,144,NaN,NaN,1,NaN,4.684880e-01,NaN,0,1,3,1
22,56,1,17,NaN,NaN,1,NaN,3.325382e-01,NaN,0,0,1,1
22,57,1,15,NaN,NaN,1,NaN,2.574151e-01,NaN,0,0,1,1
22,58,1,19,NaN,NaN,2,NaN,3.852806e-01,NaN,2,1,1,1
22,59,1,93,NaN,NaN,1,NaN,3.561039e-01,NaN,1,0,2,1
22,60,1,132,NaN,NaN,2,NaN,2.559375e-01,NaN,0,0,3,1
22,61,1,108,NaN,NaN,2,NaN,3.515379e-01,NaN,2,0,3,1
22,62,1,4,NaN,NaN,1,NaN,1.236174e-01,NaN,1,0,1,1
22,63,1,75,NaN,NaN,1,NaN,3.532137e-01,NaN,0,1,2,1
22,64,1,9,NaN,NaN,1,NaN,3.969817e-01,NaN,0,1,1,1
22,65,1,138,NaN,NaN,1,NaN,2.073920e-01,NaN,1,0,3,1
22,66,1,116,NaN,NaN,1,NaN,8.895386e-01,NaN,0,0,3,1
22,67,1,37,NaN,NaN,2,NaN,1.442822e-04,NaN,0,0,1,1
22,68,1,55,NaN,NaN,1,NaN,1.313030e-04,NaN,0,0,2,1
22,69,1,90,NaN,NaN,1,NaN,5.209769e-02,NaN,0,1,2,1
22,70,1,61,NaN,NaN,1,NaN,4.043156e-01,NaN,0,0,2,1
22,71,1,101,NaN,NaN,2,NaN,2.700953e-01,NaN,0,0,3,1
22,72,1,22,NaN,NaN,2,NaN,2.787323e-01,NaN,2,0,1,1
22,73,1,58,NaN,NaN,1,NaN,5.208351e-02,NaN,1,1,2,1
22,74,1,59,NaN,NaN,1,NaN,2.527881e-01,NaN,2,1,2,1
22,75,1,25,NaN,NaN,1,NaN,2.929411e-01,NaN,0,0,1,1
22,76,1,9,NaN,NaN,1,NaN,2.516525e-01,NaN,2,1,1,1
22,77,1,142,NaN,NaN,2,NaN,3.396563e-01,NaN,0,0,3,1
22,78,1,133,NaN,NaN,2,NaN,2.560752e-01,NaN,0,0,3,1
22,79,1,32,NaN,NaN,1,NaN,8.834033e-02,NaN,0,0,1,1
22,80,1,122,NaN,NaN,2,NaN,3.104138e-01,NaN,1,0,3,1
22,81,1,127,NaN,NaN,1,NaN,2.283651e-01,NaN,0,0,3,1
22,82,1,118,NaN,NaN,1,NaN,1.279826e-04,NaN,1,1,3,1
22,83,1,117,NaN,NaN,2,NaN,1.103461e+00,NaN,0,1,3,1
22,84,1,24,NaN,NaN,1,NaN,3.255145e-01,NaN,0,0,1,1
22,85,1,81,NaN,NaN,2,NaN,2.074556e+00,NaN,1,0,2,1
22,86,1,33,NaN,NaN,1,NaN,1.385806e+00,NaN,1,1,1,1
22,87,1,119,NaN,NaN,2,NaN,2.444668e-01,NaN,0,0,3,1
22,88,1,86,NaN,NaN,2,NaN,2.850240e-01,NaN,0,0,2,1
22,89,1,93,NaN,NaN,1,NaN,2.596940e-01,NaN,0,0,2,1
22,90,1,121,NaN,NaN,2,NaN,1.547706e+00,NaN,1,0,3,1
22,91,1,23,NaN,NaN,2,NaN,6.303334e+00,NaN,0,0,1,1
22,92,1,123,NaN,NaN,1,NaN,1.852275e+00,NaN,2,0,3,1
22,93,1,125,NaN,NaN,1,NaN,3.482390e-01,NaN,0,0,3,1
22,94,1,45,NaN,NaN,1,NaN,1.648828e+00,NaN,0,0,1,1
22,95,1,72,NaN,NaN,1,NaN,2.002560e-01,NaN,0,0,2,1
22,96,1,30,NaN,NaN,1,NaN,9.954295e+00,NaN,0,0,1,1
22,97,1,56,NaN,NaN,1,NaN,3.414010e-01,NaN,2,1,2,1
22,98,1,87,NaN,NaN,2,NaN,2.258565e-01,NaN,1,0,2,1
22,99,1,88,NaN,NaN,2,NaN,2.859928e+00,NaN,0,1,2,1
22,100,1,126,NaN,NaN,2,NaN,9.022143e-02,NaN,2,0,3,1
22,101,1,65,NaN,NaN,2,NaN,8.131517e-02,NaN,2,1,2,1
22,102,1,85,NaN,NaN,2,NaN,2.398347e-01,NaN,0,1,2,1
22,103,1,118,NaN,NaN,1,NaN,4.162237e-01,NaN,0,1,3,1
22,104,1,36,NaN,NaN,2,NaN,9.060861e-01,NaN,0,0,1,1
22,105,1,85,NaN,NaN,1,NaN,2.718807e-01,NaN,2,1,2,1
22,106,1,140,NaN,NaN,1,NaN,3.886779e-02,NaN,1,0,3,1
22,107,1,97,NaN,NaN,2,NaN,1.836451e-01,NaN,1,0,3,1
22,108,1,120,NaN,NaN,2,NaN,1.063741e-01,NaN,2,0,3,1
22,109,1,97,NaN,NaN,1,NaN,1.313030e-04,NaN,0,0,3,1
22,110,1,60,NaN,NaN,2,NaN,1.896890e-02,NaN,0,1,2,1
22,111,1,99,NaN,NaN,1,NaN,2.365279e-01,NaN,0,0,3,1
22,112,1,30,NaN,NaN,1,NaN,2.126359e-01,NaN,1,0,1,1
22,113,1,111,NaN,NaN,1,NaN,2.263391e-02,NaN,0,0,3,1
22,114,1,74,NaN,NaN,2,NaN,1.198823e-01,NaN,2,0,2,1
22,115,1,73,NaN,NaN,2,NaN,2.207088e-01,NaN,0,0,2,1
22,116,1,20,NaN,NaN,2,NaN,4.637862e-02,NaN,0,0,1,1
22,117,1,70,NaN,NaN,2,NaN,3.264919e-01,NaN,1,0,2,1
22,118,1,67,NaN,NaN,2,NaN,2.673289e-01,NaN,1,0,2,1
22,119,1,42,NaN,NaN,2,NaN,4.035230e-01,NaN,0,0,1,1
22,120,1,144,NaN,NaN,1,NaN,3.705611e-02,NaN,1,1,3,1
22,121,1,14,NaN,NaN,2,NaN,1.331141e-04,NaN,2,1,1,1
22,122,1,40,NaN,NaN,2,NaN,1.761536e-01,NaN,0,0,1,1
22,123,1,115,NaN,NaN,2,NaN,1.315058e-01,NaN,0,0,3,1
22,124,1,77,NaN,NaN,2,NaN,8.025569e-02,NaN,0,0,2,1
22,125,1,52,NaN,NaN,1,NaN,3.093498e-02,NaN,0,0,2,1
22,126,1,44,NaN,NaN,2,NaN,2.956031e-01,NaN,2,0,1,1
22,127,1,137,NaN,NaN,2,NaN,1.019448e-01,NaN,0,0,3,1
22,128,1,78,NaN,NaN,2,NaN,1.310011e-04,NaN,0,0,2,1
22,129,1,41,NaN,NaN,2,NaN,2.308188e-01,NaN,0,0,1,1
22,130,1,71,NaN,NaN,1,NaN,1.193414e-01,NaN,1,0,2,1
22,131,1,4,NaN,NaN,1,NaN,1.090349e-01,NaN,0,0,1,1
22,132,1,64,NaN,NaN,2,NaN,1.389215e-01,NaN,0,1,2,1
22,133,1,94,NaN,NaN,2,NaN,1.282844e-04,NaN,0,0,2,1
22,134,1,1,NaN,NaN,2,NaN,1.617151e-01,NaN,1,0,1,1
22,135,1,60,NaN,NaN,1,NaN,2.136646e-02,NaN,1,1,2,1
22,136,1,105,NaN,NaN,1,NaN,1.445841e-04,NaN,2,0,3,1
22,137,1,70,NaN,NaN,1,NaN,1.294919e-04,NaN,0,0,2,1
22,138,1,66,NaN,NaN,2,NaN,9.088036e-02,NaN,1,0,2,1
22,139,1,113,NaN,NaN,2,NaN,1.857406e-01,NaN,2,0,3,1
22,140,1,31,NaN,NaN,2,NaN,2.016089e-02,NaN,1,1,1,1
22,141,1,7,NaN,NaN,1,NaN,2.138813e-01,NaN,0,0,1,1
22,142,1,128,NaN,NaN,2,NaN,1.285863e-04,NaN,0,1,3,1
22,143,1,126,NaN,NaN,2,NaN,1.614631e-01,NaN,0,0,3,1
22,144,1,35,NaN,NaN,2,NaN,3.409766e-01,NaN,1,0,1,1
22,145,1,22,NaN,NaN,1,NaN,2.577097e-01,NaN,0,0,1,1
22,146,1,128,NaN,NaN,1,NaN,5.057126e-01,NaN,1,1,3,1
22,147,1,101,NaN,NaN,1,NaN,5.520610e-02,NaN,1,0,3,1
22,148,1,18,NaN,NaN,2,NaN,2.230273e-01,NaN,0,0,1,1
22,149,1,63,NaN,NaN,2,NaN,1.316047e-04,NaN,0,1,2,1
22,150,1,68,NaN,NaN,1,NaN,2.666839e-01,NaN,0,0,2,1
22,151,1,49,NaN,NaN,1,NaN,2.504488e-01,NaN,2,0,2,1
22,152,1,141,NaN,NaN,2,NaN,1.303975e-04,NaN,0,0,3,1
22,153,1,55,NaN,NaN,1,NaN,6.874298e-02,NaN,2,0,2,1
22,154,1,14,NaN,NaN,1,NaN,1.325435e-01,NaN,0,1,1,1
22,155,1,66,NaN,NaN,1,NaN,1.445842e-04,NaN,0,0,2,1
22,156,1,78,NaN,NaN,1,NaN,1.557247e-01,NaN,2,0,2,1
22,157,1,135,NaN,NaN,1,NaN,7.663565e-03,NaN,1,0,3,1
22,158,1,74,NaN,NaN,1,NaN,8.975297e-02,NaN,0,0,2,1
22,159,1,43,NaN,NaN,2,NaN,9.681897e-01,NaN,0,0,1,1
22,160,1,81,NaN,NaN,1,NaN,3.552104e-01,NaN,0,0,2,1
22,161,1,16,NaN,NaN,1,NaN,1.255679e-04,NaN,0,1,1,1
22,162,1,91,NaN,NaN,1,NaN,2.496667e-01,NaN,1,0,2,1
22,163,1,1,NaN,NaN,1,NaN,1.301083e-01,NaN,0,0,1,1
22,164,1,32,NaN,NaN,1,NaN,3.896136e-02,NaN,1,0,1,1
22,165,1,39,NaN,NaN,2,NaN,1.112649e-01,NaN,1,0,1,1
22,166,1,130,NaN,NaN,2,NaN,2.294859e-01,NaN,2,0,3,1
22,167,1,8,NaN,NaN,1,NaN,1.400112e-02,NaN,0,1,1,1
22,168,1,90,NaN,NaN,1,NaN,1.756855e-01,NaN,2,1,2,1
22,169,1,120,NaN,NaN,1,NaN,9.117617e-02,NaN,0,0,3,1
22,170,1,84,NaN,NaN,2,NaN,6.564242e-02,NaN,1,0,2,1
22,171,1,50,NaN,NaN,2,NaN,2.333513e-01,NaN,2,0,2,1
22,172,1,102,NaN,NaN,2,NaN,9.016800e-02,NaN,2,0,3,1
22,173,1,129,NaN,NaN,2,NaN,4.166590e-01,NaN,2,1,3,1
22,174,1,121,NaN,NaN,1,NaN,2.261650e-01,NaN,0,0,3,1
22,175,1,46,NaN,NaN,2,NaN,9.145870e-02,NaN,0,1,1,1
22,176,1,142,NaN,NaN,1,NaN,2.419536e-01,NaN,2,0,3,1
22,177,1,112,NaN,NaN,1,NaN,1.098820e+00,NaN,1,0,3,1
22,178,1,51,NaN,NaN,1,NaN,2.568256e-01,NaN,0,0,2,1
22,179,1,134,NaN,NaN,2,NaN,2.324189e-01,NaN,0,1,3,1
22,180,1,96,NaN,NaN,2,NaN,4.959509e-02,NaN,0,0,2,1
22,181,1,133,NaN,NaN,2,NaN,2.601519e-02,NaN,2,0,3,1
22,182,1,116,NaN,NaN,1,NaN,1.391639e-01,NaN,2,0,3,1
22,183,1,5,NaN,NaN,2,NaN,2.555765e-01,NaN,0,0,1,1
22,184,1,108,NaN,NaN,1,NaN,2.155931e-01,NaN,0,0,3,1
22,185,1,132,NaN,NaN,1,NaN,1.687886e-01,NaN,1,0,3,1
22,186,1,143,NaN,NaN,2,NaN,1.300955e-04,NaN,0,0,3,1
22,187,1,54,NaN,NaN,1,NaN,1.347144e-01,NaN,1,0,2,1
22,188,1,131,NaN,NaN,2,NaN,1.361325e-04,NaN,0,1,3,1
22,189,1,31,NaN,NaN,1,NaN,1.533377e-04,NaN,0,1,1,1
22,190,1,43,NaN,NaN,1,NaN,7.205786e-02,NaN,1,0,1,1
22,191,1,73,NaN,NaN,1,NaN,7.116318e-03,NaN,1,0,2,1
22,192,1,106,NaN,NaN,2,NaN,1.449180e-01,NaN,0,0,3,1
22,193,1,109,NaN,NaN,1,NaN,2.963583e-02,NaN,2,1,3,1
22,194,1,114,NaN,NaN,1,NaN,1.106473e-01,NaN,1,0,3,1
22,195,1,5,NaN,NaN,1,NaN,1.243596e-01,NaN,1,0,1,1
22,196,1,76,NaN,NaN,1,NaN,1.657134e-04,NaN,0,1,2,1
22,197,1,26,NaN,NaN,2,NaN,9.153265e-02,NaN,1,0,1,1
22,198,1,46,NaN,NaN,1,NaN,2.741479e-01,NaN,1,1,1,1
22,199,1,6,NaN,NaN,2,NaN,4.097431e-01,NaN,1,0,1,1
22,200,1,119,NaN,NaN,2,NaN,1.630541e-01,NaN,1,0,3,1
22,201,1,134,NaN,NaN,1,NaN,1.310011e-04,NaN,1,1,3,1
22,202,1,104,NaN,NaN,2,NaN,7.338145e-02,NaN,0,0,3,1
22,203,1,65,NaN,NaN,2,NaN,3.759656e-01,NaN,0,1,2,1
22,204,1,110,NaN,NaN,2,NaN,5.138866e-02,NaN,1,1,3,1
22,205,1,33,NaN,NaN,2,NaN,1.291900e-04,NaN,0,1,1,1
22,206,1,87,NaN,NaN,2,NaN,1.297937e-04,NaN,0,0,2,1
22,207,1,36,NaN,NaN,2,NaN,1.521204e-01,NaN,2,0,1,1
22,208,1,94,NaN,NaN,1,NaN,2.685571e-01,NaN,1,0,2,1
22,209,1,50,NaN,NaN,1,NaN,1.524062e+00,NaN,0,0,2,1
22,210,1,27,NaN,NaN,2,NaN,4.009452e-01,NaN,2,0,1,1
22,211,1,25,NaN,NaN,1,NaN,1.233454e-01,NaN,1,0,1,1
22,212,1,41,NaN,NaN,1,NaN,6.471244e-02,NaN,2,0,1,1
22,213,1,122,NaN,NaN,2,NaN,1.765189e-01,NaN,0,0,3,1
22,214,1,124,NaN,NaN,2,NaN,4.836630e-01,NaN,1,0,3,1
22,215,1,39,NaN,NaN,1,NaN,1.143570e-01,NaN,0,0,1,1
22,216,1,124,NaN,NaN,1,NaN,7.144028e-02,NaN,0,0,3,1
22,217,1,27,NaN,NaN,1,NaN,3.348859e-01,NaN,0,0,1,1
22,218,1,28,NaN,NaN,2,NaN,3.584963e-02,NaN,2,0,1,1
22,219,1,12,NaN,NaN,1,NaN,1.331141e-04,NaN,0,0,1,1
22,220,1,3,NaN,NaN,1,NaN,2.228459e-01,NaN,0,0,1,1
22,221,1,17,NaN,NaN,1,NaN,1.593686e-02,NaN,2,0,1,1
22,222,1,29,NaN,NaN,1,NaN,2.017991e-01,NaN,0,0,1,1
22,223,1,137,NaN,NaN,1,NaN,1.340195e-04,NaN,2,0,3,1
22,224,1,2,NaN,NaN,1,NaN,1.319067e-04,NaN,1,1,1,1
22,225,1,35,NaN,NaN,1,NaN,1.602801e-04,NaN,0,0,1,1
22,226,1,138,NaN,NaN,1,NaN,1.343214e-04,NaN,0,0,3,1
22,227,1,110,NaN,NaN,1,NaN,1.322086e-04,NaN,0,1,3,1
22,228,1,62,NaN,NaN,2,NaN,1.346233e-04,NaN,2,0,2,1
22,229,1,79,NaN,NaN,2,NaN,1.340195e-04,NaN,2,0,2,1
22,230,1,136,NaN,NaN,2,NaN,1.328122e-04,NaN,2,0,3,1
22,231,1,141,NaN,NaN,2,NaN,1.261716e-04,NaN,1,0,3,1
22,232,1,72,NaN,NaN,1,NaN,1.711466e-04,NaN,2,0,2,1
22,233,1,57,NaN,NaN,1,NaN,1.349251e-04,NaN,1,1,2,1
22,234,1,127,NaN,NaN,2,NaN,2.336287e-04,NaN,1,0,3,1
22,235,1,92,NaN,NaN,2,NaN,1.346233e-04,NaN,1,0,2,1
22,236,1,103,NaN,NaN,1,NaN,1.358307e-04,NaN,0,0,3,1
22,237,1,98,NaN,NaN,2,NaN,1.322085e-04,NaN,0,0,3,1
22,238,1,136,NaN,NaN,1,NaN,1.322085e-04,NaN,0,0,3,1
22,239,1,98,NaN,NaN,1,NaN,1.500174e-04,NaN,2,0,3,1
22,240,1,89,NaN,NaN,2,NaN,1.300956e-04,NaN,0,0,2,1
22,241,1,20,NaN,NaN,1,NaN,1.303975e-04,NaN,1,0,1,1
22,242,1,84,NaN,NaN,1,NaN,1.325103e-04,NaN,0,0,2,1
22,243,1,47,NaN,NaN,2,NaN,1.325103e-04,NaN,0,0,1,1
22,244,1,95,NaN,NaN,2,NaN,1.306992e-04,NaN,1,1,2,1
22,245,1,10,NaN,NaN,1,NaN,1.313030e-04,NaN,0,0,1,1
22,246,1,11,NaN,NaN,1,NaN,1.560543e-04,NaN,0,0,1,1
22,247,1,92,NaN,NaN,1,NaN,1.306992e-04,NaN,0,0,2,1
22,248,1,28,NaN,NaN,1,NaN,1.358306e-04,NaN,0,0,1,1
22,249,1,130,NaN,NaN,1,NaN,1.313030e-04,NaN,0,0,3,1
22,250,1,67,NaN,NaN,1,NaN,1.294919e-04,NaN,0,0,2,1
22,251,1,53,NaN,NaN,2,NaN,1.334159e-04,NaN,0,1,2,1
22,252,1,96,NaN,NaN,1,NaN,1.288882e-04,NaN,2,0,2,1
22,253,1,26,NaN,NaN,1,NaN,1.599783e-04,NaN,0,0,1,1
22,254,1,88,NaN,NaN,2,NaN,1.306992e-04,NaN,1,1,2,1
22,255,1,69,NaN,NaN,2,NaN,1.382454e-04,NaN,0,0,2,1
22,256,1,61,NaN,NaN,1,NaN,1.328122e-04,NaN,2,0,2,1
22,257,1,45,NaN,NaN,2,NaN,1.306992e-04,NaN,1,0,1,1
22,258,1,69,NaN,NaN,1,NaN,1.270771e-04,NaN,2,0,2,1
22,259,1,47,NaN,NaN,1,NaN,1.325103e-04,NaN,2,0,1,1
22,260,1,117,NaN,NaN,2,NaN,1.500174e-04,NaN,2,1,3,1
22,261,1,83,NaN,NaN,2,NaN,1.294919e-04,NaN,2,0,2,1
22,262,1,80,NaN,NaN,2,NaN,1.997692e+00,NaN,0,0,2,1
22,263,1,58,NaN,NaN,1,NaN,1.352270e-04,NaN,0,1,2,1
22,264,1,115,NaN,NaN,1,NaN,1.310010e-04,NaN,2,0,3,1
22,265,1,62,NaN,NaN,1,NaN,1.518284e-04,NaN,0,0,2,1
22,266,1,6,NaN,NaN,1,NaN,1.343214e-04,NaN,0,0,1,1
22,267,1,23,NaN,NaN,2,NaN,1.282846e-04,NaN,1,0,1,1
22,268,1,86,NaN,NaN,1,NaN,1.297938e-04,NaN,2,0,2,1
22,269,1,129,NaN,NaN,1,NaN,1.349251e-04,NaN,0,1,3,1
22,270,1,131,NaN,NaN,1,NaN,1.310011e-04,NaN,2,1,3,1
22,271,1,16,NaN,NaN,2,NaN,1.294919e-04,NaN,2,1,1,1
22,272,1,89,NaN,NaN,2,NaN,1.497156e-04,NaN,2,0,2,1
22,273,1,125,NaN,NaN,2,NaN,1.313030e-04,NaN,1,0,3,1
22,274,1,40,NaN,NaN,2,NaN,1.325103e-04,NaN,2,0,1,1
22,275,1,42,NaN,NaN,1,NaN,1.294919e-04,NaN,2,0,1,1
22,276,1,44,NaN,NaN,1,NaN,1.303974e-04,NaN,0,0,1,1
22,277,1,19,NaN,NaN,1,NaN,1.319066e-04,NaN,0,1,1,1
22,278,1,64,NaN,NaN,1,NaN,1.279827e-04,NaN,1,1,2,1
22,279,1,102,NaN,NaN,1,NaN,1.651096e-04,NaN,0,0,3,1
22,280,1,143,NaN,NaN,1,NaN,1.325104e-04,NaN,2,0,3,1
22,281,1,95,NaN,NaN,1,NaN,1.252660e-04,NaN,0,1,2,1
22,282,1,54,NaN,NaN,1,NaN,1.288882e-04,NaN,0,0,2,1
22,283,1,139,NaN,NaN,1,NaN,1.273790e-04,NaN,0,0,3,1
22,284,1,79,NaN,NaN,1,NaN,1.424713e-04,NaN,0,0,2,1
22,285,1,113,NaN,NaN,1,NaN,1.316048e-04,NaN,0,0,3,1
22,286,1,106,NaN,NaN,1,NaN,1.352270e-04,NaN,2,0,3,1
22,287,1,18,NaN,NaN,2,NaN,1.282844e-04,NaN,1,0,1,1
22,288,1,77,NaN,NaN,1,NaN,1.334159e-04,NaN,1,0,2,1
22,425,2,114,17,1,1,1,1.051584e+00,NaN,1,0,3,1
22,426,2,119,47,2,2,1,1.423620e+00,NaN,1,0,3,1
22,427,2,38,20,2,2,1,1.067802e+00,NaN,1,0,1,1
22,428,2,134,11,2,2,1,1.862016e+00,NaN,1,1,3,1
22,429,2,93,18,2,2,1,1.433034e+00,NaN,1,0,2,1
22,430,2,35,58,2,2,1,8.366564e-01,NaN,1,0,1,1
22,431,2,103,68,2,2,1,8.883240e-01,NaN,1,0,3,1
22,432,2,92,46,2,2,1,6.340128e-01,NaN,1,0,2,1
22,433,2,30,53,1,1,1,1.869866e+00,NaN,1,0,1,1
22,434,2,122,49,1,1,1,1.391965e+00,NaN,1,0,3,1
22,435,2,31,57,2,2,1,2.157197e+00,NaN,1,1,1,1
22,436,2,67,54,1,1,1,7.564022e-01,NaN,1,0,2,1
22,437,2,1,60,2,2,1,9.868341e-01,NaN,1,0,1,1
22,438,2,110,69,2,2,1,1.256927e+00,NaN,1,1,3,1
22,439,2,77,12,1,1,1,5.716197e-01,NaN,1,0,2,1
22,440,2,135,23,1,1,1,5.936318e-01,NaN,1,0,3,1
22,441,2,64,33,2,2,1,7.352335e-01,NaN,1,1,2,1
22,442,2,13,71,1,1,1,8.152776e-01,NaN,1,0,1,1
22,443,2,58,15,1,1,1,2.571604e+00,NaN,1,1,2,1
22,444,2,84,72,2,2,1,8.101800e-01,NaN,1,0,2,1
22,445,2,66,22,1,1,1,1.126334e+00,NaN,1,0,2,1
22,446,2,32,61,2,2,1,1.007092e+00,NaN,1,0,1,1
22,447,2,112,36,1,1,1,1.532023e+00,NaN,1,0,3,1
22,448,2,91,50,2,2,1,5.156385e-01,NaN,1,0,2,1
22,449,3,38,20,2,2,1,1.035660e+00,NaN,1,0,1,1
22,450,3,64,33,2,2,1,3.675939e-01,NaN,1,1,2,1
22,451,3,135,23,1,1,1,3.982407e-01,NaN,1,0,3,1
22,452,3,112,36,1,1,1,5.714782e-01,NaN,1,0,3,1
22,453,3,134,11,2,2,1,1.226709e+00,NaN,1,1,3,1
22,454,3,58,15,2,2,1,5.661367e-01,NaN,1,1,2,1
22,455,3,67,54,1,1,1,5.561329e-01,NaN,1,0,2,1
22,456,3,119,47,2,2,1,5.393892e-01,NaN,1,0,3,1
22,457,3,13,71,1,1,1,1.780240e+00,NaN,1,0,1,1
22,458,3,1,60,2,2,1,6.328341e-01,NaN,1,0,1,1
22,459,3,32,61,2,2,1,5.729792e-01,NaN,1,0,1,1
22,460,3,110,69,2,2,1,6.989676e-01,NaN,1,1,3,1
22,461,3,66,22,1,1,1,5.961142e-01,NaN,1,0,2,1
22,462,3,92,46,2,2,1,6.177943e-01,NaN,1,0,2,1
22,463,3,30,53,2,2,1,1.886104e+00,NaN,1,0,1,1
22,464,3,93,18,2,2,1,7.200597e-01,NaN,1,0,2,1
22,465,3,103,68,2,2,1,8.160763e-01,NaN,1,0,3,1
22,466,3,122,49,2,2,1,2.300753e+00,NaN,1,0,3,1
22,467,3,84,72,1,1,1,1.726011e+00,NaN,1,0,2,1
22,468,3,114,17,2,2,1,7.656411e-01,NaN,1,0,3,1
22,469,3,35,58,2,2,1,1.996539e+00,NaN,1,0,1,1
22,470,3,31,57,1,1,1,1.105790e+00,NaN,1,1,1,1
22,471,3,91,50,2,2,1,4.505665e-01,NaN,1,0,2,1
22,472,3,77,12,1,1,1,6.380575e-01,NaN,1,0,2,1
22,497,2,132,29,2,2,1,1.709391e+00,NaN,1,0,3,2
22,498,2,54,41,1,1,1,1.493986e+00,NaN,1,0,2,2
22,499,2,39,64,1,1,1,2.103611e+00,NaN,1,0,1,2
22,500,2,51,32,2,2,1,1.536339e+00,NaN,1,0,2,2
22,501,2,15,3,1,1,1,1.599792e+00,NaN,1,0,1,2
22,502,2,11,16,1,1,1,8.691039e-01,NaN,1,0,1,2
22,503,2,95,43,2,2,1,1.759518e+00,NaN,1,1,2,2
22,504,2,121,6,1,1,1,9.104384e-01,NaN,1,0,3,2
22,505,2,23,66,2,2,1,1.071249e+00,NaN,1,0,1,2
22,506,2,100,35,1,1,1,1.409754e+00,NaN,1,0,3,2
22,507,2,18,13,1,1,1,7.827295e-01,NaN,1,0,1,2
22,508,2,138,4,2,2,1,1.012684e+00,NaN,1,0,3,2
22,509,2,70,25,2,2,1,7.771366e-01,NaN,1,0,2,2
22,510,2,97,59,1,1,1,9.911855e-01,NaN,1,0,3,2
22,511,2,141,37,2,2,1,2.468903e+00,NaN,1,0,3,2
22,512,2,124,27,1,1,1,1.175408e+00,NaN,1,0,3,2
22,513,2,57,14,2,2,1,1.189764e+00,NaN,1,1,2,2
22,514,2,125,55,2,2,1,1.595323e+00,NaN,1,0,3,2
22,515,2,33,44,1,1,1,9.760117e-01,NaN,1,1,1,2
22,516,2,140,65,1,1,1,1.718453e+00,NaN,1,0,3,2
22,517,2,87,9,2,2,1,2.318681e+00,NaN,1,0,2,2
22,518,2,80,45,1,2,0,9.349075e-01,NaN,1,0,2,2
22,519,2,111,26,2,2,1,1.007234e+00,NaN,1,0,3,2
22,520,2,94,63,2,2,1,1.619836e+00,NaN,1,0,2,2
22,521,3,125,55,1,1,1,1.798627e+00,NaN,1,0,3,2
22,522,3,51,32,2,2,1,4.840147e-01,NaN,1,0,2,2
22,523,3,121,6,2,2,1,8.539395e-01,NaN,1,0,3,2
22,524,3,138,4,1,1,1,1.704813e+00,NaN,1,0,3,2
22,525,3,100,35,2,2,1,1.185580e+00,NaN,1,0,3,2
22,526,3,18,13,1,1,1,9.037033e-01,NaN,1,0,1,2
22,527,3,141,37,1,1,1,9.203341e-01,NaN,1,0,3,2
22,528,3,94,63,2,2,1,1.296951e+00,NaN,1,0,2,2
22,529,3,87,9,1,1,1,1.018066e+00,NaN,1,0,2,2
22,530,3,54,41,2,2,1,1.518180e+00,NaN,1,0,2,2
22,531,3,39,64,2,2,1,1.046567e+00,NaN,1,0,1,2
22,532,3,80,45,1,1,1,9.055476e-01,NaN,1,0,2,2
22,533,3,132,29,1,0,0,3.499706e+00,NaN,1,0,3,2
22,534,3,23,66,2,2,1,6.354233e-01,NaN,1,0,1,2
22,535,3,15,3,2,2,1,1.151326e+00,NaN,1,0,1,2
22,536,3,95,43,1,1,1,9.505543e-01,NaN,1,1,2,2
22,537,3,70,25,1,1,1,4.937595e-01,NaN,1,0,2,2
22,538,3,124,27,2,2,1,6.567285e-01,NaN,1,0,3,2
22,539,3,11,16,1,1,1,5.944824e-01,NaN,1,0,1,2
22,540,3,111,26,2,2,1,7.754363e-01,NaN,1,0,3,2
22,541,3,33,44,1,1,1,5.260066e-01,NaN,1,1,1,2
22,542,3,97,59,1,1,1,9.901619e-01,NaN,1,0,3,2
22,543,3,140,65,2,2,1,1.180094e+00,NaN,1,0,3,2
22,544,3,57,14,1,1,1,4.657494e-01,NaN,1,1,2,2
22,569,2,75,31,2,2,1,6.159485e-01,NaN,1,1,2,3
22,570,2,71,48,1,1,1,5.801442e-01,NaN,1,0,2,3
22,571,2,144,70,1,1,1,1.026304e+00,NaN,1,1,3,3
22,572,2,5,1,2,1,0,1.150449e+00,NaN,1,0,1,3
22,573,2,25,21,2,2,1,8.858754e-01,NaN,1,0,1,3
22,574,2,53,52,2,2,1,7.597038e-01,NaN,1,1,2,3
22,575,2,118,30,2,2,1,8.147101e-01,NaN,1,1,3,3
22,576,2,88,42,1,1,1,6.749473e-01,NaN,1,1,2,3
22,577,2,81,19,2,2,1,7.333650e-01,NaN,1,0,2,3
22,578,2,60,8,2,1,0,9.651848e-01,NaN,1,1,2,3
22,579,2,139,2,1,1,1,7.879626e-01,NaN,1,0,3,3
22,580,2,4,40,1,1,1,8.653644e-01,NaN,1,0,1,3
22,581,2,43,10,1,1,1,8.442539e-01,NaN,1,0,1,3
22,582,2,127,7,2,2,1,1.111920e+00,NaN,1,0,3,3
22,583,2,6,56,1,1,1,9.362399e-01,NaN,1,0,1,3
22,584,2,128,5,2,2,1,6.160662e-01,NaN,1,1,3,3
22,585,2,45,67,2,1,0,1.037045e+00,NaN,1,0,1,3
22,586,2,2,51,2,1,0,5.604161e-01,NaN,1,1,1,3
22,587,2,73,38,1,2,0,6.071431e-01,NaN,1,0,2,3
22,588,2,46,62,2,1,0,7.162136e-01,NaN,1,1,1,3
22,589,2,101,39,2,2,1,8.371194e-01,NaN,1,0,3,3
22,590,2,26,34,1,1,1,1.032528e+00,NaN,1,0,1,3
22,591,2,34,28,2,2,1,7.965538e-01,NaN,1,1,1,3
22,592,2,20,24,1,1,1,6.656006e-01,NaN,1,0,1,3
22,593,3,139,2,2,2,1,9.425521e-01,NaN,1,0,3,3
22,594,3,81,19,1,1,1,5.984587e-01,NaN,1,0,2,3
22,595,3,6,56,1,1,1,5.876179e-01,NaN,1,0,1,3
22,596,3,88,42,1,1,1,5.292010e-01,NaN,1,1,2,3
22,597,3,144,70,1,1,1,5.451614e-01,NaN,1,1,3,3
22,598,3,45,67,1,1,1,1.176485e+00,NaN,1,0,1,3
22,599,3,34,28,2,2,1,9.588684e-01,NaN,1,1,1,3
22,600,3,127,7,2,2,1,6.138679e-01,NaN,1,0,3,3
22,601,3,25,21,2,2,1,7.703007e-01,NaN,1,0,1,3
22,602,3,128,5,2,2,1,4.486100e-01,NaN,1,1,3,3
22,603,3,71,48,1,1,1,5.078542e-01,NaN,1,0,2,3
22,604,3,43,10,1,1,1,7.007663e-01,NaN,1,0,1,3
22,605,3,4,40,1,1,1,4.381211e-01,NaN,1,0,1,3
22,606,3,46,62,2,2,1,5.538685e-01,NaN,1,1,1,3
22,607,3,101,39,1,1,1,9.526709e-01,NaN,1,0,3,3
22,608,3,60,8,1,1,1,4.395157e-01,NaN,1,1,2,3
22,609,3,20,24,2,2,1,5.709831e-01,NaN,1,0,1,3
22,610,3,73,38,1,1,1,8.252448e-01,NaN,1,0,2,3
22,611,3,53,52,2,2,1,5.418287e-01,NaN,1,1,2,3
22,612,3,118,30,2,2,1,7.016462e-01,NaN,1,1,3,3
22,613,3,26,34,1,2,0,8.464815e-01,NaN,1,0,1,3
22,614,3,5,1,1,1,1,8.181780e-01,NaN,1,0,1,3
22,615,3,2,51,1,1,1,8.787594e-01,NaN,1,1,1,3
22,616,3,75,31,1,1,1,5.924066e-01,NaN,1,1,2,3
22,641,4,52,53,1,1,1,1.067291e+00,NaN,2,0,2,1
22,642,4,89,26,2,2,1,9.243659e-01,NaN,2,0,2,1
22,643,4,28,37,1,1,1,6.206163e-01,NaN,2,0,1,1
22,644,4,9,42,1,1,1,8.488452e-01,NaN,2,1,1,1
22,645,4,47,55,1,1,1,9.004549e-01,NaN,2,0,1,1
22,646,4,19,33,2,2,1,1.309564e+00,NaN,2,1,1,1
22,647,4,104,1,1,1,1,6.785740e-01,NaN,2,0,3,1
22,648,4,29,68,1,1,1,7.765812e-01,NaN,2,0,1,1
22,649,4,8,31,1,1,1,5.986422e-01,NaN,2,1,1,1
22,650,4,136,45,1,1,1,7.558565e-01,NaN,2,0,3,1
22,651,4,107,40,2,2,1,7.307994e-01,NaN,2,0,3,1
22,652,4,16,8,1,1,1,6.829127e-01,NaN,2,1,1,1
22,653,4,116,20,2,2,1,9.406713e-01,NaN,2,0,3,1
22,654,4,56,51,1,1,1,4.843691e-01,NaN,2,1,2,1
22,655,4,76,30,1,1,1,6.939850e-01,NaN,2,1,2,1
22,656,4,48,5,2,2,1,9.276213e-01,NaN,2,1,1,1
22,657,4,113,61,1,1,1,7.037117e-01,NaN,2,0,3,1
22,658,4,7,48,2,1,0,6.006956e-01,NaN,2,0,1,1
22,659,4,82,69,2,2,1,7.177023e-01,NaN,2,1,2,1
22,660,4,106,34,2,2,1,8.147563e-01,NaN,2,0,3,1
22,661,4,63,44,2,2,1,8.193452e-01,NaN,2,1,2,1
22,662,4,69,58,1,1,1,8.395411e-01,NaN,2,0,2,1
22,663,4,50,3,1,1,1,8.194808e-01,NaN,2,0,2,1
22,664,4,129,43,2,2,1,9.273656e-01,NaN,2,1,3,1
22,689,4,21,18,1,1,1,7.765701e-01,NaN,2,0,1,2
22,690,4,126,19,2,2,1,9.511924e-01,NaN,2,0,3,2
22,691,4,12,63,1,1,1,6.382754e-01,NaN,2,0,1,2
22,692,4,42,4,2,1,0,7.218991e-01,NaN,2,0,1,2
22,693,4,133,54,2,2,1,8.584370e-01,NaN,2,0,3,2
22,694,4,78,7,2,2,1,6.611916e-01,NaN,2,0,2,2
22,695,4,61,21,1,1,1,6.720870e-01,NaN,2,0,2,2
22,696,4,22,25,2,1,0,6.901721e-01,NaN,2,0,1,2
22,697,4,142,50,2,2,1,1.291546e+00,NaN,2,0,3,2
22,698,4,137,46,1,1,1,5.895385e-01,NaN,2,0,3,2
22,699,4,90,11,1,1,1,8.189414e-01,NaN,2,1,2,2
22,700,4,37,23,1,1,1,1.015879e+00,NaN,2,0,1,2
22,701,4,120,72,1,1,1,1.388312e+00,NaN,2,0,3,2
22,702,4,98,16,2,2,1,1.321834e+00,NaN,2,0,3,2
22,703,4,36,2,1,1,1,6.980364e-01,NaN,2,0,1,2
22,704,4,85,70,2,2,1,6.352470e-01,NaN,2,1,2,2
22,705,4,123,9,1,1,1,1.255234e+00,NaN,2,0,3,2
22,706,4,143,32,2,2,1,1.049752e+00,NaN,2,0,3,2
22,707,4,3,38,1,1,1,5.650467e-01,NaN,2,0,1,2
22,708,4,105,60,1,1,1,9.323256e-01,NaN,2,0,3,2
22,709,4,131,15,1,1,1,7.799121e-01,NaN,2,1,3,2
22,710,4,96,29,2,2,1,4.898406e-01,NaN,2,0,2,2
22,711,4,108,56,1,1,1,8.993495e-01,NaN,2,0,3,2
22,712,4,40,65,2,2,1,9.486765e-01,NaN,2,0,1,2
22,737,4,72,59,1,1,1,4.861315e-01,NaN,2,0,2,3
22,738,4,44,39,1,1,1,1.078598e+00,NaN,2,0,1,3
22,739,4,27,35,2,2,1,6.812707e-01,NaN,2,0,1,3
22,740,4,117,14,1,1,1,1.074369e+00,NaN,2,1,3,3
22,741,4,102,24,2,2,1,1.356495e+00,NaN,2,0,3,3
22,742,4,59,62,1,1,1,6.751453e-01,NaN,2,1,2,3
22,743,4,41,47,2,1,0,7.575652e-01,NaN,2,0,1,3
22,744,4,74,17,1,1,1,5.721875e-01,NaN,2,0,2,3
22,745,4,62,66,1,1,1,4.025281e-01,NaN,2,0,2,3
22,746,4,79,6,1,1,1,4.554562e-01,NaN,2,0,2,3
22,747,4,24,49,1,1,1,6.507100e-01,NaN,2,0,1,3
22,748,4,14,52,1,1,1,5.580530e-01,NaN,2,1,1,3
22,749,4,99,67,2,2,1,9.091245e-01,NaN,2,0,3,3
22,750,4,10,41,2,2,1,1.133651e+00,NaN,2,0,1,3
22,751,4,49,64,1,1,1,1.173802e+00,NaN,2,0,2,3
22,752,4,86,27,1,1,1,8.996541e-01,NaN,2,0,2,3
22,753,4,68,71,2,2,1,5.010581e-01,NaN,2,0,2,3
22,754,4,55,13,2,2,1,7.024826e-01,NaN,2,0,2,3
22,755,4,115,10,2,2,1,1.247307e+00,NaN,2,0,3,3
22,756,4,83,36,2,2,1,6.430120e-01,NaN,2,0,2,3
22,757,4,17,22,2,1,0,9.982276e-01,NaN,2,0,1,3
22,758,4,130,12,2,2,1,1.083986e+00,NaN,2,0,3,3
22,759,4,109,57,2,2,1,6.215906e-01,NaN,2,1,3,3
22,760,4,65,28,2,2,1,8.898238e-01,NaN,2,1,2,3
22,761,5,1.384200e+02,4,3,0,0,2.500048e+00,1,1,0,3.100000e+00,1
22,762,5,7.107000e+01,48,2,2,1,7.208366e-01,1,1,0,2.100000e+00,1
22,763,5,1.014400e+02,39,3,3,1,5.620829e-01,1,1,0,3.100000e+00,1
22,764,5,2.706000e+01,34,1,1,1,3.315019e-01,1,1,0,1.300000e+00,1
22,765,5,1.329600e+02,29,3,3,1,3.089196e-01,1,1,0,3.200000e+00,1
22,766,5,1.248600e+02,27,3,2,0,2.222706e-01,1,1,0,3.200000e+00,1
22,767,5,1.393600e+02,2,3,3,1,2.640635e-01,1,1,0,3.100000e+00,1
22,768,5,2.050000e+00,60,1,1,1,2.486724e-01,1,1,0,1.300000e+00,1
22,769,5,8.520000e+01,72,2,2,1,2.984402e-01,1,1,0,2.300000e+00,1
22,770,5,1.329600e+02,29,3,3,1,2.914289e-01,2,1,0,3.200000e+00,1
22,771,5,2.561000e+01,21,1,1,1,2.532085e-01,1,1,0,1.200000e+00,1
22,772,5,7.107000e+01,48,2,2,1,7.186009e-01,2,1,0,2.100000e+00,1
22,773,5,8.823000e+01,9,2,2,1,3.835429e-01,1,1,0,2.300000e+00,1
22,774,5,3.569000e+01,58,1,1,1,2.571162e-01,1,1,0,1.200000e+00,1
22,775,5,9.412000e+01,63,2,2,1,3.226201e-01,1,1,0,2.100000e+00,1
22,776,5,1.147400e+02,17,3,3,1,2.919631e-01,1,1,0,3.200000e+00,1
22,777,5,2.706000e+01,34,1,1,1,3.171410e-01,2,1,0,1.300000e+00,1
22,778,5,9.321000e+01,18,2,2,1,3.583397e-01,1,1,0,2.100000e+00,1
22,779,5,2.050000e+00,60,1,1,1,2.561866e-01,2,1,0,1.300000e+00,1
22,780,5,1.550000e+01,3,1,1,1,2.416889e-01,1,1,0,1.200000e+00,1
22,781,5,1.393600e+02,2,3,3,1,2.348838e-01,2,1,0,3.100000e+00,1
22,782,5,1.194100e+02,47,3,3,1,2.776327e-01,1,1,0,3.100000e+00,1
22,783,5,3.916000e+01,20,1,1,1,2.459175e-01,1,1,0,1.300000e+00,1
22,784,5,1.855000e+01,13,1,1,1,4.474237e-01,1,1,0,1.200000e+00,1
22,785,5,3.313000e+01,61,1,1,1,3.203572e-01,1,1,0,1.300000e+00,1
22,786,5,5.410000e+01,41,2,2,1,2.496193e-01,1,1,0,2.100000e+00,1
22,787,5,9.321000e+01,18,2,2,1,3.305964e-01,2,1,0,2.100000e+00,1
22,788,5,8.520000e+01,72,2,2,1,2.280201e-01,2,1,0,2.300000e+00,1
22,789,5,1.147400e+02,17,3,3,1,2.454568e-01,2,1,0,3.200000e+00,1
22,790,5,1.277800e+02,7,3,3,1,2.628275e-01,1,1,0,3.200000e+00,1
22,791,5,7.830000e+01,12,2,1,0,2.880739e-01,1,1,0,2.300000e+00,1
22,792,5,2.102000e+01,24,1,1,1,2.653059e-01,1,1,0,1.300000e+00,1
22,793,5,6.040000e+00,1,1,1,1,2.421664e-01,1,1,0,1.300000e+00,1
22,794,5,9.321000e+01,18,2,2,1,3.157178e-01,3,1,0,2.100000e+00,1
22,795,5,1.014400e+02,39,3,1,0,2.613460e-01,2,1,0,3.100000e+00,1
22,796,5,3.949000e+01,64,1,3,0,2.381555e-01,1,1,0,1.200000e+00,1
22,797,5,1.393600e+02,2,3,3,1,3.117247e-01,3,1,0,3.100000e+00,1
22,798,5,9.772000e+01,59,3,3,1,3.611595e-01,1,1,0,3.200000e+00,1
22,799,5,1.412800e+02,37,3,3,1,2.102704e-01,1,1,0,3.100000e+00,1
22,800,5,6.040000e+00,1,1,1,1,2.518013e-01,2,1,0,1.300000e+00,1
22,801,5,9.772000e+01,59,3,3,1,2.290965e-01,2,1,0,3.200000e+00,1
22,802,5,1.277800e+02,7,3,3,1,2.064384e-01,2,1,0,3.200000e+00,1
22,803,5,3.916000e+01,20,1,1,1,2.153969e-01,2,1,0,1.300000e+00,1
22,804,5,1.128300e+02,36,3,3,1,2.485339e-01,1,1,0,3.200000e+00,1
22,805,5,1.032900e+02,68,3,3,1,3.302064e-01,1,1,0,3.100000e+00,1
22,806,5,2.362000e+01,66,1,1,1,2.273893e-01,1,1,0,1.200000e+00,1
22,807,5,9.412000e+01,63,2,2,1,2.289401e-01,2,1,0,2.100000e+00,1
22,808,5,1.368000e+01,71,1,1,1,2.700630e-01,1,1,0,1.200000e+00,1
22,809,5,5.243000e+01,32,2,2,1,2.231233e-01,1,1,0,2.300000e+00,1
22,810,5,2.362000e+01,66,1,1,1,2.727908e-01,2,1,0,1.200000e+00,1
22,811,5,5.070000e+00,40,1,1,1,2.340664e-01,1,1,0,1.300000e+00,1
22,812,5,5.243000e+01,32,2,2,1,5.242752e-01,2,1,0,2.300000e+00,1
22,813,5,8.520000e+01,72,2,2,1,3.563040e-01,3,1,0,2.300000e+00,1
22,814,5,8.226000e+01,19,2,2,1,2.134717e-01,1,1,0,2.300000e+00,1
22,815,5,8.136000e+01,45,2,2,1,2.470615e-01,1,1,0,2.300000e+00,1
22,816,5,3.949000e+01,64,1,1,1,2.322197e-01,2,1,0,1.200000e+00,1
22,817,5,1.404000e+02,65,3,3,1,2.812310e-01,1,1,0,3.100000e+00,1
22,818,5,5.410000e+01,41,2,2,1,2.266555e-01,2,1,0,2.100000e+00,1
22,819,5,1.222400e+02,49,3,3,1,3.481910e-01,1,1,0,3.100000e+00,1
22,820,5,8.520000e+01,72,2,2,1,2.374148e-01,4,1,0,2.300000e+00,1
22,821,5,1.002700e+02,35,3,3,1,2.627031e-01,1,1,0,3.100000e+00,1
22,822,5,5.410000e+01,41,2,2,1,2.399261e-01,3,1,0,2.100000e+00,1
22,823,5,1.855000e+01,13,1,1,1,2.171992e-01,2,1,0,1.200000e+00,1
22,824,5,7.303000e+01,38,2,2,1,6.041922e-01,1,1,0,2.100000e+00,1
22,825,5,7.303000e+01,38,2,2,1,2.680198e-01,2,1,0,2.100000e+00,1
22,826,5,1.217900e+02,6,3,3,1,2.535019e-01,1,1,0,3.200000e+00,1
22,827,5,6.833000e+01,54,2,2,1,3.027653e-01,1,1,0,2.300000e+00,1
22,828,5,1.404000e+02,65,3,3,1,2.563876e-01,2,1,0,3.100000e+00,1
22,829,5,1.254700e+02,55,3,1,0,2.656594e-01,1,1,0,3.100000e+00,1
22,830,5,6.040000e+00,1,1,1,1,2.746164e-01,3,1,0,1.300000e+00,1
22,831,5,1.014400e+02,39,3,3,1,2.359149e-01,3,1,0,3.100000e+00,1
22,832,5,7.022000e+01,25,2,2,1,2.130495e-01,1,1,0,2.100000e+00,1
22,833,5,7.830000e+01,12,2,2,1,7.426175e-01,2,1,0,2.300000e+00,1
22,834,5,1.368000e+01,71,1,1,1,2.478402e-01,2,1,0,1.200000e+00,1
22,835,5,1.118900e+02,26,3,3,1,2.411999e-01,1,1,0,3.200000e+00,1
22,836,5,1.254700e+02,55,3,3,1,2.747332e-01,2,1,0,3.100000e+00,1
22,837,5,1.194100e+02,47,3,3,1,2.518279e-01,2,1,0,3.100000e+00,1
22,838,5,2.561000e+01,21,1,1,1,2.453467e-01,2,1,0,1.200000e+00,1
22,839,5,2.706000e+01,34,1,1,1,3.585700e-01,3,1,0,1.300000e+00,1
22,840,5,1.384200e+02,4,3,3,1,4.557426e-01,2,1,0,3.100000e+00,1
22,841,5,7.022000e+01,25,2,2,1,2.415012e-01,2,1,0,2.100000e+00,1
22,842,5,2.102000e+01,24,1,1,1,2.750528e-01,2,1,0,1.300000e+00,1
22,843,5,1.550000e+01,3,1,1,1,2.683365e-01,2,1,0,1.200000e+00,1
22,844,5,2.561000e+01,21,1,1,1,3.977308e-01,3,1,0,1.200000e+00,1
22,845,5,8.823000e+01,9,2,2,1,1.111538e-01,2,1,0,2.300000e+00,1
22,846,5,8.226000e+01,19,2,2,1,6.326189e-01,2,1,0,2.300000e+00,1
22,847,5,1.277800e+02,7,3,3,1,2.976246e-01,3,1,0,3.200000e+00,1
22,848,5,4.599000e+01,67,1,3,0,5.229266e-01,1,1,0,1.300000e+00,1
22,849,5,1.147400e+02,17,3,3,1,3.404867e-01,3,1,0,3.200000e+00,1
22,850,5,9.242000e+01,50,2,2,1,2.216810e-01,1,1,0,2.300000e+00,1
22,851,5,3.313000e+01,61,1,1,1,2.710298e-01,2,1,0,1.300000e+00,1
22,852,5,1.550000e+01,3,1,1,1,2.086775e-01,3,1,0,1.200000e+00,1
22,853,5,4.599000e+01,67,1,1,1,2.416922e-01,2,1,0,1.300000e+00,1
22,854,5,1.248600e+02,27,3,3,1,2.353637e-01,2,1,0,3.200000e+00,1
22,855,5,1.032900e+02,68,3,3,1,2.444764e-01,2,1,0,3.100000e+00,1
22,856,5,1.248600e+02,27,3,3,1,2.778506e-01,3,1,0,3.200000e+00,1
22,857,5,1.353700e+02,23,3,3,1,2.470388e-01,1,1,0,3.100000e+00,1
22,858,5,7.022000e+01,25,2,2,1,2.804761e-01,3,1,0,2.100000e+00,1
22,859,5,3.569000e+01,58,1,1,1,2.179273e-01,2,1,0,1.200000e+00,1
22,860,5,1.248600e+02,27,3,3,1,2.593538e-01,4,1,0,3.200000e+00,1
22,861,5,1.032900e+02,68,3,3,1,1.164171e-01,3,1,0,3.100000e+00,1
22,862,5,1.217900e+02,6,3,3,1,1.134014e+00,2,1,0,3.200000e+00,1
22,863,5,1.198000e+01,16,1,1,1,3.448417e-01,1,1,0,1.300000e+00,1
22,864,5,1.198000e+01,16,1,1,1,2.325786e-01,2,1,0,1.300000e+00,1
22,865,5,3.052000e+01,53,1,3,0,3.297757e-01,1,1,0,1.200000e+00,1
22,866,5,1.277800e+02,7,3,3,1,1.623931e-04,4,1,0,3.200000e+00,1
22,867,5,3.052000e+01,53,1,1,1,2.025567e-02,2,1,0,1.200000e+00,1
22,868,5,7.107000e+01,48,2,2,1,5.810533e-03,3,1,0,2.100000e+00,1
22,869,5,5.410000e+01,41,2,2,1,1.590728e-04,4,1,0,2.100000e+00,1
22,870,5,9.412000e+01,63,2,2,1,1.466972e-04,3,1,0,2.100000e+00,1
22,871,5,4.415000e+01,10,1,1,1,1.539413e-04,1,1,0,1.300000e+00,1
22,872,5,3.313000e+01,61,1,1,1,1.563561e-04,3,1,0,1.300000e+00,1
22,873,5,1.254700e+02,55,3,3,1,1.460934e-04,3,1,0,3.100000e+00,1
22,874,5,1.118900e+02,26,3,3,1,1.476026e-04,2,1,0,3.200000e+00,1
22,875,5,1.222400e+02,49,3,3,1,1.554505e-04,2,1,0,3.100000e+00,1
22,876,5,1.855000e+01,13,1,1,1,1.497156e-04,3,1,0,1.200000e+00,1
22,877,5,1.002700e+02,35,3,3,1,2.359762e-01,2,1,0,3.100000e+00,1
22,878,5,8.823000e+01,9,2,2,1,1.503192e-04,3,1,0,2.300000e+00,1
22,879,5,6.617000e+01,22,2,3,0,2.308025e-01,1,1,0,2.100000e+00,1
22,880,5,5.243000e+01,32,2,2,1,1.512248e-04,3,1,0,2.300000e+00,1
22,881,5,5.070000e+00,40,1,1,1,1.524321e-04,2,1,0,1.300000e+00,1
22,882,5,9.412000e+01,63,2,2,1,1.690337e-04,4,1,0,2.100000e+00,1
22,883,5,1.404000e+02,65,3,3,1,1.515266e-04,3,1,0,3.100000e+00,1
22,884,5,2.050000e+00,60,1,1,1,1.548469e-04,3,1,0,1.300000e+00,1
22,885,5,1.353700e+02,23,3,3,1,1.515266e-04,2,1,0,3.100000e+00,1
22,886,5,9.337000e+01,46,2,2,1,1.469989e-04,1,1,0,2.300000e+00,1
22,887,5,7.080000e+00,56,1,1,1,2.433961e-01,1,1,0,1.300000e+00,1
22,888,5,1.194100e+02,47,3,3,1,1.545451e-04,3,1,0,3.100000e+00,1
22,889,5,6.833000e+01,54,2,2,1,1.590728e-04,2,1,0,2.300000e+00,1
22,890,5,1.002700e+02,35,3,3,1,1.545451e-04,3,1,0,3.100000e+00,1
22,891,5,6.617000e+01,22,2,1,0,2.576647e-02,2,1,0,2.100000e+00,1
22,892,5,6.617000e+01,22,2,2,1,1.482063e-04,3,1,0,2.100000e+00,1
22,893,5,7.830000e+01,12,2,2,1,1.506211e-04,3,1,0,2.300000e+00,1
22,894,5,2.050000e+00,60,1,1,1,1.551488e-04,4,1,0,1.300000e+00,1
22,895,5,4.415000e+01,10,1,1,1,1.569599e-04,2,1,0,1.300000e+00,1
22,896,5,6.040000e+00,1,1,1,1,1.494137e-04,4,1,0,1.300000e+00,1
22,897,5,1.254700e+02,55,3,3,1,1.473008e-04,4,1,0,3.100000e+00,1
22,898,5,1.128300e+02,36,3,3,1,1.590728e-04,2,1,0,3.200000e+00,1
22,899,5,8.136000e+01,45,2,2,1,1.509229e-04,2,1,0,2.300000e+00,1
22,900,5,6.617000e+01,22,2,2,1,1.500174e-04,4,1,0,2.100000e+00,1
22,901,5,7.022000e+01,25,2,2,1,1.500173e-04,4,1,0,2.100000e+00,1
22,902,5,9.772000e+01,59,3,3,1,2.346423e-01,3,1,0,3.200000e+00,1
22,903,5,2.362000e+01,66,1,1,1,1.497156e-04,3,1,0,1.200000e+00,1
22,904,5,9.337000e+01,46,2,2,1,1.569598e-04,2,1,0,2.300000e+00,1
22,905,5,2.561000e+01,21,1,1,1,1.488100e-04,4,1,0,1.200000e+00,1
22,906,5,1.128300e+02,36,3,3,1,1.491118e-04,3,1,0,3.200000e+00,1
22,907,5,1.384200e+02,4,3,3,1,1.512248e-04,3,1,0,3.100000e+00,1
22,908,5,3.313000e+01,61,1,3,0,1.575635e-04,4,1,0,1.300000e+00,1
22,909,5,3.052000e+01,53,1,1,1,1.524321e-04,3,1,0,1.200000e+00,1
22,910,5,9.772000e+01,59,3,3,1,1.524321e-04,4,1,0,3.200000e+00,1
22,911,5,9.242000e+01,50,2,2,1,1.518284e-04,2,1,0,2.300000e+00,1
22,912,5,1.198000e+01,16,1,1,1,1.820130e-04,3,1,0,1.300000e+00,1
22,913,5,1.032900e+02,68,3,3,1,1.488100e-04,4,1,0,3.100000e+00,1
22,914,5,8.823000e+01,9,2,2,1,1.533376e-04,4,1,0,2.300000e+00,1
22,915,5,1.404000e+02,65,3,3,1,1.554507e-04,4,1,0,3.100000e+00,1
22,916,5,1.118900e+02,26,3,3,1,1.463953e-04,3,1,0,3.200000e+00,1
22,917,5,5.070000e+00,40,1,1,1,1.955961e-04,3,1,0,1.300000e+00,1
22,918,5,9.337000e+01,46,2,2,1,1.536395e-04,3,1,0,2.300000e+00,1
22,919,5,1.855000e+01,13,1,1,1,1.536396e-04,4,1,0,1.200000e+00,1
22,920,5,7.303000e+01,38,2,2,1,1.503192e-04,3,1,0,2.100000e+00,1
22,921,5,8.136000e+01,45,2,2,1,1.512248e-04,3,1,0,2.300000e+00,1
22,922,5,6.833000e+01,54,2,2,1,1.473008e-04,3,1,0,2.300000e+00,1
22,923,5,1.217900e+02,6,3,3,1,1.524321e-04,3,1,0,3.200000e+00,1
22,924,5,2.706000e+01,34,1,1,1,1.515266e-04,4,1,0,1.300000e+00,1
22,925,5,3.949000e+01,64,1,3,0,2.472238e-01,3,1,0,1.200000e+00,1
22,926,5,3.569000e+01,58,1,1,1,1.629968e-04,3,1,0,1.200000e+00,1
22,927,5,2.362000e+01,66,1,1,1,1.596765e-04,4,1,0,1.200000e+00,1
22,928,5,1.550000e+01,3,1,1,1,1.545452e-04,4,1,0,1.200000e+00,1
22,929,5,4.415000e+01,10,1,1,1,1.554507e-04,3,1,0,1.300000e+00,1
22,930,5,1.194100e+02,47,3,3,1,1.669208e-04,4,1,0,3.100000e+00,1
22,931,5,1.128300e+02,36,3,3,1,1.533377e-04,4,1,0,3.200000e+00,1
22,932,5,1.002700e+02,35,3,3,1,1.539415e-04,4,1,0,3.100000e+00,1
22,933,5,3.052000e+01,53,1,1,1,1.494137e-04,4,1,0,1.200000e+00,1
22,934,5,7.107000e+01,48,2,2,1,1.723539e-04,4,1,0,2.100000e+00,1
22,935,5,9.242000e+01,50,2,2,1,4.700972e-01,3,1,0,2.300000e+00,1
22,936,5,8.136000e+01,45,2,2,1,1.466970e-04,4,1,0,2.300000e+00,1
22,937,5,6.833000e+01,54,2,2,1,1.509229e-04,4,1,0,2.300000e+00,1
22,938,5,8.226000e+01,19,2,2,1,3.224318e-01,3,1,0,2.300000e+00,1
22,939,5,5.243000e+01,32,2,3,0,2.916311e-01,4,1,0,2.300000e+00,1
22,940,5,1.217900e+02,6,3,3,1,1.445842e-04,4,1,0,3.200000e+00,1
22,941,5,7.830000e+01,12,2,2,1,8.383567e-01,4,1,0,2.300000e+00,1
22,942,5,1.368000e+01,71,1,1,1,1.494137e-04,3,1,0,1.200000e+00,1
22,943,5,1.393600e+02,2,3,3,1,1.575635e-04,4,1,0,3.100000e+00,1
22,944,5,1.147400e+02,17,3,3,1,1.530359e-04,4,1,0,3.200000e+00,1
22,945,5,1.368000e+01,71,1,1,1,1.485081e-04,4,1,0,1.200000e+00,1
22,946,5,5.070000e+00,40,1,1,1,1.506211e-04,4,1,0,1.300000e+00,1
22,947,5,9.242000e+01,50,2,2,1,1.566580e-04,4,1,0,2.300000e+00,1
22,948,5,7.080000e+00,56,1,1,1,1.457916e-04,2,1,0,1.300000e+00,1
22,949,5,1.412800e+02,37,3,3,1,1.521304e-04,2,1,0,3.100000e+00,1
22,950,5,2.102000e+01,24,1,1,1,1.578655e-04,3,1,0,1.300000e+00,1
22,951,5,3.949000e+01,64,1,1,1,1.451878e-04,4,1,0,1.200000e+00,1
22,952,5,1.329600e+02,29,3,3,1,1.620912e-04,3,1,0,3.200000e+00,1
22,953,5,1.412800e+02,37,3,3,1,1.509229e-04,3,1,0,3.100000e+00,1
22,954,5,3.916000e+01,20,1,1,1,1.512248e-04,3,1,0,1.300000e+00,1
22,955,5,8.226000e+01,19,2,2,1,1.518285e-04,4,1,0,2.300000e+00,1
22,956,5,1.353700e+02,23,3,3,1,1.491118e-04,3,1,0,3.100000e+00,1
22,957,5,7.080000e+00,56,1,1,1,1.482064e-04,3,1,0,1.300000e+00,1
22,958,5,1.014400e+02,39,3,3,1,6.492569e-01,4,1,0,3.100000e+00,1
22,959,5,1.222400e+02,49,3,3,1,2.584993e-01,3,1,0,3.100000e+00,1
22,960,5,7.080000e+00,56,1,1,1,1.412639e-04,4,1,0,1.300000e+00,1
22,961,5,1.384200e+02,4,3,3,1,1.460933e-04,4,1,0,3.100000e+00,1
22,962,5,9.321000e+01,18,2,2,1,1.427730e-04,4,1,0,2.100000e+00,1
22,963,5,4.415000e+01,10,1,1,1,1.720522e-04,4,1,0,1.300000e+00,1
22,964,5,1.198000e+01,16,1,1,1,1.469989e-04,4,1,0,1.300000e+00,1
22,965,5,7.303000e+01,38,2,2,1,1.512248e-04,4,1,0,2.100000e+00,1
22,966,5,4.599000e+01,67,1,2,0,6.455602e-01,3,1,0,1.300000e+00,1
22,967,5,2.102000e+01,24,1,1,1,1.587709e-04,4,1,0,1.300000e+00,1
22,968,5,4.599000e+01,67,1,1,1,1.491118e-04,4,1,0,1.300000e+00,1
22,969,5,1.329600e+02,29,3,3,1,1.563561e-04,4,1,0,3.200000e+00,1
22,970,5,3.916000e+01,20,1,1,1,1.436786e-04,4,1,0,1.300000e+00,1
22,971,5,1.353700e+02,23,3,3,1,1.439805e-04,4,1,0,3.100000e+00,1
22,972,5,1.412800e+02,37,3,3,1,1.491118e-04,4,1,0,3.100000e+00,1
22,973,5,3.569000e+01,58,1,1,1,1.533377e-04,4,1,0,1.200000e+00,1
22,974,5,1.118900e+02,26,3,3,1,1.469990e-04,4,1,0,3.200000e+00,1
22,975,5,1.222400e+02,49,3,3,1,1.466970e-04,4,1,0,3.100000e+00,1
22,976,5,9.337000e+01,46,2,2,1,1.488100e-04,4,1,0,2.300000e+00,1
22,977,6,98,16,1,1,1,9.751735e-01,NaN,2,0,3,1
22,978,6,123,9,1,2,0,5.834246e-01,NaN,2,0,3,1
22,979,6,104,1,1,1,1,5.740505e-01,NaN,2,0,3,1
22,980,6,21,18,2,2,1,5.176171e-01,NaN,2,0,1,1
22,981,6,78,7,1,1,1,5.915802e-01,NaN,2,0,2,1
22,982,6,83,36,1,1,1,6.144076e-01,NaN,2,0,2,1
22,983,6,90,11,2,2,1,5.796211e-01,NaN,2,1,2,1
22,984,6,48,5,2,2,1,1.235029e+00,NaN,2,1,1,1
22,985,6,131,15,2,2,1,6.961970e-01,NaN,2,1,3,1
22,986,6,129,43,2,2,1,1.218706e+00,NaN,2,1,3,1
22,987,6,79,6,1,1,1,6.641790e-01,NaN,2,0,2,1
22,988,6,85,70,1,1,1,5.879544e-01,NaN,2,1,2,1
22,989,6,56,51,2,2,1,6.427289e-01,NaN,2,1,2,1
22,990,6,120,72,2,2,1,1.943753e+00,NaN,2,0,3,1
22,991,6,59,62,2,1,0,1.999984e+00,NaN,2,1,2,1
22,992,6,108,56,2,2,1,6.861464e-01,NaN,2,0,3,1
22,993,6,74,17,2,2,1,6.653918e-01,NaN,2,0,2,1
22,994,6,96,29,2,2,1,5.574792e-01,NaN,2,0,2,1
22,995,6,12,63,1,1,1,1.245742e+00,NaN,2,0,1,1
22,996,6,24,49,2,2,1,8.341185e-01,NaN,2,0,1,1
22,997,6,107,40,1,1,1,1.159066e+00,NaN,2,0,3,1
22,998,6,61,21,2,2,1,7.029031e-01,NaN,2,0,2,1
22,999,6,49,64,1,1,1,1.137086e+00,NaN,2,0,2,1
22,1000,6,68,71,2,2,1,7.941197e-01,NaN,2,0,2,1
22,1001,6,8,31,1,1,1,1.040670e+00,NaN,2,1,1,1
22,1002,6,109,57,1,1,1,9.415282e-01,NaN,2,1,3,1
22,1003,6,52,53,1,1,1,6.299204e-01,NaN,2,0,2,1
22,1004,6,76,30,2,2,1,6.589603e-01,NaN,2,1,2,1
22,1005,6,62,66,1,1,1,5.512008e-01,NaN,2,0,2,1
22,1006,6,42,4,2,1,0,9.833662e-01,NaN,2,0,1,1
22,1007,6,69,58,2,2,1,5.585555e-01,NaN,2,0,2,1
22,1008,6,7,48,1,1,1,6.945241e-01,NaN,2,0,1,1
22,1009,6,29,68,2,2,1,1.369472e+00,NaN,2,0,1,1
22,1010,6,47,55,2,2,1,1.384925e+00,NaN,2,0,1,1
22,1011,6,50,3,1,1,1,1.031699e+00,NaN,2,0,2,1
22,1012,6,72,59,1,1,1,5.731721e-01,NaN,2,0,2,1
22,1013,6,63,44,1,2,0,1.020578e+00,NaN,2,1,2,1
22,1014,6,40,65,2,2,1,1.305921e+00,NaN,2,0,1,1
22,1015,6,3,38,1,1,1,1.227454e+00,NaN,2,0,1,1
22,1016,6,86,27,2,2,1,7.208243e-01,NaN,2,0,2,1
22,1017,6,44,39,1,1,1,1.306229e+00,NaN,2,0,1,1
22,1018,6,17,22,2,2,1,1.203978e+00,NaN,2,0,1,1
22,1019,6,133,54,2,2,1,9.140104e-01,NaN,2,0,3,1
22,1020,6,99,67,2,2,1,9.403284e-01,NaN,2,0,3,1
22,1021,6,82,69,2,2,1,8.607633e-01,NaN,2,1,2,1
22,1022,6,116,20,1,1,1,1.944607e+00,NaN,2,0,3,1
22,1023,6,27,35,1,1,1,8.973833e-01,NaN,2,0,1,1
22,1024,6,105,60,1,1,1,1.147860e+00,NaN,2,0,3,1
22,1025,6,10,41,1,1,1,1.284133e+00,NaN,2,0,1,1
22,1026,6,16,8,2,2,1,8.947726e-01,NaN,2,1,1,1
22,1027,6,117,14,1,1,1,1.633787e+00,NaN,2,1,3,1
22,1028,6,137,46,2,2,1,8.143941e-01,NaN,2,0,3,1
22,1029,6,89,26,2,2,1,6.441524e-01,NaN,2,0,2,1
22,1030,6,14,52,2,2,1,1.280830e+00,NaN,2,1,1,1
22,1031,6,115,10,2,2,1,1.619614e+00,NaN,2,0,3,1
22,1032,6,142,50,2,2,1,1.881352e+00,NaN,2,0,3,1
22,1033,6,65,28,1,1,1,1.100281e+00,NaN,2,1,2,1
22,1034,6,143,32,1,1,1,1.230563e+00,NaN,2,0,3,1
22,1035,6,55,13,1,1,1,9.956601e-01,NaN,2,0,2,1
22,1036,6,36,2,1,1,1,7.618825e-01,NaN,2,0,1,1
22,1037,6,130,12,2,2,1,2.225588e+00,NaN,2,0,3,1
22,1038,6,19,33,2,2,1,1.664183e+00,NaN,2,1,1,1
22,1039,6,28,37,2,2,1,8.827365e-01,NaN,2,0,1,1
22,1040,6,9,42,1,1,1,1.453739e+00,NaN,2,1,1,1
22,1041,6,136,45,2,2,1,8.898857e-01,NaN,2,0,3,1
22,1042,6,106,34,2,2,1,7.807322e-01,NaN,2,0,3,1
22,1043,6,22,25,2,2,1,1.291532e+00,NaN,2,0,1,1
22,1044,6,126,19,2,2,1,1.766198e+00,NaN,2,0,3,1
22,1045,6,41,47,2,1,0,1.685771e+00,NaN,2,0,1,1
22,1046,6,102,24,1,1,1,9.288060e-01,NaN,2,0,3,1
22,1047,6,113,61,2,2,1,9.455699e-01,NaN,2,0,3,1
22,1048,6,37,23,1,1,1,1.194238e+00,NaN,2,0,1,1
22,1049,6,135,23,1,1,1,6.329968e-01,NaN,1,0,3,1
22,1050,6,103,68,1,1,1,1.453925e+00,NaN,1,0,3,1
22,1051,6,45,67,2,1,0,1.777927e+00,NaN,1,0,1,1
22,1052,6,71,48,2,2,1,6.651020e-01,NaN,1,0,2,1
22,1053,6,39,64,1,1,1,7.093143e-01,NaN,1,0,1,1
22,1054,6,1,60,1,1,1,6.405499e-01,NaN,1,0,1,1
22,1055,6,88,42,1,1,1,6.199084e-01,NaN,1,1,2,1
22,1056,6,43,10,2,2,1,8.414017e-01,NaN,1,0,1,1
22,1057,6,4,40,2,2,1,7.425566e-01,NaN,1,0,1,1
22,1058,6,118,30,1,1,1,2.694317e+00,NaN,1,1,3,1
22,1059,6,84,72,1,1,1,1.185079e+00,NaN,1,0,2,1
22,1060,6,114,17,1,1,1,1.352830e+00,NaN,1,0,3,1
22,1061,6,2,51,2,1,0,1.616848e+00,NaN,1,1,1,1
22,1062,6,134,11,2,2,1,2.310592e+00,NaN,1,1,3,1
22,1063,6,70,25,2,2,1,8.321827e-01,NaN,1,0,2,1
22,1064,6,111,26,2,1,0,6.856417e-01,NaN,1,0,3,1
22,1065,6,121,6,1,1,1,6.804949e-01,NaN,1,0,3,1
22,1066,6,139,2,1,1,1,1.155528e+00,NaN,1,0,3,1
22,1067,6,30,53,2,2,1,6.833121e-01,NaN,1,0,1,1
22,1068,6,53,52,1,1,1,6.627159e-01,NaN,1,1,2,1
22,1069,6,122,49,1,1,1,1.186387e+00,NaN,1,0,3,1
22,1070,6,75,31,1,1,1,5.690302e-01,NaN,1,1,2,1
22,1071,6,35,58,1,1,1,2.457143e+00,NaN,1,0,1,1
22,1072,6,125,55,1,1,1,1.372832e+00,NaN,1,0,3,1
22,1073,6,138,4,1,1,1,1.412277e+00,NaN,1,0,3,1
22,1074,6,5,1,1,1,1,7.778327e-01,NaN,1,0,1,1
22,1075,6,13,71,1,1,1,7.609121e-01,NaN,1,0,1,1
22,1076,6,33,44,1,1,1,6.810621e-01,NaN,1,1,1,1
22,1077,6,141,37,2,2,1,9.402725e-01,NaN,1,0,3,1
22,1078,6,92,46,1,1,1,7.088120e-01,NaN,1,0,2,1
22,1079,6,32,61,1,1,1,6.551876e-01,NaN,1,0,1,1
22,1080,6,6,56,2,2,1,1.978829e+00,NaN,1,0,1,1
22,1081,6,101,39,2,2,1,7.538607e-01,NaN,1,0,3,1
22,1082,6,94,63,1,1,1,1.497923e+00,NaN,1,0,2,1
22,1083,6,73,38,2,1,0,1.421549e+00,NaN,1,0,2,1
22,1084,6,66,22,2,2,1,6.976208e-01,NaN,1,0,2,1
22,1085,6,97,59,1,1,1,1.139952e+00,NaN,1,0,3,1
22,1086,6,140,65,1,1,1,8.765372e-01,NaN,1,0,3,1
22,1087,6,110,69,2,2,1,8.724876e-01,NaN,1,1,3,1
22,1088,6,112,36,1,1,1,6.838418e-01,NaN,1,0,3,1
22,1089,6,15,3,2,2,1,1.398867e+00,NaN,1,0,1,1
22,1090,6,60,8,1,1,1,6.848300e-01,NaN,1,1,2,1
22,1091,6,54,41,1,1,1,7.518788e-01,NaN,1,0,2,1
22,1092,6,23,66,1,1,1,1.152589e+00,NaN,1,0,1,1
22,1093,6,127,7,1,1,1,1.288740e+00,NaN,1,0,3,1
22,1094,6,132,29,2,1,0,1.411494e+00,NaN,1,0,3,1
22,1095,6,38,20,2,2,1,1.073539e+00,NaN,1,0,1,1
22,1096,6,93,18,2,2,1,6.367641e-01,NaN,1,0,2,1
22,1097,6,144,70,2,2,1,1.146257e+00,NaN,1,1,3,1
22,1098,6,100,35,2,2,1,9.947995e-01,NaN,1,0,3,1
22,1099,6,119,47,1,1,1,1.953214e+00,NaN,1,0,3,1
22,1100,6,25,21,1,1,1,1.385862e+00,NaN,1,0,1,1
22,1101,6,20,24,2,2,1,1.928356e+00,NaN,1,0,1,1
22,1102,6,124,27,1,1,1,7.535896e-01,NaN,1,0,3,1
22,1103,6,34,28,1,1,1,1.033355e+00,NaN,1,1,1,1
22,1104,6,18,13,2,2,1,9.101722e-01,NaN,1,0,1,1
22,1105,6,31,57,2,2,1,1.312510e+00,NaN,1,1,1,1
22,1106,6,26,34,2,2,1,1.322019e+00,NaN,1,0,1,1
22,1107,6,80,45,2,2,1,1.235207e+00,NaN,1,0,2,1
22,1108,6,81,19,1,1,1,7.365700e-01,NaN,1,0,2,1
22,1109,6,11,16,2,2,1,7.134803e-01,NaN,1,0,1,1
22,1110,6,64,33,2,2,1,5.471977e-01,NaN,1,1,2,1
22,1111,6,51,32,2,2,1,8.117786e-01,NaN,1,0,2,1
22,1112,6,128,5,1,1,1,1.521278e+00,NaN,1,1,3,1
22,1113,6,67,54,1,1,1,6.586663e-01,NaN,1,0,2,1
22,1114,6,91,50,2,2,1,1.087143e+00,NaN,1,0,2,1
22,1115,6,77,12,2,2,1,1.433613e+00,NaN,1,0,2,1
22,1116,6,87,9,1,2,0,8.224274e-01,NaN,1,0,2,1
22,1117,6,58,15,1,1,1,7.878180e-01,NaN,1,1,2,1
22,1118,6,57,14,2,2,1,5.226950e-01,NaN,1,1,2,1
22,1119,6,95,43,2,2,1,7.723237e-01,NaN,1,1,2,1
22,1120,6,46,62,2,2,1,1.427155e+00,NaN,1,1,1,1
