Subject,Trial,Cond,ImageNum,CueNum,Correct,Resp,Accuracy,RT,CueRep,ImageType,Baseline,Category,Block
28,1,1,50,NaN,NaN,1,NaN,1.765219e+00,NaN,0,0,2,1
28,2,1,41,NaN,NaN,1,NaN,1.037510e+00,NaN,2,0,1,1
28,3,1,90,NaN,NaN,1,NaN,2.220406e-01,NaN,1,1,2,1
28,4,1,142,NaN,NaN,1,NaN,8.071369e-01,NaN,0,0,3,1
28,5,1,30,NaN,NaN,1,NaN,1.052159e-01,NaN,1,0,1,1
28,6,1,27,NaN,NaN,1,NaN,2.632219e-01,NaN,2,0,1,1
28,7,1,142,NaN,NaN,1,NaN,9.907793e-01,NaN,2,0,3,1
28,8,1,38,NaN,NaN,1,NaN,7.454075e-01,NaN,0,1,1,1
28,9,1,94,NaN,NaN,1,NaN,1.821132e+00,NaN,2,0,2,1
28,10,1,35,NaN,NaN,1,NaN,3.824294e-01,NaN,2,1,1,1
28,11,1,126,NaN,NaN,1,NaN,8.016887e-01,NaN,0,0,3,1
28,12,1,23,NaN,NaN,1,NaN,3.477212e-01,NaN,0,0,1,1
28,13,1,86,NaN,NaN,1,NaN,1.520757e-01,NaN,1,0,2,1
28,14,1,72,NaN,NaN,1,NaN,2.283286e-01,NaN,0,0,2,1
28,15,1,19,NaN,NaN,1,NaN,3.413532e-01,NaN,0,0,1,1
28,16,1,66,NaN,NaN,1,NaN,4.659609e-01,NaN,2,0,2,1
28,17,1,71,NaN,NaN,1,NaN,2.414561e-01,NaN,1,0,2,1
28,18,1,113,NaN,NaN,1,NaN,3.783913e-01,NaN,1,0,3,1
28,19,1,10,NaN,NaN,1,NaN,5.197121e-03,NaN,0,0,1,1
28,20,1,111,NaN,NaN,1,NaN,3.508630e-01,NaN,1,0,3,1
28,21,1,125,NaN,NaN,1,NaN,4.992327e-01,NaN,0,1,3,1
28,22,1,72,NaN,NaN,1,NaN,3.231545e-01,NaN,2,0,2,1
28,23,1,87,NaN,NaN,1,NaN,3.829561e-01,NaN,0,0,2,1
28,24,1,43,NaN,NaN,1,NaN,6.418058e-01,NaN,1,0,1,1
28,25,1,127,NaN,NaN,1,NaN,3.221521e-01,NaN,1,0,3,1
28,26,1,90,NaN,NaN,1,NaN,3.358699e-01,NaN,0,1,2,1
28,27,1,41,NaN,NaN,1,NaN,3.886881e-01,NaN,0,0,1,1
28,28,1,77,NaN,NaN,2,NaN,4.634997e-01,NaN,2,0,2,1
28,29,1,69,NaN,NaN,2,NaN,4.788330e-01,NaN,1,0,2,1
28,30,1,83,NaN,NaN,2,NaN,4.136000e-01,NaN,0,0,2,1
28,31,1,131,NaN,NaN,2,NaN,4.314395e-01,NaN,1,0,3,1
28,32,1,74,NaN,NaN,2,NaN,3.443097e-01,NaN,2,0,2,1
28,33,1,67,NaN,NaN,2,NaN,3.091834e-01,NaN,1,0,2,1
28,34,1,82,NaN,NaN,2,NaN,4.830896e-01,NaN,1,0,2,1
28,35,1,134,NaN,NaN,2,NaN,3.219948e-01,NaN,0,0,3,1
28,36,1,17,NaN,NaN,2,NaN,3.111237e-01,NaN,1,1,1,1
28,37,1,18,NaN,NaN,2,NaN,1.732355e-01,NaN,1,0,1,1
28,38,1,108,NaN,NaN,2,NaN,3.122471e-01,NaN,0,0,3,1
28,39,1,5,NaN,NaN,2,NaN,3.741689e-01,NaN,1,0,1,1
28,40,1,64,NaN,NaN,2,NaN,4.010688e-01,NaN,0,0,2,1
28,41,1,16,NaN,NaN,1,NaN,2.915199e-01,NaN,2,1,1,1
28,42,1,84,NaN,NaN,2,NaN,2.024185e-01,NaN,1,0,2,1
28,43,1,58,NaN,NaN,2,NaN,1.243980e-01,NaN,0,0,2,1
28,44,1,59,NaN,NaN,2,NaN,1.234533e-04,NaN,0,0,2,1
28,45,1,99,NaN,NaN,2,NaN,3.242626e-01,NaN,2,0,3,1
28,46,1,135,NaN,NaN,2,NaN,2.570888e-01,NaN,2,0,3,1
28,47,1,80,NaN,NaN,2,NaN,1.293917e-01,NaN,1,0,2,1
28,48,1,68,NaN,NaN,2,NaN,1.503247e-01,NaN,1,1,2,1
28,49,1,126,NaN,NaN,1,NaN,2.686396e-03,NaN,2,0,3,1
28,50,1,75,NaN,NaN,2,NaN,1.008283e-01,NaN,2,0,2,1
28,51,1,82,NaN,NaN,1,NaN,7.530181e-02,NaN,0,0,2,1
28,52,1,118,NaN,NaN,2,NaN,2.630858e-03,NaN,2,0,3,1
28,53,1,87,NaN,NaN,1,NaN,4.131461e-01,NaN,1,0,2,1
28,54,1,57,NaN,NaN,1,NaN,2.252921e-02,NaN,2,1,2,1
28,55,1,14,NaN,NaN,2,NaN,1.576402e-02,NaN,0,0,1,1
28,56,1,78,NaN,NaN,2,NaN,1.270752e-04,NaN,1,0,2,1
28,57,1,100,NaN,NaN,2,NaN,6.784268e-02,NaN,0,0,3,1
28,58,1,88,NaN,NaN,2,NaN,9.957416e-02,NaN,0,1,2,1
28,59,1,7,NaN,NaN,2,NaN,1.442805e-04,NaN,1,1,1,1
28,60,1,31,NaN,NaN,2,NaN,1.234533e-04,NaN,0,0,1,1
28,61,1,118,NaN,NaN,1,NaN,4.631891e-02,NaN,0,0,3,1
28,62,1,15,NaN,NaN,2,NaN,3.869015e-02,NaN,1,1,1,1
28,63,1,17,NaN,NaN,1,NaN,1.234533e-04,NaN,0,1,1,1
28,64,1,61,NaN,NaN,2,NaN,9.559346e-03,NaN,2,0,2,1
28,65,1,116,NaN,NaN,2,NaN,9.959016e-02,NaN,1,0,3,1
28,66,1,98,NaN,NaN,2,NaN,7.421277e-02,NaN,0,0,3,1
28,67,1,1,NaN,NaN,2,NaN,1.213874e-01,NaN,0,1,1,1
28,68,1,33,NaN,NaN,2,NaN,2.386263e-01,NaN,1,0,1,1
28,69,1,128,NaN,NaN,2,NaN,4.075523e-01,NaN,1,0,3,1
28,70,1,60,NaN,NaN,1,NaN,2.014749e-01,NaN,0,1,2,1
28,71,1,78,NaN,NaN,1,NaN,3.074771e-01,NaN,0,0,2,1
28,72,1,144,NaN,NaN,2,NaN,2.576224e-01,NaN,0,1,3,1
28,73,1,133,NaN,NaN,2,NaN,4.815553e-01,NaN,2,1,3,1
28,74,1,94,NaN,NaN,1,NaN,1.976423e+00,NaN,0,0,2,1
28,75,1,21,NaN,NaN,2,NaN,3.553019e-01,NaN,1,0,1,1
28,76,1,32,NaN,NaN,2,NaN,8.848115e-02,NaN,1,0,1,1
28,77,1,129,NaN,NaN,2,NaN,1.054120e+00,NaN,0,0,3,1
28,78,1,123,NaN,NaN,2,NaN,5.416666e-01,NaN,2,0,3,1
28,79,1,96,NaN,NaN,2,NaN,1.531536e+00,NaN,2,0,2,1
28,80,1,2,NaN,NaN,2,NaN,1.243586e-04,NaN,2,0,1,1
28,81,1,92,NaN,NaN,2,NaN,3.693946e-01,NaN,2,0,2,1
28,82,1,119,NaN,NaN,2,NaN,4.771125e-01,NaN,2,1,3,1
28,83,1,134,NaN,NaN,1,NaN,1.000870e-01,NaN,1,0,3,1
28,84,1,12,NaN,NaN,1,NaN,7.865936e-01,NaN,2,0,1,1
28,85,1,139,NaN,NaN,2,NaN,2.051004e-01,NaN,0,0,3,1
28,86,1,6,NaN,NaN,2,NaN,2.952498e-01,NaN,0,0,1,1
28,87,1,3,NaN,NaN,1,NaN,3.491437e-01,NaN,1,0,1,1
28,88,1,111,NaN,NaN,1,NaN,3.776829e-01,NaN,0,0,3,1
28,89,1,129,NaN,NaN,2,NaN,3.168780e-01,NaN,1,0,3,1
28,90,1,20,NaN,NaN,2,NaN,3.866298e-01,NaN,2,0,1,1
28,91,1,98,NaN,NaN,1,NaN,2.609617e-01,NaN,1,0,3,1
28,92,1,131,NaN,NaN,1,NaN,5.489332e-01,NaN,0,0,3,1
28,93,1,39,NaN,NaN,2,NaN,2.812721e-01,NaN,2,0,1,1
28,94,1,102,NaN,NaN,2,NaN,2.724121e-01,NaN,0,0,3,1
28,95,1,34,NaN,NaN,2,NaN,8.155849e-01,NaN,2,0,1,1
28,96,1,97,NaN,NaN,2,NaN,1.452667e-01,NaN,2,0,3,1
28,97,1,55,NaN,NaN,2,NaN,1.225481e-04,NaN,1,0,2,1
28,98,1,52,NaN,NaN,1,NaN,4.744750e-02,NaN,2,1,2,1
28,99,1,93,NaN,NaN,2,NaN,1.040804e-01,NaN,0,0,2,1
28,100,1,25,NaN,NaN,2,NaN,5.740365e-01,NaN,0,0,1,1
28,101,1,137,NaN,NaN,2,NaN,3.050597e-01,NaN,2,1,3,1
28,102,1,139,NaN,NaN,1,NaN,4.954153e-01,NaN,1,0,3,1
28,103,1,73,NaN,NaN,2,NaN,8.456907e-01,NaN,0,0,2,1
28,104,1,42,NaN,NaN,2,NaN,4.059906e-01,NaN,0,0,1,1
28,105,1,23,NaN,NaN,1,NaN,1.757335e-01,NaN,1,0,1,1
28,106,1,100,NaN,NaN,2,NaN,1.298744e+00,NaN,1,0,3,1
28,107,1,22,NaN,NaN,2,NaN,6.408309e-01,NaN,0,1,1,1
28,108,1,77,NaN,NaN,1,NaN,8.017989e-01,NaN,0,0,2,1
28,109,1,47,NaN,NaN,2,NaN,2.836750e-01,NaN,0,0,1,1
28,110,1,112,NaN,NaN,2,NaN,4.029583e-01,NaN,2,0,3,1
28,111,1,56,NaN,NaN,2,NaN,1.264717e-04,NaN,0,0,2,1
28,112,1,112,NaN,NaN,1,NaN,1.246613e-04,NaN,0,0,3,1
28,113,1,44,NaN,NaN,2,NaN,2.576345e-02,NaN,0,0,1,1
28,114,1,50,NaN,NaN,1,NaN,1.885337e-02,NaN,1,0,2,1
28,115,1,10,NaN,NaN,1,NaN,1.240568e-04,NaN,2,0,1,1
28,116,1,80,NaN,NaN,1,NaN,1.237551e-04,NaN,0,0,2,1
28,117,1,71,NaN,NaN,1,NaN,9.528106e-01,NaN,0,0,2,1
28,118,1,45,NaN,NaN,2,NaN,4.498748e-02,NaN,1,0,1,1
28,119,1,55,NaN,NaN,1,NaN,1.096077e-01,NaN,0,0,2,1
28,120,1,8,NaN,NaN,2,NaN,1.637990e-01,NaN,2,0,1,1
28,121,1,35,NaN,NaN,1,NaN,1.430434e-01,NaN,0,1,1,1
28,122,1,101,NaN,NaN,2,NaN,4.387387e+00,NaN,2,1,3,1
28,123,1,124,NaN,NaN,2,NaN,3.020041e-01,NaN,2,1,3,1
28,124,1,79,NaN,NaN,2,NaN,5.799752e-01,NaN,2,1,2,1
28,125,1,51,NaN,NaN,2,NaN,1.672605e-01,NaN,1,0,2,1
28,126,1,124,NaN,NaN,1,NaN,1.240568e-04,NaN,0,1,3,1
28,127,1,132,NaN,NaN,2,NaN,2.532367e-01,NaN,0,0,3,1
28,128,1,22,NaN,NaN,1,NaN,1.240578e-04,NaN,2,1,1,1
28,129,1,4,NaN,NaN,2,NaN,2.635609e-01,NaN,1,1,1,1
28,130,1,24,NaN,NaN,2,NaN,1.423039e+00,NaN,2,0,1,1
28,131,1,133,NaN,NaN,1,NaN,2.643716e-01,NaN,0,1,3,1
28,132,1,31,NaN,NaN,1,NaN,1.231516e-04,NaN,2,0,1,1
28,133,1,140,NaN,NaN,2,NaN,1.240568e-04,NaN,1,1,3,1
28,134,1,49,NaN,NaN,2,NaN,1.240578e-04,NaN,0,0,2,1
28,135,1,54,NaN,NaN,1,NaN,1.444678e-02,NaN,1,1,2,1
28,136,1,64,NaN,NaN,1,NaN,1.454884e-04,NaN,1,0,2,1
28,137,1,37,NaN,NaN,2,NaN,1.252647e-04,NaN,0,0,1,1
28,138,1,32,NaN,NaN,1,NaN,2.146401e-02,NaN,0,0,1,1
28,139,1,3,NaN,NaN,1,NaN,1.451107e-02,NaN,0,0,1,1
28,140,1,114,NaN,NaN,2,NaN,3.439545e-01,NaN,0,0,3,1
28,141,1,1,NaN,NaN,1,NaN,3.248168e-01,NaN,1,1,1,1
28,142,1,102,NaN,NaN,1,NaN,3.379249e-01,NaN,2,0,3,1
28,143,1,26,NaN,NaN,2,NaN,3.986957e-01,NaN,0,1,1,1
28,144,1,57,NaN,NaN,1,NaN,3.926652e-01,NaN,0,1,2,1
28,145,1,115,NaN,NaN,2,NaN,3.233142e-01,NaN,0,0,3,1
28,146,1,39,NaN,NaN,1,NaN,3.686258e-01,NaN,0,0,1,1
28,147,1,75,NaN,NaN,2,NaN,2.760155e-01,NaN,0,0,2,1
28,148,1,48,NaN,NaN,2,NaN,4.757587e-01,NaN,2,1,1,1
28,149,1,61,NaN,NaN,2,NaN,4.829266e-01,NaN,0,0,2,1
28,150,1,30,NaN,NaN,1,NaN,1.778546e-01,NaN,0,0,1,1
28,151,1,122,NaN,NaN,2,NaN,3.388984e+00,NaN,0,1,3,1
28,152,1,89,NaN,NaN,2,NaN,6.151353e-01,NaN,1,0,2,1
28,153,1,7,NaN,NaN,2,NaN,1.464968e+00,NaN,0,1,1,1
28,154,1,101,NaN,NaN,2,NaN,1.488231e+00,NaN,0,1,3,1
28,155,1,25,NaN,NaN,1,NaN,2.158544e+00,NaN,2,0,1,1
28,156,1,104,NaN,NaN,2,NaN,3.738339e+00,NaN,2,0,3,1
28,157,1,144,NaN,NaN,1,NaN,1.025437e-01,NaN,2,1,3,1
28,158,1,15,NaN,NaN,2,NaN,1.008039e-01,NaN,0,1,1,1
28,159,1,123,NaN,NaN,1,NaN,1.252647e-04,NaN,0,0,3,1
28,160,1,60,NaN,NaN,1,NaN,9.387327e-02,NaN,1,1,2,1
28,161,1,93,NaN,NaN,1,NaN,1.454884e-04,NaN,1,0,2,1
28,162,1,20,NaN,NaN,1,NaN,1.424672e-01,NaN,0,0,1,1
28,163,1,141,NaN,NaN,2,NaN,1.231516e-04,NaN,2,1,3,1
28,164,1,43,NaN,NaN,1,NaN,1.264717e-04,NaN,0,0,1,1
28,165,1,103,NaN,NaN,2,NaN,3.839220e-01,NaN,1,0,3,1
28,166,1,26,NaN,NaN,1,NaN,1.390920e-01,NaN,1,1,1,1
28,167,1,2,NaN,NaN,1,NaN,9.549386e-02,NaN,0,0,1,1
28,168,1,136,NaN,NaN,2,NaN,1.577440e-01,NaN,1,0,3,1
28,169,1,24,NaN,NaN,1,NaN,2.578838e-01,NaN,0,0,1,1
28,170,1,91,NaN,NaN,1,NaN,3.218982e-01,NaN,2,0,2,1
28,171,1,130,NaN,NaN,2,NaN,3.831749e-01,NaN,0,0,3,1
28,172,1,135,NaN,NaN,1,NaN,3.458986e-01,NaN,0,0,3,1
28,173,1,53,NaN,NaN,2,NaN,2.620523e-01,NaN,0,0,2,1
28,174,1,48,NaN,NaN,1,NaN,2.541026e-01,NaN,0,1,1,1
28,175,1,116,NaN,NaN,1,NaN,2.858148e-01,NaN,0,0,3,1
28,176,1,9,NaN,NaN,2,NaN,2.767879e-01,NaN,0,1,1,1
28,177,1,141,NaN,NaN,1,NaN,4.439738e-01,NaN,0,1,3,1
28,178,1,121,NaN,NaN,2,NaN,2.526278e-01,NaN,2,0,3,1
28,179,1,33,NaN,NaN,1,NaN,2.373329e-01,NaN,0,0,1,1
28,180,1,8,NaN,NaN,1,NaN,4.296741e-01,NaN,0,0,1,1
28,181,1,84,NaN,NaN,2,NaN,1.182395e-01,NaN,0,0,2,1
28,182,1,108,NaN,NaN,1,NaN,3.160899e-01,NaN,2,0,3,1
28,183,1,36,NaN,NaN,2,NaN,4.817929e-01,NaN,0,0,1,1
28,184,1,138,NaN,NaN,2,NaN,4.407631e-01,NaN,0,0,3,1
28,185,1,105,NaN,NaN,2,NaN,1.611147e-01,NaN,2,0,3,1
28,186,1,9,NaN,NaN,1,NaN,3.175484e-01,NaN,2,1,1,1
28,187,1,114,NaN,NaN,1,NaN,4.587403e-01,NaN,1,0,3,1
28,188,1,95,NaN,NaN,1,NaN,4.987468e-01,NaN,0,1,2,1
28,189,1,42,NaN,NaN,1,NaN,3.288029e-01,NaN,1,0,1,1
28,190,1,121,NaN,NaN,1,NaN,2.621455e-01,NaN,0,0,3,1
28,191,1,107,NaN,NaN,2,NaN,1.909407e+00,NaN,0,0,3,1
28,192,1,51,NaN,NaN,1,NaN,1.276787e-04,NaN,0,0,2,1
28,193,1,73,NaN,NaN,1,NaN,3.019489e-01,NaN,1,0,2,1
28,194,1,76,NaN,NaN,1,NaN,2.759446e-01,NaN,2,0,2,1
28,195,1,107,NaN,NaN,1,NaN,6.729243e-02,NaN,1,0,3,1
28,196,1,92,NaN,NaN,1,NaN,2.032232e-01,NaN,0,0,2,1
28,197,1,125,NaN,NaN,1,NaN,3.168771e-01,NaN,1,1,3,1
28,198,1,46,NaN,NaN,2,NaN,3.145387e-01,NaN,2,1,1,1
28,199,1,81,NaN,NaN,2,NaN,1.231516e-04,NaN,0,0,2,1
28,200,1,47,NaN,NaN,1,NaN,1.252638e-04,NaN,1,0,1,1
28,201,1,49,NaN,NaN,1,NaN,4.926498e-01,NaN,2,0,2,1
28,202,1,88,NaN,NaN,1,NaN,6.193500e-01,NaN,2,1,2,1
28,203,1,52,NaN,NaN,1,NaN,1.165221e+00,NaN,0,1,2,1
28,204,1,21,NaN,NaN,1,NaN,5.761995e-01,NaN,0,0,1,1
28,205,1,91,NaN,NaN,1,NaN,1.799427e-01,NaN,0,0,2,1
28,206,1,66,NaN,NaN,1,NaN,1.429109e-01,NaN,0,0,2,1
28,207,1,67,NaN,NaN,1,NaN,1.556507e-01,NaN,0,0,2,1
28,208,1,45,NaN,NaN,1,NaN,1.252647e-04,NaN,0,0,1,1
28,209,1,11,NaN,NaN,2,NaN,1.240568e-04,NaN,0,1,1,1
28,210,1,6,NaN,NaN,1,NaN,1.258682e-04,NaN,2,0,1,1
28,211,1,109,NaN,NaN,1,NaN,1.276797e-04,NaN,0,0,3,1
28,212,1,115,NaN,NaN,1,NaN,1.264717e-04,NaN,2,0,3,1
28,213,1,5,NaN,NaN,1,NaN,1.249621e-04,NaN,0,0,1,1
28,214,1,16,NaN,NaN,1,NaN,1.270762e-04,NaN,0,1,1,1
28,215,1,109,NaN,NaN,1,NaN,1.249621e-04,NaN,1,0,3,1
28,216,1,138,NaN,NaN,1,NaN,1.243595e-04,NaN,1,0,3,1
28,217,1,68,NaN,NaN,1,NaN,1.313016e-04,NaN,0,1,2,1
28,218,1,76,NaN,NaN,1,NaN,6.787936e-01,NaN,0,0,2,1
28,219,1,113,NaN,NaN,1,NaN,1.249621e-04,NaN,0,0,3,1
28,220,1,122,NaN,NaN,1,NaN,2.955616e-01,NaN,1,1,3,1
28,221,1,58,NaN,NaN,1,NaN,1.237560e-04,NaN,1,0,2,1
28,222,1,137,NaN,NaN,2,NaN,1.252647e-04,NaN,0,1,3,1
28,223,1,69,NaN,NaN,1,NaN,1.252647e-04,NaN,0,0,2,1
28,224,1,59,NaN,NaN,1,NaN,1.243586e-04,NaN,1,0,2,1
28,225,1,95,NaN,NaN,1,NaN,1.261700e-04,NaN,1,1,2,1
28,226,1,44,NaN,NaN,1,NaN,1.349235e-04,NaN,2,0,1,1
28,227,1,28,NaN,NaN,2,NaN,1.261700e-04,NaN,0,0,1,1
28,228,1,81,NaN,NaN,1,NaN,1.503173e-04,NaN,2,0,2,1
28,229,1,29,NaN,NaN,2,NaN,1.252638e-04,NaN,2,0,1,1
28,230,1,40,NaN,NaN,2,NaN,1.548454e-04,NaN,1,0,1,1
28,231,1,103,NaN,NaN,1,NaN,1.255665e-04,NaN,0,0,3,1
28,232,1,99,NaN,NaN,1,NaN,1.237560e-04,NaN,0,0,3,1
28,233,1,36,NaN,NaN,1,NaN,1.246613e-04,NaN,2,0,1,1
28,234,1,54,NaN,NaN,1,NaN,1.397524e-04,NaN,0,1,2,1
28,235,1,86,NaN,NaN,1,NaN,1.246613e-04,NaN,0,0,2,1
28,236,1,27,NaN,NaN,1,NaN,1.463937e-04,NaN,0,0,1,1
28,237,1,70,NaN,NaN,2,NaN,1.276797e-04,NaN,0,1,2,1
28,238,1,117,NaN,NaN,2,NaN,1.331130e-04,NaN,1,0,3,1
28,239,1,119,NaN,NaN,2,NaN,1.294902e-04,NaN,0,1,3,1
28,240,1,14,NaN,NaN,1,NaN,1.364332e-04,NaN,2,0,1,1
28,241,1,97,NaN,NaN,1,NaN,1.370367e-04,NaN,0,0,3,1
28,242,1,143,NaN,NaN,2,NaN,1.361305e-04,NaN,1,0,3,1
28,243,1,89,NaN,NaN,1,NaN,1.249630e-04,NaN,0,0,2,1
28,244,1,34,NaN,NaN,1,NaN,1.252647e-04,NaN,0,0,1,1
28,245,1,13,NaN,NaN,2,NaN,1.276797e-04,NaN,0,0,1,1
28,246,1,143,NaN,NaN,2,NaN,1.261700e-04,NaN,0,0,3,1
28,247,1,127,NaN,NaN,1,NaN,1.255665e-04,NaN,0,0,3,1
28,248,1,120,NaN,NaN,2,NaN,1.732577e-04,NaN,1,1,3,1
28,249,1,63,NaN,NaN,2,NaN,1.255665e-04,NaN,0,0,2,1
28,250,1,65,NaN,NaN,2,NaN,1.252647e-04,NaN,2,0,2,1
28,251,1,29,NaN,NaN,1,NaN,1.243595e-04,NaN,0,0,1,1
28,252,1,140,NaN,NaN,1,NaN,1.276787e-04,NaN,0,1,3,1
28,253,1,120,NaN,NaN,1,NaN,1.279814e-04,NaN,0,1,3,1
28,254,1,19,NaN,NaN,1,NaN,1.297928e-04,NaN,1,0,1,1
28,255,1,28,NaN,NaN,1,NaN,1.273770e-04,NaN,2,0,1,1
28,256,1,136,NaN,NaN,1,NaN,1.255665e-04,NaN,0,0,3,1
28,257,1,40,NaN,NaN,1,NaN,1.270752e-04,NaN,0,0,1,1
28,258,1,130,NaN,NaN,1,NaN,1.246603e-04,NaN,2,0,3,1
28,259,1,11,NaN,NaN,1,NaN,1.252638e-04,NaN,1,1,1,1
28,260,1,79,NaN,NaN,1,NaN,1.297928e-04,NaN,0,1,2,1
28,261,1,105,NaN,NaN,1,NaN,1.291884e-04,NaN,0,0,3,1
28,262,1,56,NaN,NaN,1,NaN,1.279814e-04,NaN,2,0,2,1
28,263,1,110,NaN,NaN,2,NaN,1.243586e-04,NaN,0,0,3,1
28,264,1,85,NaN,NaN,1,NaN,1.195297e-04,NaN,2,0,2,1
28,265,1,128,NaN,NaN,1,NaN,1.264717e-04,NaN,0,0,3,1
28,266,1,110,NaN,NaN,1,NaN,1.261700e-04,NaN,2,0,3,1
28,267,1,46,NaN,NaN,1,NaN,1.249630e-04,NaN,0,1,1,1
28,268,1,65,NaN,NaN,1,NaN,1.243586e-04,NaN,0,0,2,1
28,269,1,74,NaN,NaN,1,NaN,1.231516e-04,NaN,0,0,2,1
28,270,1,4,NaN,NaN,1,NaN,1.225481e-04,NaN,0,1,1,1
28,271,1,62,NaN,NaN,2,NaN,1.243595e-04,NaN,0,0,2,1
28,272,1,38,NaN,NaN,1,NaN,1.334138e-04,NaN,1,1,1,1
28,273,1,63,NaN,NaN,1,NaN,1.352252e-04,NaN,2,0,2,1
28,274,1,13,NaN,NaN,1,NaN,1.237551e-04,NaN,1,0,1,1
28,275,1,85,NaN,NaN,1,NaN,1.264717e-04,NaN,0,0,2,1
28,276,1,83,NaN,NaN,1,NaN,1.255665e-04,NaN,2,0,2,1
28,277,1,96,NaN,NaN,2,NaN,1.234533e-04,NaN,0,0,2,1
28,278,1,106,NaN,NaN,2,NaN,1.794445e+00,NaN,1,1,3,1
28,279,1,12,NaN,NaN,1,NaN,4.769987e-01,NaN,0,0,1,1
28,280,1,18,NaN,NaN,1,NaN,6.120846e-01,NaN,0,0,1,1
28,281,1,62,NaN,NaN,1,NaN,5.019783e-01,NaN,1,0,2,1
28,282,1,70,NaN,NaN,1,NaN,1.231516e-04,NaN,2,1,2,1
28,283,1,132,NaN,NaN,1,NaN,1.279805e-04,NaN,2,0,3,1
28,284,1,37,NaN,NaN,1,NaN,1.237551e-04,NaN,1,0,1,1
28,285,1,106,NaN,NaN,1,NaN,1.228498e-04,NaN,0,1,3,1
28,286,1,117,NaN,NaN,1,NaN,1.246603e-04,NaN,0,0,3,1
28,287,1,104,NaN,NaN,2,NaN,1.252647e-04,NaN,0,0,3,1
28,288,1,53,NaN,NaN,1,NaN,1.285849e-04,NaN,2,0,2,1
28,435,2,106,28,2,2,1,1.590297e+00,NaN,1,1,3,1
28,436,2,51,3,2,2,1,1.172910e+00,NaN,1,0,2,1
28,437,2,100,42,1,1,1,1.203781e+00,NaN,1,0,3,1
28,438,2,140,39,1,1,1,2.632877e+00,NaN,1,1,3,1
28,439,2,55,31,2,2,1,1.132972e+00,NaN,1,0,2,1
28,440,2,11,24,2,2,1,9.649262e-01,NaN,1,1,1,1
28,441,2,78,38,1,1,1,1.619925e+00,NaN,1,0,2,1
28,442,2,45,51,1,1,1,1.840213e+00,NaN,1,0,1,1
28,443,2,64,48,1,1,1,1.020110e+00,NaN,1,0,2,1
28,444,2,82,21,2,2,1,6.481913e-01,NaN,1,0,2,1
28,445,2,113,29,2,2,1,9.080926e-01,NaN,1,0,3,1
28,446,2,60,52,2,2,1,1.181331e+00,NaN,1,1,2,1
28,447,2,13,61,2,2,1,1.010996e+00,NaN,1,0,1,1
28,448,2,93,7,2,2,1,8.960419e-01,NaN,1,0,2,1
28,449,2,19,26,2,2,1,7.773047e-01,NaN,1,0,1,1
28,450,2,33,58,1,1,1,1.168204e+00,NaN,1,0,1,1
28,451,2,23,9,2,2,1,1.030915e+00,NaN,1,0,1,1
28,452,2,62,1,2,2,1,1.914939e+00,NaN,1,0,2,1
28,453,2,40,16,1,1,1,8.915260e-01,NaN,1,0,1,1
28,454,2,90,49,2,2,1,9.092704e-01,NaN,1,1,2,1
28,455,2,7,72,1,1,1,8.383749e-01,NaN,1,1,1,1
28,456,2,15,64,2,2,1,2.138320e+00,NaN,1,1,1,1
28,457,2,54,50,2,2,1,9.780977e-01,NaN,1,1,2,1
28,458,2,50,67,1,1,1,1.024505e+00,NaN,1,0,2,1
28,459,3,62,1,1,2,0,1.135544e+00,NaN,1,0,2,1
28,460,3,82,21,2,2,1,6.076780e-01,NaN,1,0,2,1
28,461,3,23,9,2,2,1,6.604470e-01,NaN,1,0,1,1
28,462,3,7,72,1,1,1,1.127827e+00,NaN,1,1,1,1
28,463,3,90,49,2,2,1,1.144248e+00,NaN,1,1,2,1
28,464,3,113,29,2,2,1,9.279856e-01,NaN,1,0,3,1
28,465,3,51,3,2,2,1,5.127700e-01,NaN,1,0,2,1
28,466,3,106,28,1,1,1,1.689514e+00,NaN,1,1,3,1
28,467,3,40,16,1,1,1,5.634376e-01,NaN,1,0,1,1
28,468,3,100,42,1,1,1,4.980474e-01,NaN,1,0,3,1
28,469,3,64,48,1,1,1,4.835544e-01,NaN,1,0,2,1
28,470,3,78,38,1,1,1,7.733786e-01,NaN,1,0,2,1
28,471,3,93,7,1,1,1,8.438624e-01,NaN,1,0,2,1
28,472,3,11,24,1,1,1,6.714984e-01,NaN,1,1,1,1
28,473,3,45,51,1,1,1,1.378348e+00,NaN,1,0,1,1
28,474,3,60,52,1,1,1,6.403108e-01,NaN,1,1,2,1
28,475,3,13,61,1,1,1,7.805304e-01,NaN,1,0,1,1
28,476,3,19,26,1,1,1,1.138230e+00,NaN,1,0,1,1
28,477,3,55,31,2,2,1,8.259073e-01,NaN,1,0,2,1
28,478,3,15,64,1,1,1,1.518238e+00,NaN,1,1,1,1
28,479,3,140,39,2,1,0,1.151445e+00,NaN,1,1,3,1
28,480,3,33,58,1,1,1,8.226900e-01,NaN,1,0,1,1
28,481,3,54,50,1,1,1,8.753530e-01,NaN,1,1,2,1
28,482,3,50,67,1,1,1,6.454346e-01,NaN,1,0,2,1
28,507,2,143,62,2,2,1,1.062940e+00,NaN,1,0,3,2
28,508,2,109,11,2,2,1,7.455614e-01,NaN,1,0,3,2
28,509,2,117,53,1,1,1,8.253839e-01,NaN,1,0,3,2
28,510,2,58,56,1,1,1,9.416352e-01,NaN,1,0,2,2
28,511,2,84,69,1,1,1,1.421451e+00,NaN,1,0,2,2
28,512,2,69,27,1,1,1,3.017577e+00,NaN,1,0,2,2
28,513,2,111,71,1,1,1,9.587043e-01,NaN,1,0,3,2
28,514,2,32,36,1,1,1,1.029742e+00,NaN,1,0,1,2
28,515,2,95,45,1,1,1,8.572527e-01,NaN,1,1,2,2
28,516,2,18,59,2,2,1,1.948496e+00,NaN,1,0,1,2
28,517,2,114,37,1,1,1,7.724845e-01,NaN,1,0,3,2
28,518,2,116,22,1,2,0,2.258781e+00,NaN,1,0,3,2
28,519,2,131,65,2,2,1,7.743490e-01,NaN,1,0,3,2
28,520,2,98,54,2,0,0,3.499516e+00,NaN,1,0,3,2
28,521,2,120,5,1,1,1,1.398611e+00,NaN,1,1,3,2
28,522,2,122,12,2,2,1,1.092206e+00,NaN,1,1,3,2
28,523,2,129,57,1,1,1,2.165672e+00,NaN,1,0,3,2
28,524,2,71,66,1,1,1,1.756259e+00,NaN,1,0,2,2
28,525,2,68,35,1,1,1,2.602975e+00,NaN,1,1,2,2
28,526,2,138,70,2,2,1,2.000613e+00,NaN,1,0,3,2
28,527,2,21,18,2,2,1,1.214117e+00,NaN,1,0,1,2
28,528,2,87,55,1,1,1,6.429703e-01,NaN,1,0,2,2
28,529,2,103,41,1,1,1,1.102275e+00,NaN,1,0,3,2
28,530,2,30,32,1,1,1,8.959752e-01,NaN,1,0,1,2
28,531,3,143,62,1,1,1,1.448941e+00,NaN,1,0,3,2
28,532,3,87,55,2,2,1,9.162436e-01,NaN,1,0,2,2
28,533,3,98,54,1,1,1,1.317211e+00,NaN,1,0,3,2
28,534,3,21,18,1,1,1,7.659134e-01,NaN,1,0,1,2
28,535,3,131,65,1,1,1,4.289125e-01,NaN,1,0,3,2
28,536,3,95,45,1,1,1,8.093256e-01,NaN,1,1,2,2
28,537,3,111,71,1,1,1,8.541154e-01,NaN,1,0,3,2
28,538,3,117,53,1,1,1,1.345294e+00,NaN,1,0,3,2
28,539,3,138,70,2,2,1,2.064878e+00,NaN,1,0,3,2
28,540,3,71,66,1,1,1,5.954142e-01,NaN,1,0,2,2
28,541,3,18,59,2,2,1,8.968294e-01,NaN,1,0,1,2
28,542,3,116,22,1,1,1,2.394628e+00,NaN,1,0,3,2
28,543,3,120,5,1,1,1,1.032881e+00,NaN,1,1,3,2
28,544,3,129,57,2,2,1,2.172485e+00,NaN,1,0,3,2
28,545,3,122,12,2,2,1,1.715022e+00,NaN,1,1,3,2
28,546,3,114,37,1,1,1,6.844242e-01,NaN,1,0,3,2
28,547,3,84,69,2,2,1,9.348280e-01,NaN,1,0,2,2
28,548,3,30,32,2,2,1,4.386822e-01,NaN,1,0,1,2
28,549,3,109,11,1,1,1,8.346456e-01,NaN,1,0,3,2
28,550,3,32,36,2,2,1,7.907019e-01,NaN,1,0,1,2
28,551,3,103,41,2,2,1,9.242285e-01,NaN,1,0,3,2
28,552,3,58,56,2,2,1,7.726403e-01,NaN,1,0,2,2
28,553,3,69,27,1,1,1,9.391006e-01,NaN,1,0,2,2
28,554,3,68,35,2,2,1,9.707288e-01,NaN,1,1,2,2
28,579,2,134,14,1,1,1,9.545087e-01,NaN,1,0,3,3
28,580,2,73,33,2,1,0,1.289788e+00,NaN,1,0,2,3
28,581,2,128,17,2,2,1,9.715912e-01,NaN,1,0,3,3
28,582,2,139,63,2,2,1,7.705443e-01,NaN,1,0,3,3
28,583,2,1,4,1,1,1,8.249263e-01,NaN,1,1,1,3
28,584,2,5,44,2,2,1,1.006009e+00,NaN,1,0,1,3
28,585,2,86,2,2,2,1,6.984272e-01,NaN,1,0,2,3
28,586,2,37,23,2,1,0,1.131871e+00,NaN,1,0,1,3
28,587,2,43,6,1,1,1,1.379659e+00,NaN,1,0,1,3
28,588,2,38,68,1,2,0,8.899519e-01,NaN,1,1,1,3
28,589,2,26,47,2,1,0,1.115383e+00,NaN,1,1,1,3
28,590,2,59,40,2,2,1,1.755782e+00,NaN,1,0,2,3
28,591,2,47,13,2,2,1,1.570696e+00,NaN,1,0,1,3
28,592,2,4,30,1,1,1,1.665861e+00,NaN,1,1,1,3
28,593,2,67,25,1,1,1,6.524325e-01,NaN,1,0,2,3
28,594,2,107,10,1,1,1,7.762926e-01,NaN,1,0,3,3
28,595,2,89,43,1,1,1,6.623649e-01,NaN,1,0,2,3
28,596,2,127,60,1,1,1,1.169088e+00,NaN,1,0,3,3
28,597,2,3,20,2,2,1,1.407900e+00,NaN,1,0,1,3
28,598,2,80,46,1,1,1,1.132614e+00,NaN,1,0,2,3
28,599,2,17,15,2,2,1,9.171470e-01,NaN,1,1,1,3
28,600,2,136,19,2,2,1,7.822528e-01,NaN,1,0,3,3
28,601,2,125,8,1,1,1,1.076341e+00,NaN,1,1,3,3
28,602,2,42,34,2,1,0,1.126745e+00,NaN,1,0,1,3
28,603,3,127,60,1,1,1,1.081024e+00,NaN,1,0,3,3
28,604,3,47,13,1,1,1,7.149365e-01,NaN,1,0,1,3
28,605,3,136,19,1,1,1,7.961647e-01,NaN,1,0,3,3
28,606,3,5,44,2,2,1,6.899337e-01,NaN,1,0,1,3
28,607,3,37,23,1,2,0,1.779619e+00,NaN,1,0,1,3
28,608,3,86,2,1,1,1,7.213561e-01,NaN,1,0,2,3
28,609,3,42,34,2,1,0,1.665955e+00,NaN,1,0,1,3
28,610,3,4,30,2,2,1,1.276552e+00,NaN,1,1,1,3
28,611,3,38,68,2,2,1,2.094889e+00,NaN,1,1,1,3
28,612,3,80,46,2,2,1,1.344920e+00,NaN,1,0,2,3
28,613,3,3,20,2,2,1,1.848834e+00,NaN,1,0,1,3
28,614,3,134,14,1,1,1,1.437337e+00,NaN,1,0,3,3
28,615,3,67,25,2,2,1,6.161456e-01,NaN,1,0,2,3
28,616,3,125,8,2,2,1,2.372808e+00,NaN,1,1,3,3
28,617,3,17,15,2,2,1,2.290901e+00,NaN,1,1,1,3
28,618,3,26,47,2,1,0,7.725063e-01,NaN,1,1,1,3
28,619,3,73,33,1,2,0,2.074959e+00,NaN,1,0,2,3
28,620,3,1,4,2,2,1,2.613533e+00,NaN,1,1,1,3
28,621,3,89,43,2,2,1,1.545850e+00,NaN,1,0,2,3
28,622,3,128,17,2,0,0,3.499905e+00,NaN,1,0,3,3
28,623,3,139,63,2,2,1,6.112929e-01,NaN,1,0,3,3
28,624,3,59,40,1,1,1,1.152988e+00,NaN,1,0,2,3
28,625,3,43,6,1,1,1,1.495350e+00,NaN,1,0,1,3
28,626,3,107,10,1,1,1,9.852140e-01,NaN,1,0,3,3
28,651,4,66,58,2,2,1,2.037765e+00,NaN,2,0,2,1
28,652,4,133,64,1,1,1,8.899054e-01,NaN,2,1,3,1
28,653,4,96,29,1,1,1,7.711939e-01,NaN,2,0,2,1
28,654,4,94,60,2,2,1,1.145981e+00,NaN,2,0,2,1
28,655,4,91,42,2,2,1,1.737477e+00,NaN,2,0,2,1
28,656,4,28,53,1,1,1,1.569360e+00,NaN,2,0,1,1
28,657,4,75,37,2,2,1,1.080231e+00,NaN,2,0,2,1
28,658,4,121,32,2,2,1,1.250197e+00,NaN,2,0,3,1
28,659,4,20,55,1,1,1,1.518183e+00,NaN,2,0,1,1
28,660,4,63,51,1,0,0,3.500102e+00,NaN,2,0,2,1
28,661,4,29,71,1,1,1,6.561017e-01,NaN,2,0,1,1
28,662,4,76,63,1,1,1,6.674715e-01,NaN,2,0,2,1
28,663,4,88,5,1,1,1,7.100611e-01,NaN,2,1,2,1
28,664,4,53,23,2,2,1,1.207035e+00,NaN,2,0,2,1
28,665,4,137,47,2,2,1,1.372374e+00,NaN,2,1,3,1
28,666,4,123,9,2,2,1,2.226932e+00,NaN,2,0,3,1
28,667,4,8,66,1,2,0,5.592363e-01,NaN,2,0,1,1
28,668,4,99,38,2,2,1,4.309007e-01,NaN,2,0,3,1
28,669,4,108,48,1,1,1,1.043247e+00,NaN,2,0,3,1
28,670,4,79,39,1,1,1,7.427673e-01,NaN,2,1,2,1
28,671,4,39,70,1,1,1,6.306654e-01,NaN,2,0,1,1
28,672,4,6,27,2,2,1,1.394701e+00,NaN,2,0,1,1
28,673,4,142,16,1,1,1,1.968513e+00,NaN,2,0,3,1
28,674,4,27,54,2,2,1,1.263255e+00,NaN,2,0,1,1
28,699,4,104,40,1,1,1,2.895307e+00,NaN,2,0,3,2
28,700,4,10,3,2,2,1,7.369197e-01,NaN,2,0,1,2
28,701,4,74,61,2,2,1,1.096393e+00,NaN,2,0,2,2
28,702,4,31,62,1,1,1,7.059887e-01,NaN,2,0,1,2
28,703,4,61,26,2,2,1,6.271290e-01,NaN,2,0,2,2
28,704,4,101,35,1,1,1,1.656043e+00,NaN,2,1,3,2
28,705,4,115,67,2,1,0,7.069923e-01,NaN,2,0,3,2
28,706,4,65,34,1,1,1,7.000593e-01,NaN,2,0,2,2
28,707,4,141,72,1,1,1,5.341142e-01,NaN,2,1,3,2
28,708,4,22,52,2,2,1,7.344590e-01,NaN,2,1,1,2
28,709,4,112,31,2,2,1,1.614994e+00,NaN,2,0,3,2
28,710,4,118,7,2,2,1,1.019570e+00,NaN,2,0,3,2
28,711,4,2,69,2,2,1,8.880615e-01,NaN,2,0,1,2
28,712,4,9,45,1,0,0,3.500077e+00,NaN,2,1,1,2
28,713,4,144,30,2,2,1,8.426943e-01,NaN,2,1,3,2
28,714,4,105,1,2,2,1,7.109555e-01,NaN,2,0,3,2
28,715,4,119,50,2,2,1,7.840738e-01,NaN,2,1,3,2
28,716,4,130,59,2,2,1,2.262733e+00,NaN,2,0,3,2
28,717,4,70,15,2,2,1,1.025276e+00,NaN,2,1,2,2
28,718,4,135,36,1,1,1,1.837828e+00,NaN,2,0,3,2
28,719,4,41,57,1,1,1,1.737464e+00,NaN,2,0,1,2
28,720,4,83,14,2,0,0,3.500008e+00,NaN,2,0,2,2
28,721,4,35,8,2,1,0,8.343070e-01,NaN,2,1,1,2
28,722,4,102,33,2,2,1,1.166803e+00,NaN,2,0,3,2
28,747,4,92,22,2,1,0,8.147684e-01,NaN,2,0,2,3
28,748,4,57,24,1,2,0,7.236111e-01,NaN,2,1,2,3
28,749,4,14,21,2,2,1,1.075982e+00,NaN,2,0,1,3
28,750,4,81,11,1,2,0,1.370357e-04,NaN,2,0,2,3
28,751,4,77,17,2,1,0,1.131654e+00,NaN,2,0,2,3
28,752,4,49,44,1,2,0,1.240617e-01,NaN,2,0,2,3
28,753,4,124,4,1,1,1,2.308093e+00,NaN,2,1,3,3
28,754,4,85,41,1,1,1,1.358287e-04,NaN,2,0,2,3
28,755,4,52,68,2,1,0,1.403568e-04,NaN,2,1,2,3
28,756,4,48,28,1,2,0,1.430735e-04,NaN,2,1,1,3
28,757,4,24,2,1,1,1,1.403568e-04,NaN,2,0,1,3
28,758,4,44,10,1,1,1,1.355279e-04,NaN,2,0,1,3
28,759,4,126,20,2,1,0,1.316033e-04,NaN,2,0,3,3
28,760,4,36,65,1,1,1,1.316033e-04,NaN,2,0,1,3
28,761,4,34,19,2,1,0,1.451867e-04,NaN,2,0,1,3
28,762,4,72,18,1,1,1,1.297928e-04,NaN,2,0,2,3
28,763,4,110,56,2,1,0,1.331130e-04,NaN,2,0,3,3
28,764,4,25,43,1,2,0,1.382437e-04,NaN,2,0,1,3
28,765,4,12,25,2,2,1,1.788126e-01,NaN,2,0,1,3
28,766,4,132,13,2,0,0,3.500043e+00,NaN,2,0,3,3
28,767,4,46,12,1,0,0,3.499650e+00,NaN,2,1,1,3
28,768,4,97,46,2,0,0,3.499748e+00,NaN,2,0,3,3
28,769,4,56,6,1,0,0,3.499834e+00,NaN,2,0,2,3
28,770,4,16,49,2,0,0,3.499843e+00,NaN,2,1,1,3
28,771,5,5.110000e+01,3,2,2,1,8.434824e-01,1,1,0,2.100000e+00,1
28,772,5,1.348300e+02,14,3,0,0,2.500109e+00,1,1,0,3.200000e+00,1
28,773,5,4.356000e+01,6,1,1,1,3.283906e-01,1,1,0,1.200000e+00,1
28,774,5,6.906000e+01,27,2,3,0,7.774028e-01,1,1,0,2.100000e+00,1
28,775,5,1.397600e+02,63,3,3,1,7.714540e-01,1,1,0,3.200000e+00,1
28,776,5,6.712000e+01,25,2,2,1,3.888185e-01,1,1,0,2.100000e+00,1
28,777,5,1.139600e+02,29,3,3,1,4.224573e-01,1,1,0,3.200000e+00,1
28,778,5,1.348300e+02,14,3,2,0,1.500609e+00,2,1,0,3.200000e+00,1
28,779,5,1.112900e+02,71,3,1,0,4.338540e-01,1,1,0,3.100000e+00,1
28,780,5,8.214000e+01,21,2,3,0,8.757922e-01,1,1,0,2.100000e+00,1
28,781,5,1.038500e+02,41,3,3,1,4.617756e-01,1,1,0,3.200000e+00,1
28,782,5,8.624000e+01,2,2,1,0,5.348175e-01,1,1,0,2.100000e+00,1
28,783,5,2.423000e+01,9,1,1,1,2.485829e-01,1,1,0,1.300000e+00,1
28,784,5,1.961000e+01,26,1,1,1,1.623910e-04,1,1,0,1.200000e+00,1
28,785,5,1.294100e+02,57,3,2,0,1.491103e-04,1,1,0,3.100000e+00,1
28,786,5,1.139600e+02,29,3,3,1,1.397533e-04,2,1,0,3.200000e+00,1
28,787,5,4.832000e+01,13,1,2,0,1.415638e-04,1,1,0,1.300000e+00,1
28,788,5,3.753000e+01,23,1,2,0,1.436770e-04,1,1,0,1.200000e+00,1
28,789,5,7.108000e+01,66,2,1,0,1.648059e-04,1,1,0,2.100000e+00,1
28,790,5,1.279400e+02,60,3,0,0,2.500064e+00,1,1,0,3.200000e+00,1
28,791,5,9.418000e+01,7,2,2,1,1.631338e+00,1,1,0,2.300000e+00,1
28,792,5,1.294100e+02,57,3,2,0,1.397533e-04,2,1,0,3.100000e+00,1
28,793,5,5.490000e+00,44,1,1,1,4.748061e-01,1,1,0,1.200000e+00,1
28,794,5,9.827000e+01,54,3,3,1,5.565058e-01,1,1,0,3.100000e+00,1
28,795,5,1.383900e+02,70,3,3,1,4.300903e-01,1,1,0,3.100000e+00,1
28,796,5,7.108000e+01,66,2,2,1,3.593333e-01,2,1,0,2.100000e+00,1
28,797,5,1.383900e+02,70,3,2,0,6.329274e-01,2,1,0,3.100000e+00,1
28,798,5,1.294100e+02,57,3,2,0,3.546391e-01,3,1,0,3.100000e+00,1
28,799,5,9.418000e+01,7,2,2,1,3.241298e-01,2,1,0,2.300000e+00,1
28,800,5,1.147500e+02,37,3,3,1,1.587691e-04,1,1,0,3.200000e+00,1
28,801,5,1.172800e+02,53,3,1,0,1.412621e-04,1,1,0,3.100000e+00,1
28,802,5,2.172000e+01,18,1,1,1,1.379419e-04,1,1,0,1.200000e+00,1
28,803,5,1.348300e+02,14,3,3,1,1.442805e-04,3,1,0,3.200000e+00,1
28,804,5,4.265000e+01,34,1,2,0,1.472989e-04,1,1,0,1.200000e+00,1
28,805,5,4.260000e+00,20,1,1,1,1.620892e-04,1,1,0,1.300000e+00,1
28,806,5,1.009100e+02,42,3,1,0,1.693331e-04,1,1,0,3.200000e+00,1
28,807,5,6.004000e+01,40,2,2,1,1.439787e-04,1,1,0,2.300000e+00,1
28,808,5,1.074400e+02,10,3,2,0,1.391489e-04,1,1,0,3.100000e+00,1
28,809,5,1.112900e+02,71,3,2,0,1.406586e-04,2,1,0,3.100000e+00,1
28,810,5,5.115000e+01,67,2,1,0,1.442805e-04,1,1,0,2.300000e+00,1
28,811,5,1.930000e+01,59,1,3,0,1.645042e-04,1,1,0,1.300000e+00,1
28,812,5,8.214000e+01,21,2,2,1,1.397524e-04,2,1,0,2.100000e+00,1
28,813,5,1.374000e+01,61,1,1,1,1.412621e-04,1,1,0,1.200000e+00,1
28,814,5,5.612000e+01,31,2,2,1,1.406586e-04,1,1,0,2.300000e+00,1
28,815,5,1.313600e+02,65,3,3,1,1.518270e-04,1,1,0,3.100000e+00,1
28,816,5,4.265000e+01,34,1,0,0,2.500585e+00,2,1,0,1.200000e+00,1
28,817,5,1.009100e+02,42,3,3,1,1.397524e-04,2,1,0,3.200000e+00,1
28,818,5,1.169200e+02,22,3,2,0,2.378490e-01,1,1,0,3.200000e+00,1
28,819,5,3.335000e+01,36,1,1,1,1.415638e-04,1,1,0,1.300000e+00,1
28,820,5,4.563000e+01,51,1,1,1,1.485059e-04,1,1,0,1.200000e+00,1
28,821,5,1.374000e+01,61,1,1,1,1.400551e-04,2,1,0,1.200000e+00,1
28,822,5,1.112900e+02,71,3,3,1,1.506191e-04,3,1,0,3.100000e+00,1
28,823,5,8.624000e+01,2,2,1,0,1.454875e-04,2,1,0,2.100000e+00,1
28,824,5,1.363400e+02,19,3,1,0,1.476016e-04,1,1,0,3.100000e+00,1
28,825,5,2.423000e+01,9,1,1,1,1.596753e-04,2,1,0,1.300000e+00,1
28,826,5,8.624000e+01,2,2,1,0,1.406586e-04,3,1,0,2.100000e+00,1
28,827,5,1.038500e+02,41,3,3,1,1.424700e-04,2,1,0,3.200000e+00,1
28,828,5,6.712000e+01,25,2,2,1,1.388472e-04,2,1,0,2.100000e+00,1
28,829,5,1.287700e+02,17,3,0,0,2.500281e+00,1,1,0,3.200000e+00,1
28,830,5,6.004000e+01,40,2,3,0,5.154604e-01,2,1,0,2.300000e+00,1
28,831,5,8.402000e+01,69,2,3,0,6.867336e-02,1,1,0,2.100000e+00,1
28,832,5,5.110000e+01,3,2,2,1,1.412621e-04,2,1,0,2.100000e+00,1
28,833,5,6.906000e+01,27,2,2,1,1.406586e-04,2,1,0,2.100000e+00,1
28,834,5,3.753000e+01,23,1,2,0,1.454884e-04,2,1,0,1.200000e+00,1
28,835,5,1.397600e+02,63,3,2,0,1.421673e-04,2,1,0,3.200000e+00,1
28,836,5,5.612000e+01,31,2,2,1,1.448840e-04,2,1,0,2.300000e+00,1
28,837,5,4.356000e+01,6,1,2,0,1.382437e-04,2,1,0,1.200000e+00,1
28,838,5,2.172000e+01,18,1,2,0,1.415638e-04,2,1,0,1.200000e+00,1
28,839,5,6.906000e+01,27,2,1,0,1.515253e-04,3,1,0,2.100000e+00,1
28,840,5,7.899000e+01,38,2,1,0,1.385454e-04,1,1,0,2.300000e+00,1
28,841,5,4.142000e+01,16,1,2,0,1.406586e-04,1,1,0,1.300000e+00,1
28,842,5,4.265000e+01,34,1,3,0,5.659785e-02,3,1,0,1.200000e+00,1
28,843,5,3.753000e+01,23,1,3,0,1.379419e-04,3,1,0,1.200000e+00,1
28,844,5,8.624000e+01,2,2,3,0,2.116817e-01,4,1,0,2.100000e+00,1
28,845,5,8.214000e+01,21,2,2,1,2.370519e-01,3,1,0,2.100000e+00,1
28,846,5,2.423000e+01,9,1,1,1,1.264116e-01,3,1,0,1.300000e+00,1
28,847,5,6.508000e+01,48,2,3,0,1.409603e-04,1,1,0,2.300000e+00,1
28,848,5,2.423000e+01,9,1,1,1,1.030942e-02,4,1,0,1.300000e+00,1
28,849,5,7.899000e+01,38,2,3,0,3.317537e-01,2,1,0,2.300000e+00,1
28,850,5,4.260000e+00,20,1,1,1,1.448840e-04,2,1,0,1.300000e+00,1
28,851,5,1.961000e+01,26,1,1,1,1.514811e-01,2,1,0,1.200000e+00,1
28,852,5,4.356000e+01,6,1,2,0,1.379419e-04,3,1,0,1.200000e+00,1
28,853,5,4.832000e+01,13,1,1,1,1.421673e-04,2,1,0,1.300000e+00,1
28,854,5,1.930000e+01,59,1,3,0,7.665527e-02,2,1,0,1.300000e+00,1
28,855,5,1.279400e+02,60,3,1,0,1.504059e-01,2,1,0,3.200000e+00,1
28,856,5,5.115000e+01,67,2,1,0,2.240286e-01,2,1,0,2.300000e+00,1
28,857,5,4.142000e+01,16,1,1,1,1.482046e-03,2,1,0,1.300000e+00,1
28,858,5,9.827000e+01,54,3,1,0,2.355457e-01,2,1,0,3.100000e+00,1
28,859,5,1.074400e+02,10,3,2,0,4.134195e-01,2,1,0,3.100000e+00,1
28,860,5,6.004000e+01,40,2,2,1,1.412621e-04,3,1,0,2.300000e+00,1
28,861,5,1.172800e+02,53,3,2,0,8.049893e-02,2,1,0,3.100000e+00,1
28,862,5,5.490000e+00,44,1,0,0,2.500015e+00,2,1,0,1.200000e+00,1
28,863,5,1.098100e+02,11,3,3,1,7.400229e-01,1,1,0,3.200000e+00,1
28,864,5,1.374000e+01,61,1,1,1,1.141350e+00,3,1,0,1.200000e+00,1
28,865,5,5.910000e+01,56,2,2,1,2.073521e-01,1,1,0,2.300000e+00,1
28,866,5,8.720000e+01,55,2,2,1,1.457892e-04,1,1,0,2.100000e+00,1
28,867,5,3.121000e+01,32,1,1,1,1.421673e-04,1,1,0,1.300000e+00,1
28,868,5,4.832000e+01,13,1,2,0,3.158819e-01,3,1,0,1.300000e+00,1
28,869,5,8.097000e+01,46,2,2,1,4.067935e-01,1,1,0,2.300000e+00,1
28,870,5,5.910000e+01,56,2,2,1,1.442814e-04,2,1,0,2.300000e+00,1
28,871,5,1.279400e+02,60,3,2,0,1.607078e-01,3,1,0,3.200000e+00,1
28,872,5,5.490000e+00,44,1,3,0,4.249970e-02,3,1,0,1.200000e+00,1
28,873,5,1.374000e+01,61,1,2,0,1.292385e+00,4,1,0,1.200000e+00,1
28,874,5,3.121000e+01,32,1,1,1,5.822720e-01,2,1,0,1.300000e+00,1
28,875,5,8.402000e+01,69,2,2,1,5.915400e-01,2,1,0,2.100000e+00,1
28,876,5,1.287700e+02,17,3,3,1,2.812546e-01,2,1,0,3.200000e+00,1
28,877,5,1.930000e+01,59,1,2,0,3.305068e-01,3,1,0,1.300000e+00,1
28,878,5,6.004000e+01,40,2,1,0,6.921383e-01,4,1,0,2.300000e+00,1
28,879,5,1.009100e+02,42,3,0,0,2.500362e+00,3,1,0,3.200000e+00,1
28,880,5,1.433100e+02,62,3,0,0,2.500089e+00,1,1,0,3.100000e+00,1
28,881,5,4.260000e+00,20,1,0,0,2.500505e+00,3,1,0,1.300000e+00,1
28,882,5,5.612000e+01,31,2,3,0,6.602408e-01,3,1,0,2.300000e+00,1
28,883,5,6.305000e+01,1,2,1,0,1.053760e+00,1,1,0,2.300000e+00,1
28,884,5,6.508000e+01,48,2,1,0,1.599528e+00,2,1,0,2.300000e+00,1
28,885,5,1.098100e+02,11,3,0,0,2.500551e+00,2,1,0,3.200000e+00,1
28,886,5,1.098100e+02,11,3,0,0,2.500083e+00,3,1,0,3.200000e+00,1
28,887,5,4.356000e+01,6,1,0,0,2.500493e+00,4,1,0,1.200000e+00,1
28,888,5,4.563000e+01,51,1,0,0,2.500556e+00,2,1,0,1.200000e+00,1
28,889,5,4.142000e+01,16,1,0,0,2.500122e+00,3,1,0,1.300000e+00,1
28,890,5,2.172000e+01,18,1,0,0,2.500442e+00,3,1,0,1.200000e+00,1
28,891,5,8.097000e+01,46,2,3,0,9.415881e-02,2,1,0,2.300000e+00,1
28,892,5,1.098100e+02,11,3,2,0,1.088172e+00,4,1,0,3.200000e+00,1
28,893,5,4.832000e+01,13,1,1,1,7.218493e-01,4,1,0,1.300000e+00,1
28,894,5,1.279400e+02,60,3,2,0,1.448840e-04,4,1,0,3.200000e+00,1
28,895,5,8.925000e+01,43,2,2,1,1.476007e-04,1,1,0,2.100000e+00,1
28,896,5,3.335000e+01,36,1,1,1,1.430726e-04,2,1,0,1.300000e+00,1
28,897,5,4.260000e+00,20,1,1,1,1.418665e-04,4,1,0,1.300000e+00,1
28,898,5,1.433100e+02,62,3,1,0,1.373384e-04,2,1,0,3.100000e+00,1
28,899,5,6.712000e+01,25,2,2,1,1.617875e-04,3,1,0,2.100000e+00,1
28,900,5,7.899000e+01,38,2,3,0,1.397533e-04,3,1,0,2.300000e+00,1
28,901,5,6.712000e+01,25,2,2,1,1.563551e-04,4,1,0,2.100000e+00,1
28,902,5,1.930000e+01,59,1,1,1,1.430735e-04,4,1,0,1.300000e+00,1
28,903,5,6.305000e+01,1,2,1,0,1.436770e-04,2,1,0,2.300000e+00,1
28,904,5,1.074400e+02,10,3,2,0,1.702392e-04,3,1,0,3.100000e+00,1
28,905,5,6.906000e+01,27,2,2,1,1.539392e-04,4,1,0,2.100000e+00,1
28,906,5,7.899000e+01,38,2,2,1,1.388472e-04,4,1,0,2.300000e+00,1
28,907,5,1.313600e+02,65,3,2,0,1.394507e-04,2,1,0,3.100000e+00,1
28,908,5,5.910000e+01,56,2,3,0,1.421673e-04,3,1,0,2.300000e+00,1
28,909,5,1.287700e+02,17,3,2,0,1.463937e-04,3,1,0,3.200000e+00,1
28,910,5,8.402000e+01,69,2,3,0,1.427718e-04,3,1,0,2.100000e+00,1
28,911,5,4.563000e+01,51,1,0,0,2.500115e+00,3,1,0,1.200000e+00,1
28,912,5,3.366000e+01,58,1,3,0,2.491850e+00,1,1,0,1.200000e+00,1
28,913,5,1.169200e+02,22,3,2,0,1.406586e-04,2,1,0,3.200000e+00,1
28,914,5,1.169200e+02,22,3,3,1,1.430726e-04,3,1,0,3.200000e+00,1
28,915,5,5.110000e+01,3,2,2,1,1.581656e-04,3,1,0,2.100000e+00,1
28,916,5,1.363400e+02,19,3,2,0,1.421673e-04,2,1,0,3.100000e+00,1
28,917,5,1.009100e+02,42,3,3,1,1.385454e-04,4,1,0,3.200000e+00,1
28,918,5,2.172000e+01,18,1,1,1,1.409603e-04,4,1,0,1.200000e+00,1
28,919,5,1.313600e+02,65,3,3,1,1.394516e-04,3,1,0,3.100000e+00,1
28,920,5,8.097000e+01,46,2,2,1,1.596743e-04,3,1,0,2.300000e+00,1
28,921,5,6.508000e+01,48,2,1,0,1.433752e-04,3,1,0,2.300000e+00,1
28,922,5,4.563000e+01,51,1,1,1,1.463927e-04,4,1,0,1.200000e+00,1
28,923,5,7.402000e+01,33,2,2,1,1.391498e-04,1,1,0,2.300000e+00,1
28,924,5,5.612000e+01,31,2,2,1,1.406586e-04,4,1,0,2.300000e+00,1
28,925,5,1.961000e+01,26,1,1,1,1.415638e-04,3,1,0,1.200000e+00,1
28,926,5,1.363400e+02,19,3,3,1,1.391489e-04,3,1,0,3.100000e+00,1
28,927,5,1.961000e+01,26,1,1,1,1.388472e-04,4,1,0,1.200000e+00,1
28,928,5,1.383900e+02,70,3,2,0,1.533357e-04,3,1,0,3.100000e+00,1
28,929,5,9.418000e+01,7,2,2,1,1.454884e-04,3,1,0,2.300000e+00,1
28,930,5,5.910000e+01,56,2,2,1,1.418656e-04,4,1,0,2.300000e+00,1
28,931,5,6.508000e+01,48,2,2,1,1.421683e-04,4,1,0,2.300000e+00,1
28,932,5,8.720000e+01,55,2,2,1,1.439787e-04,2,1,0,2.100000e+00,1
28,933,5,8.402000e+01,69,2,2,1,1.215842e-01,4,1,0,2.100000e+00,1
28,934,5,3.121000e+01,32,1,0,0,2.500242e+00,3,1,0,1.300000e+00,1
28,935,5,6.305000e+01,1,2,0,0,2.500533e+00,3,1,0,2.300000e+00,1
28,936,5,4.142000e+01,16,1,2,0,4.475821e-01,4,1,0,1.300000e+00,1
28,937,5,8.097000e+01,46,2,1,0,1.096644e+00,4,1,0,2.300000e+00,1
28,938,5,3.753000e+01,23,1,3,0,1.406586e-04,4,1,0,1.200000e+00,1
28,939,5,8.925000e+01,43,2,2,1,1.409603e-04,2,1,0,2.100000e+00,1
28,940,5,5.115000e+01,67,2,2,1,1.620892e-04,3,1,0,2.300000e+00,1
28,941,5,1.112900e+02,71,3,3,1,1.427708e-04,4,1,0,3.100000e+00,1
28,942,5,3.335000e+01,36,1,1,1,1.445832e-04,3,1,0,1.300000e+00,1
28,943,5,1.074400e+02,10,3,2,0,4.026012e-01,4,1,0,3.100000e+00,1
28,944,5,1.433100e+02,62,3,1,0,1.436770e-04,3,1,0,3.100000e+00,1
28,945,5,8.720000e+01,55,2,2,1,1.403568e-04,3,1,0,2.100000e+00,1
28,946,5,5.490000e+00,44,1,1,1,1.382446e-04,4,1,0,1.200000e+00,1
28,947,5,1.147500e+02,37,3,3,1,1.494121e-04,2,1,0,3.200000e+00,1
28,948,5,1.313600e+02,65,3,3,1,1.451857e-04,4,1,0,3.100000e+00,1
28,949,5,1.433100e+02,62,3,3,1,1.397533e-04,4,1,0,3.100000e+00,1
28,950,5,7.402000e+01,33,2,2,1,1.415638e-04,2,1,0,2.300000e+00,1
28,951,5,6.305000e+01,1,2,3,0,1.406586e-04,4,1,0,2.300000e+00,1
28,952,5,1.172800e+02,53,3,1,0,1.394516e-04,3,1,0,3.100000e+00,1
28,953,5,1.172800e+02,53,3,3,1,1.476007e-04,4,1,0,3.100000e+00,1
28,954,5,7.108000e+01,66,2,1,0,1.382437e-04,3,1,0,2.100000e+00,1
28,955,5,5.115000e+01,67,2,2,1,1.442805e-04,4,1,0,2.300000e+00,1
28,956,5,4.265000e+01,34,1,2,0,1.697691e-01,4,1,0,1.200000e+00,1
28,957,5,1.397600e+02,63,3,3,1,1.412630e-04,3,1,0,3.200000e+00,1
28,958,5,1.139600e+02,29,3,3,1,1.663156e-04,3,1,0,3.200000e+00,1
28,959,5,5.110000e+01,3,2,2,1,1.400551e-04,4,1,0,2.100000e+00,1
28,960,5,7.108000e+01,66,2,2,1,1.418665e-04,4,1,0,2.100000e+00,1
28,961,5,1.139600e+02,29,3,3,1,1.485059e-04,4,1,0,3.200000e+00,1
28,962,5,3.366000e+01,58,1,1,1,1.436770e-04,2,1,0,1.200000e+00,1
28,963,5,1.038500e+02,41,3,2,0,1.412621e-04,3,1,0,3.200000e+00,1
28,964,5,8.925000e+01,43,2,2,1,1.460919e-04,3,1,0,2.100000e+00,1
28,965,5,8.214000e+01,21,2,2,1,1.418656e-04,4,1,0,2.100000e+00,1
28,966,5,1.397600e+02,63,3,2,0,1.385454e-04,4,1,0,3.200000e+00,1
28,967,5,9.827000e+01,54,3,2,0,1.466954e-04,3,1,0,3.100000e+00,1
28,968,5,1.287700e+02,17,3,2,0,1.439787e-04,4,1,0,3.200000e+00,1
28,969,5,8.925000e+01,43,2,2,1,6.648980e-01,4,1,0,2.100000e+00,1
28,970,5,1.383900e+02,70,3,0,0,2.500356e+00,4,1,0,3.100000e+00,1
28,971,5,7.402000e+01,33,2,3,0,9.639896e-01,3,1,0,2.300000e+00,1
28,972,5,1.294100e+02,57,3,1,0,4.056202e-01,4,1,0,3.100000e+00,1
28,973,5,1.038500e+02,41,3,2,0,1.427708e-04,4,1,0,3.200000e+00,1
28,974,5,1.348300e+02,14,3,3,1,1.418656e-04,4,1,0,3.200000e+00,1
28,975,5,7.402000e+01,33,2,2,1,1.454875e-04,4,1,0,2.300000e+00,1
28,976,5,1.169200e+02,22,3,1,0,1.409603e-04,4,1,0,3.200000e+00,1
28,977,5,1.147500e+02,37,3,3,1,1.388481e-04,3,1,0,3.200000e+00,1
28,978,5,3.121000e+01,32,1,1,1,1.409613e-04,4,1,0,1.300000e+00,1
28,979,5,9.827000e+01,54,3,2,0,1.421683e-04,4,1,0,3.100000e+00,1
28,980,5,3.366000e+01,58,1,1,1,1.427708e-04,3,1,0,1.200000e+00,1
28,981,5,3.366000e+01,58,1,1,1,1.488086e-04,4,1,0,1.200000e+00,1
28,982,5,1.147500e+02,37,3,3,1,1.424700e-04,4,1,0,3.200000e+00,1
28,983,5,9.418000e+01,7,2,2,1,1.394507e-04,4,1,0,2.300000e+00,1
28,984,5,1.363400e+02,19,3,0,0,2.500491e+00,4,1,0,3.100000e+00,1
28,985,5,3.335000e+01,36,1,1,1,1.584673e-04,4,1,0,1.300000e+00,1
28,986,5,8.720000e+01,55,2,2,1,6.303977e-02,4,1,0,2.100000e+00,1
28,987,6,44,10,2,1,0,2.433854e+00,NaN,2,0,1,1
28,988,6,39,70,2,2,1,1.032022e+00,NaN,2,0,1,1
28,989,6,79,39,1,1,1,8.609944e-01,NaN,2,1,2,1
28,990,6,34,19,2,1,0,9.855043e-01,NaN,2,0,1,1
28,991,6,77,17,1,2,0,5.605251e-01,NaN,2,0,2,1
28,992,6,72,18,1,1,1,8.167959e-01,NaN,2,0,2,1
28,993,6,70,15,2,2,1,1.062431e+00,NaN,2,1,2,1
28,994,6,12,25,2,2,1,9.216786e-01,NaN,2,0,1,1
28,995,6,63,51,2,1,0,7.070922e-01,NaN,2,0,2,1
28,996,6,61,26,2,2,1,5.253913e-01,NaN,2,0,2,1
28,997,6,24,2,2,1,0,6.392073e-01,NaN,2,0,1,1
28,998,6,65,34,2,2,1,8.357284e-01,NaN,2,0,2,1
28,999,6,74,61,2,2,1,5.768765e-01,NaN,2,0,2,1
28,1000,6,49,44,2,1,0,9.920000e-01,NaN,2,0,2,1
28,1001,6,142,16,1,1,1,1.007008e+00,NaN,2,0,3,1
28,1002,6,110,56,1,2,0,6.939325e-01,NaN,2,0,3,1
28,1003,6,22,52,1,1,1,2.647115e-01,NaN,2,1,1,1
28,1004,6,104,40,2,1,0,1.524305e-04,NaN,2,0,3,1
28,1005,6,76,63,1,1,1,1.337165e-04,NaN,2,0,2,1
28,1006,6,46,12,2,1,0,1.349235e-04,NaN,2,1,1,1
28,1007,6,9,45,1,2,0,1.355270e-04,NaN,2,1,1,1
28,1008,6,53,23,2,2,1,1.349235e-04,NaN,2,0,2,1
28,1009,6,52,68,2,1,0,1.364332e-04,NaN,2,1,2,1
28,1010,6,83,14,2,2,1,1.349235e-04,NaN,2,0,2,1
28,1011,6,91,42,1,2,0,1.403568e-04,NaN,2,0,2,1
28,1012,6,144,30,2,1,0,1.379419e-04,NaN,2,1,3,1
28,1013,6,25,43,1,1,1,1.343200e-04,NaN,2,0,1,1
28,1014,6,126,20,1,2,0,1.300937e-04,NaN,2,0,3,1
28,1015,6,118,7,1,2,0,1.325086e-04,NaN,2,0,3,1
28,1016,6,132,13,2,2,1,1.337156e-04,NaN,2,0,3,1
28,1017,6,28,53,2,1,0,1.349235e-04,NaN,2,0,1,1
28,1018,6,101,35,1,2,0,1.557507e-04,NaN,2,1,3,1
28,1019,6,119,50,2,1,0,1.346217e-04,NaN,2,1,3,1
28,1020,6,85,41,1,1,1,1.325086e-04,NaN,2,0,2,1
28,1021,6,92,22,2,1,0,1.415648e-04,NaN,2,0,2,1
28,1022,6,20,55,1,1,1,1.367349e-04,NaN,2,0,1,1
28,1023,6,99,38,1,1,1,1.412630e-04,NaN,2,0,3,1
28,1024,6,123,9,1,2,0,1.349235e-04,NaN,2,0,3,1
28,1025,6,141,72,2,1,0,1.654094e-04,NaN,2,1,3,1
28,1026,6,35,8,1,2,0,1.337165e-04,NaN,2,1,1,1
28,1027,6,31,62,1,2,0,1.340182e-04,NaN,2,0,1,1
28,1028,6,96,29,2,2,1,1.334138e-04,NaN,2,0,2,1
28,1029,6,2,69,2,2,1,1.319051e-04,NaN,2,0,1,1
28,1030,6,57,24,1,1,1,1.334138e-04,NaN,2,1,2,1
28,1031,6,16,49,1,2,0,1.424700e-04,NaN,2,1,1,1
28,1032,6,41,57,1,1,1,1.352252e-04,NaN,2,0,1,1
28,1033,6,124,4,1,1,1,1.325095e-04,NaN,2,1,3,1
28,1034,6,130,59,1,1,1,1.391489e-04,NaN,2,0,3,1
28,1035,6,121,32,1,1,1,1.400551e-04,NaN,2,0,3,1
28,1036,6,94,60,2,2,1,1.352262e-04,NaN,2,0,2,1
28,1037,6,102,33,2,2,1,1.373384e-04,NaN,2,0,3,1
28,1038,6,88,5,1,2,0,1.309998e-04,NaN,2,1,2,1
28,1039,6,137,47,2,1,0,1.397533e-04,NaN,2,1,3,1
28,1040,6,27,54,1,1,1,1.581647e-04,NaN,2,0,1,1
28,1041,6,97,46,1,2,0,1.521287e-04,NaN,2,0,3,1
28,1042,6,8,66,2,2,1,1.379419e-04,NaN,2,0,1,1
28,1043,6,14,21,2,2,1,1.340182e-04,NaN,2,0,1,1
28,1044,6,48,28,1,2,0,1.316033e-04,NaN,2,1,1,1
28,1045,6,6,27,2,1,0,1.334138e-04,NaN,2,0,1,1
28,1046,6,66,58,2,2,1,1.316033e-04,NaN,2,0,2,1
28,1047,6,112,31,1,1,1,1.370367e-04,NaN,2,0,3,1
28,1048,6,108,48,2,2,1,1.340182e-04,NaN,2,0,3,1
28,1049,6,29,71,2,1,0,1.361314e-04,NaN,2,0,1,1
28,1050,6,56,6,2,1,0,1.421673e-04,NaN,2,0,2,1
28,1051,6,105,1,1,1,1,1.334138e-04,NaN,2,0,3,1
28,1052,6,135,36,2,2,1,1.388481e-04,NaN,2,0,3,1
28,1053,6,133,64,1,1,1,1.738612e-04,NaN,2,1,3,1
28,1054,6,10,3,1,1,1,1.340173e-04,NaN,2,0,1,1
28,1055,6,75,37,2,2,1,7.458267e-01,NaN,2,0,2,1
28,1056,6,115,67,2,1,0,7.705696e-01,NaN,2,0,3,1
28,1057,6,36,65,1,2,0,5.547322e-01,NaN,2,0,1,1
28,1058,6,81,11,2,1,0,6.670145e-01,NaN,2,0,2,1
28,1059,6,103,41,1,2,0,4.548531e-01,NaN,1,0,3,1
28,1060,6,143,62,2,2,1,7.308822e-01,NaN,1,0,3,1
28,1061,6,113,29,1,2,0,7.163536e-01,NaN,1,0,3,1
28,1062,6,45,51,1,1,1,9.345555e-01,NaN,1,0,1,1
28,1063,6,138,70,2,2,1,6.639046e-01,NaN,1,0,3,1
28,1064,6,71,66,1,1,1,5.878633e-01,NaN,1,0,2,1
28,1065,6,50,67,2,2,1,1.066209e+00,NaN,1,0,2,1
28,1066,6,78,38,2,2,1,7.019844e-01,NaN,1,0,2,1
28,1067,6,90,49,2,2,1,7.288258e-01,NaN,1,1,2,1
28,1068,6,80,46,1,1,1,8.102347e-01,NaN,1,0,2,1
28,1069,6,59,40,1,1,1,6.800070e-01,NaN,1,0,2,1
28,1070,6,125,8,1,1,1,1.219556e+00,NaN,1,1,3,1
28,1071,6,11,24,1,1,1,8.096413e-01,NaN,1,1,1,1
28,1072,6,139,63,1,1,1,7.359870e-01,NaN,1,0,3,1
28,1073,6,38,68,1,1,1,9.688357e-01,NaN,1,1,1,1
28,1074,6,21,18,1,1,1,6.644697e-01,NaN,1,0,1,1
28,1075,6,58,56,1,1,1,5.807084e-01,NaN,1,0,2,1
28,1076,6,15,64,1,1,1,6.758407e-01,NaN,1,1,1,1
28,1077,6,69,27,1,1,1,5.591846e-01,NaN,1,0,2,1
28,1078,6,98,54,2,1,0,2.875124e-01,NaN,1,0,3,1
28,1079,6,4,30,2,1,0,1.331121e-04,NaN,1,1,1,1
28,1080,6,33,58,2,1,0,1.358287e-04,NaN,1,0,1,1
28,1081,6,116,22,1,2,0,1.343200e-04,NaN,1,0,3,1
28,1082,6,47,13,2,1,0,1.415638e-04,NaN,1,0,1,1
28,1083,6,62,1,1,1,1,1.593726e-04,NaN,1,0,2,1
28,1084,6,114,37,1,2,0,1.355270e-04,NaN,1,0,3,1
28,1085,6,1,4,1,2,0,1.349235e-04,NaN,1,1,1,1
28,1086,6,51,3,1,1,1,1.334138e-04,NaN,1,0,2,1
28,1087,6,120,5,1,1,1,1.334138e-04,NaN,1,1,3,1
28,1088,6,82,21,1,1,1,1.325095e-04,NaN,1,0,2,1
28,1089,6,129,57,2,1,0,1.346217e-04,NaN,1,0,3,1
28,1090,6,42,34,2,1,0,1.325086e-04,NaN,1,0,1,1
28,1091,6,127,60,2,2,1,1.319051e-04,NaN,1,0,3,1
28,1092,6,18,59,2,2,1,1.418656e-04,NaN,1,0,1,1
28,1093,6,30,32,1,2,0,1.463927e-04,NaN,1,0,1,1
28,1094,6,40,16,1,2,0,1.346217e-04,NaN,1,0,1,1
28,1095,6,109,11,1,2,0,1.370367e-04,NaN,1,0,3,1
28,1096,6,86,2,2,2,1,1.306981e-04,NaN,1,0,2,1
28,1097,6,136,19,1,1,1,1.530349e-04,NaN,1,0,3,1
28,1098,6,68,35,2,1,0,1.358287e-04,NaN,1,1,2,1
28,1099,6,107,10,2,1,0,9.599733e-02,NaN,1,0,3,1
28,1100,6,64,48,2,1,0,1.358297e-04,NaN,1,0,2,1
28,1101,6,23,9,1,1,1,1.626927e-04,NaN,1,0,1,1
28,1102,6,111,71,1,1,1,1.611840e-04,NaN,1,0,3,1
28,1103,6,122,12,1,1,1,1.325095e-04,NaN,1,1,3,1
28,1104,6,134,14,2,1,0,1.346217e-04,NaN,1,0,3,1
28,1105,6,17,15,1,1,1,1.343200e-04,NaN,1,1,1,1
28,1106,6,26,47,1,1,1,1.346217e-04,NaN,1,1,1,1
28,1107,6,140,39,2,1,0,1.370367e-04,NaN,1,1,3,1
28,1108,6,3,20,2,1,0,1.343200e-04,NaN,1,0,1,1
28,1109,6,43,6,1,1,1,1.352262e-04,NaN,1,0,1,1
28,1110,6,19,26,2,1,0,1.379419e-04,NaN,1,0,1,1
28,1111,6,93,7,2,1,0,1.385463e-04,NaN,1,0,2,1
28,1112,6,84,69,1,1,1,1.433752e-04,NaN,1,0,2,1
28,1113,6,7,72,2,2,1,1.343200e-04,NaN,1,1,1,1
28,1114,6,55,31,2,1,0,4.778043e-02,NaN,1,0,2,1
28,1115,6,13,61,1,2,0,1.078202e-01,NaN,1,0,1,1
28,1116,6,131,65,1,2,0,1.620892e-04,NaN,1,0,3,1
28,1117,6,100,42,2,1,0,1.325086e-04,NaN,1,0,3,1
28,1118,6,60,52,1,2,0,3.293100e-03,NaN,1,1,2,1
28,1119,6,117,53,2,1,0,1.430735e-04,NaN,1,0,3,1
28,1120,6,87,55,1,2,0,4.877531e-02,NaN,1,0,2,1
28,1121,6,73,33,1,2,0,1.427718e-04,NaN,1,0,2,1
28,1122,6,106,28,1,2,0,6.791000e-02,NaN,1,1,3,1
28,1123,6,95,45,1,1,1,1.325086e-04,NaN,1,1,2,1
28,1124,6,32,36,1,1,1,1.602778e-04,NaN,1,0,1,1
28,1125,6,54,50,1,2,0,1.391498e-04,NaN,1,1,2,1
28,1126,6,37,23,1,2,0,1.337156e-04,NaN,1,0,1,1
28,1127,6,89,43,1,2,0,8.247721e-02,NaN,1,0,2,1
28,1128,6,5,44,2,1,0,1.382437e-04,NaN,1,0,1,1
28,1129,6,128,17,1,2,0,1.275797e-02,NaN,1,0,3,1
28,1130,6,67,25,2,1,0,5.056583e-02,NaN,1,0,2,1
