Subject,Trial,Cond,ImageNum,CueNum,Correct,Resp,Accuracy,RT,CueRep,ImageType,Baseline,Category,Block
42,1,1,43,NaN,NaN,1,NaN,3.282026e+00,NaN,0,0,1,1
42,2,1,55,NaN,NaN,1,NaN,3.379192e-01,NaN,1,1,2,1
42,3,1,134,NaN,NaN,2,NaN,5.861834e+00,NaN,0,0,3,1
42,4,1,24,NaN,NaN,1,NaN,1.564801e+00,NaN,1,1,1,1
42,5,1,7,NaN,NaN,1,NaN,1.175480e+00,NaN,0,1,1,1
42,6,1,98,NaN,NaN,1,NaN,1.218299e+00,NaN,0,0,3,1
42,7,1,80,NaN,NaN,1,NaN,1.067148e+00,NaN,0,0,2,1
42,8,1,124,NaN,NaN,1,NaN,8.978559e-01,NaN,0,0,3,1
42,9,1,53,NaN,NaN,1,NaN,4.872105e-01,NaN,2,0,2,1
42,10,1,11,NaN,NaN,1,NaN,1.389271e+00,NaN,0,0,1,1
42,11,1,126,NaN,NaN,2,NaN,5.223122e+00,NaN,0,1,3,1
42,12,1,110,NaN,NaN,1,NaN,1.119555e+00,NaN,0,0,3,1
42,13,1,77,NaN,NaN,1,NaN,1.164249e+00,NaN,2,0,2,1
42,14,1,55,NaN,NaN,1,NaN,9.594651e-01,NaN,0,1,2,1
42,15,1,125,NaN,NaN,1,NaN,9.465505e-01,NaN,2,0,3,1
42,16,1,139,NaN,NaN,1,NaN,4.860469e-01,NaN,0,0,3,1
42,17,1,88,NaN,NaN,1,NaN,1.612170e+00,NaN,1,0,2,1
42,18,1,140,NaN,NaN,1,NaN,5.287542e-02,NaN,1,0,3,1
42,19,1,5,NaN,NaN,1,NaN,8.600542e-01,NaN,0,0,1,1
42,20,1,52,NaN,NaN,1,NaN,3.636213e-01,NaN,2,0,2,1
42,21,1,71,NaN,NaN,1,NaN,3.501257e-01,NaN,0,0,2,1
42,22,1,10,NaN,NaN,1,NaN,9.617479e-01,NaN,2,0,1,1
42,23,1,118,NaN,NaN,1,NaN,1.756319e+00,NaN,0,0,3,1
42,24,1,10,NaN,NaN,1,NaN,6.398213e-01,NaN,0,0,1,1
42,25,1,54,NaN,NaN,1,NaN,4.637825e-01,NaN,0,1,2,1
42,26,1,94,NaN,NaN,1,NaN,7.023468e-01,NaN,2,0,2,1
42,27,1,2,NaN,NaN,1,NaN,4.999244e-01,NaN,0,0,1,1
42,28,1,75,NaN,NaN,1,NaN,6.730518e-01,NaN,2,0,2,1
42,29,1,72,NaN,NaN,1,NaN,3.680084e-01,NaN,1,0,2,1
42,30,1,79,NaN,NaN,1,NaN,3.144668e-01,NaN,1,1,2,1
42,31,1,112,NaN,NaN,1,NaN,4.073851e-01,NaN,0,0,3,1
42,32,1,70,NaN,NaN,1,NaN,8.248723e-01,NaN,0,0,2,1
42,33,1,87,NaN,NaN,1,NaN,3.372705e-01,NaN,2,0,2,1
42,34,1,21,NaN,NaN,1,NaN,2.855446e-01,NaN,0,0,1,1
42,35,1,128,NaN,NaN,1,NaN,5.874113e-01,NaN,0,0,3,1
42,36,1,40,NaN,NaN,1,NaN,4.535867e-01,NaN,0,0,1,1
42,37,1,66,NaN,NaN,1,NaN,3.731558e-01,NaN,0,0,2,1
42,38,1,106,NaN,NaN,2,NaN,4.396150e-01,NaN,1,0,3,1
42,39,1,27,NaN,NaN,1,NaN,9.577023e-02,NaN,1,0,1,1
42,40,1,144,NaN,NaN,1,NaN,4.609871e-01,NaN,0,1,3,1
42,41,1,96,NaN,NaN,1,NaN,3.006623e-01,NaN,2,1,2,1
42,42,1,33,NaN,NaN,1,NaN,3.301134e-01,NaN,0,0,1,1
42,43,1,63,NaN,NaN,1,NaN,2.938194e-01,NaN,1,0,2,1
42,44,1,38,NaN,NaN,1,NaN,3.237323e-01,NaN,2,0,1,1
42,45,1,103,NaN,NaN,2,NaN,2.444762e-02,NaN,1,0,3,1
42,46,1,36,NaN,NaN,1,NaN,7.210040e-01,NaN,0,0,1,1
42,47,1,93,NaN,NaN,1,NaN,5.098006e-01,NaN,1,0,2,1
42,48,1,106,NaN,NaN,1,NaN,4.029987e-01,NaN,0,0,3,1
42,49,1,57,NaN,NaN,1,NaN,6.368647e-01,NaN,2,0,2,1
42,50,1,64,NaN,NaN,1,NaN,1.868613e+00,NaN,2,0,2,1
42,51,1,85,NaN,NaN,1,NaN,1.963692e+00,NaN,1,1,2,1
42,52,1,86,NaN,NaN,1,NaN,2.638381e+00,NaN,1,0,2,1
42,53,1,132,NaN,NaN,2,NaN,1.406871e+00,NaN,2,0,3,1
42,54,1,129,NaN,NaN,2,NaN,1.055450e+00,NaN,2,1,3,1
42,55,1,5,NaN,NaN,1,NaN,3.030629e-01,NaN,1,0,1,1
42,56,1,80,NaN,NaN,1,NaN,4.203028e-01,NaN,1,0,2,1
42,57,1,52,NaN,NaN,1,NaN,6.372190e-01,NaN,0,0,2,1
42,58,1,121,NaN,NaN,2,NaN,7.171066e-01,NaN,1,0,3,1
42,59,1,99,NaN,NaN,2,NaN,4.897916e-01,NaN,1,0,3,1
42,60,1,23,NaN,NaN,1,NaN,3.759654e-01,NaN,0,0,1,1
42,61,1,13,NaN,NaN,1,NaN,7.224662e-01,NaN,0,1,1,1
42,62,1,130,NaN,NaN,2,NaN,1.071509e+00,NaN,0,0,3,1
42,63,1,89,NaN,NaN,1,NaN,3.337181e-01,NaN,0,0,2,1
42,64,1,44,NaN,NaN,1,NaN,4.661632e-01,NaN,0,0,1,1
42,65,1,38,NaN,NaN,1,NaN,3.445013e-01,NaN,0,0,1,1
42,66,1,115,NaN,NaN,2,NaN,1.276657e+00,NaN,2,0,3,1
42,67,1,114,NaN,NaN,1,NaN,1.499233e+00,NaN,2,1,3,1
42,68,1,60,NaN,NaN,1,NaN,3.448934e-01,NaN,2,0,2,1
42,69,1,81,NaN,NaN,1,NaN,3.082113e-01,NaN,0,0,2,1
42,70,1,17,NaN,NaN,1,NaN,3.858428e-01,NaN,0,0,1,1
42,71,1,102,NaN,NaN,2,NaN,1.171647e+00,NaN,2,0,3,1
42,72,1,134,NaN,NaN,1,NaN,4.198396e+00,NaN,2,0,3,1
42,73,1,41,NaN,NaN,1,NaN,3.518722e-01,NaN,2,0,1,1
42,74,1,117,NaN,NaN,2,NaN,5.229569e-01,NaN,1,0,3,1
42,75,1,100,NaN,NaN,2,NaN,1.943493e+00,NaN,0,1,3,1
42,76,1,76,NaN,NaN,1,NaN,2.837960e-01,NaN,1,0,2,1
42,77,1,45,NaN,NaN,2,NaN,8.417767e-01,NaN,1,1,1,1
42,78,1,98,NaN,NaN,1,NaN,5.773519e-02,NaN,2,0,3,1
42,79,1,114,NaN,NaN,1,NaN,4.014285e-01,NaN,0,1,3,1
42,80,1,100,NaN,NaN,2,NaN,5.073562e-02,NaN,1,1,3,1
42,81,1,101,NaN,NaN,2,NaN,7.065425e-01,NaN,1,1,3,1
42,82,1,143,NaN,NaN,2,NaN,8.556451e-01,NaN,2,0,3,1
42,83,1,36,NaN,NaN,1,NaN,3.346487e-01,NaN,1,0,1,1
42,84,1,45,NaN,NaN,1,NaN,1.234862e+00,NaN,0,1,1,1
42,85,1,4,NaN,NaN,1,NaN,4.350079e-01,NaN,2,0,1,1
42,86,1,138,NaN,NaN,1,NaN,4.111733e-01,NaN,0,0,3,1
42,87,1,133,NaN,NaN,1,NaN,1.699889e+00,NaN,1,0,3,1
42,88,1,124,NaN,NaN,1,NaN,1.232764e+00,NaN,1,0,3,1
42,89,1,46,NaN,NaN,1,NaN,5.931618e-01,NaN,2,0,1,1
42,90,1,78,NaN,NaN,1,NaN,6.190453e-01,NaN,0,1,2,1
42,91,1,112,NaN,NaN,1,NaN,3.321376e-01,NaN,2,0,3,1
42,92,1,68,NaN,NaN,1,NaN,2.797397e-01,NaN,1,0,2,1
42,93,1,87,NaN,NaN,1,NaN,3.183824e-01,NaN,0,0,2,1
42,94,1,34,NaN,NaN,1,NaN,3.628024e-01,NaN,1,1,1,1
42,95,1,130,NaN,NaN,1,NaN,9.172509e-01,NaN,1,0,3,1
42,96,1,64,NaN,NaN,1,NaN,3.379180e-01,NaN,0,0,2,1
42,97,1,126,NaN,NaN,2,NaN,1.394027e-02,NaN,2,1,3,1
42,98,1,84,NaN,NaN,1,NaN,2.948768e-01,NaN,0,0,2,1
42,99,1,39,NaN,NaN,2,NaN,1.116115e+00,NaN,2,1,1,1
42,100,1,142,NaN,NaN,2,NaN,5.928853e-01,NaN,2,0,3,1
42,101,1,29,NaN,NaN,1,NaN,3.618874e+00,NaN,0,0,1,1
42,102,1,58,NaN,NaN,1,NaN,5.238356e-01,NaN,0,0,2,1
42,103,1,110,NaN,NaN,1,NaN,2.208562e+00,NaN,1,0,3,1
42,104,1,14,NaN,NaN,1,NaN,3.379929e-01,NaN,2,0,1,1
42,105,1,139,NaN,NaN,1,NaN,3.816221e-01,NaN,2,0,3,1
42,106,1,77,NaN,NaN,1,NaN,2.481510e-01,NaN,0,0,2,1
42,107,1,9,NaN,NaN,1,NaN,7.114668e-01,NaN,0,0,1,1
42,108,1,26,NaN,NaN,1,NaN,2.439402e-01,NaN,1,0,1,1
42,109,1,48,NaN,NaN,1,NaN,2.916814e-01,NaN,2,0,1,1
42,110,1,33,NaN,NaN,1,NaN,3.220036e-01,NaN,1,0,1,1
42,111,1,37,NaN,NaN,1,NaN,3.667029e-01,NaN,2,0,1,1
42,112,1,31,NaN,NaN,1,NaN,3.771342e-01,NaN,2,0,1,1
42,113,1,141,NaN,NaN,1,NaN,4.921168e-01,NaN,2,0,3,1
42,114,1,122,NaN,NaN,2,NaN,2.978546e-01,NaN,2,1,3,1
42,115,1,109,NaN,NaN,1,NaN,3.913313e-01,NaN,2,0,3,1
42,116,1,78,NaN,NaN,1,NaN,3.134668e-01,NaN,2,1,2,1
42,117,1,129,NaN,NaN,2,NaN,1.022167e+00,NaN,0,1,3,1
42,118,1,95,NaN,NaN,1,NaN,3.432384e-01,NaN,2,1,2,1
42,119,1,94,NaN,NaN,1,NaN,3.388489e-01,NaN,0,0,2,1
42,120,1,24,NaN,NaN,1,NaN,6.870639e-01,NaN,0,1,1,1
42,121,1,22,NaN,NaN,2,NaN,5.491028e-01,NaN,0,1,1,1
42,122,1,136,NaN,NaN,2,NaN,4.645631e-01,NaN,1,1,3,1
42,123,1,96,NaN,NaN,1,NaN,2.954041e-01,NaN,0,1,2,1
42,124,1,103,NaN,NaN,2,NaN,1.164384e+00,NaN,0,0,3,1
42,125,1,7,NaN,NaN,1,NaN,6.230433e-01,NaN,1,1,1,1
42,126,1,39,NaN,NaN,1,NaN,5.841223e-01,NaN,0,1,1,1
42,127,1,82,NaN,NaN,1,NaN,3.300355e-01,NaN,1,0,2,1
42,128,1,20,NaN,NaN,1,NaN,1.965736e+00,NaN,0,0,1,1
42,129,1,48,NaN,NaN,1,NaN,4.889401e-01,NaN,0,0,1,1
42,130,1,142,NaN,NaN,1,NaN,1.231542e-04,NaN,0,0,3,1
42,131,1,123,NaN,NaN,1,NaN,1.511979e+00,NaN,1,1,3,1
42,132,1,53,NaN,NaN,1,NaN,4.687356e-01,NaN,0,0,2,1
42,133,1,71,NaN,NaN,1,NaN,1.234561e-04,NaN,2,0,2,1
42,134,1,49,NaN,NaN,1,NaN,5.648306e-01,NaN,0,1,2,1
42,135,1,113,NaN,NaN,1,NaN,3.197663e-02,NaN,0,0,3,1
42,136,1,105,NaN,NaN,2,NaN,1.623729e+00,NaN,2,0,3,1
42,137,1,137,NaN,NaN,1,NaN,4.323649e-01,NaN,0,0,3,1
42,138,1,59,NaN,NaN,1,NaN,3.523488e-01,NaN,0,1,2,1
42,139,1,32,NaN,NaN,1,NaN,3.947936e+00,NaN,0,1,1,1
42,140,1,1,NaN,NaN,2,NaN,2.943124e+00,NaN,1,0,1,1
42,141,1,9,NaN,NaN,1,NaN,1.261727e-04,NaN,1,0,1,1
42,142,1,35,NaN,NaN,2,NaN,6.685603e-01,NaN,0,0,1,1
42,143,1,18,NaN,NaN,1,NaN,1.435165e+00,NaN,0,0,1,1
42,144,1,1,NaN,NaN,1,NaN,1.979275e+00,NaN,0,0,1,1
42,145,1,62,NaN,NaN,1,NaN,4.536513e-01,NaN,0,0,2,1
42,146,1,4,NaN,NaN,1,NaN,3.008534e-01,NaN,0,0,1,1
42,147,1,62,NaN,NaN,1,NaN,3.061219e-01,NaN,1,0,2,1
42,148,1,72,NaN,NaN,1,NaN,2.958753e-01,NaN,0,0,2,1
42,149,1,50,NaN,NaN,1,NaN,2.770351e-01,NaN,0,0,2,1
42,150,1,15,NaN,NaN,1,NaN,1.240598e-04,NaN,2,0,1,1
42,151,1,107,NaN,NaN,1,NaN,5.409864e-01,NaN,0,1,3,1
42,152,1,128,NaN,NaN,1,NaN,2.849022e+00,NaN,2,0,3,1
42,153,1,69,NaN,NaN,1,NaN,1.043246e-01,NaN,0,0,2,1
42,154,1,13,NaN,NaN,1,NaN,3.495742e-01,NaN,2,1,1,1
42,155,1,121,NaN,NaN,2,NaN,1.052166e-01,NaN,0,0,3,1
42,156,1,35,NaN,NaN,1,NaN,5.745978e-01,NaN,2,0,1,1
42,157,1,46,NaN,NaN,2,NaN,2.105018e+00,NaN,0,0,1,1
42,158,1,136,NaN,NaN,1,NaN,2.788438e-01,NaN,0,1,3,1
42,159,1,141,NaN,NaN,1,NaN,4.447776e-01,NaN,0,0,3,1
42,160,1,65,NaN,NaN,1,NaN,7.402484e-01,NaN,1,0,2,1
42,161,1,30,NaN,NaN,1,NaN,3.279893e-01,NaN,0,0,1,1
42,162,1,116,NaN,NaN,1,NaN,1.258709e-04,NaN,1,0,3,1
42,163,1,54,NaN,NaN,1,NaN,2.612451e-01,NaN,2,1,2,1
42,164,1,8,NaN,NaN,1,NaN,1.548296e+00,NaN,0,0,1,1
42,165,1,58,NaN,NaN,1,NaN,2.223882e+00,NaN,2,0,2,1
42,166,1,22,NaN,NaN,1,NaN,7.488215e+00,NaN,1,1,1,1
42,167,1,104,NaN,NaN,2,NaN,3.126415e+00,NaN,0,1,3,1
42,168,1,140,NaN,NaN,1,NaN,2.714908e+00,NaN,0,0,3,1
42,169,1,37,NaN,NaN,1,NaN,8.158476e-01,NaN,0,0,1,1
42,170,1,61,NaN,NaN,1,NaN,1.456582e+00,NaN,1,0,2,1
42,171,1,19,NaN,NaN,1,NaN,9.440542e-01,NaN,2,1,1,1
42,172,1,92,NaN,NaN,1,NaN,9.402512e-01,NaN,0,0,2,1
42,173,1,144,NaN,NaN,1,NaN,3.203193e-01,NaN,2,1,3,1
42,174,1,93,NaN,NaN,1,NaN,3.568328e-01,NaN,0,0,2,1
42,175,1,69,NaN,NaN,1,NaN,4.244314e-01,NaN,1,0,2,1
42,176,1,108,NaN,NaN,2,NaN,1.984654e+00,NaN,0,0,3,1
42,177,1,56,NaN,NaN,1,NaN,5.230330e-01,NaN,0,0,2,1
42,178,1,132,NaN,NaN,1,NaN,3.279309e+00,NaN,0,0,3,1
42,179,1,8,NaN,NaN,1,NaN,1.445855e-04,NaN,2,0,1,1
42,180,1,127,NaN,NaN,1,NaN,3.353955e-01,NaN,1,0,3,1
42,181,1,143,NaN,NaN,1,NaN,1.299381e+00,NaN,0,0,3,1
42,182,1,73,NaN,NaN,1,NaN,4.080359e-02,NaN,2,1,2,1
42,183,1,47,NaN,NaN,1,NaN,4.088198e-01,NaN,1,0,1,1
42,184,1,42,NaN,NaN,1,NaN,7.136960e-01,NaN,2,0,1,1
42,185,1,11,NaN,NaN,1,NaN,6.624744e-01,NaN,1,0,1,1
42,186,1,83,NaN,NaN,1,NaN,2.333613e+00,NaN,0,0,2,1
42,187,1,111,NaN,NaN,2,NaN,1.273801e-04,NaN,0,0,3,1
42,188,1,30,NaN,NaN,1,NaN,3.631429e-01,NaN,1,0,1,1
42,189,1,120,NaN,NaN,2,NaN,1.445804e+00,NaN,2,0,3,1
42,190,1,117,NaN,NaN,1,NaN,1.420583e+00,NaN,0,0,3,1
42,191,1,28,NaN,NaN,2,NaN,4.218132e-01,NaN,0,1,1,1
42,192,1,63,NaN,NaN,1,NaN,3.984634e-01,NaN,0,0,2,1
42,193,1,91,NaN,NaN,1,NaN,3.119412e-01,NaN,1,0,2,1
42,194,1,27,NaN,NaN,1,NaN,6.604369e-01,NaN,0,0,1,1
42,195,1,90,NaN,NaN,1,NaN,7.956243e-01,NaN,0,0,2,1
42,196,1,3,NaN,NaN,2,NaN,4.050443e-01,NaN,2,0,1,1
42,197,1,99,NaN,NaN,2,NaN,1.255690e-04,NaN,0,0,3,1
42,198,1,51,NaN,NaN,1,NaN,3.838886e-01,NaN,1,0,2,1
42,199,1,127,NaN,NaN,1,NaN,1.237579e-04,NaN,0,0,3,1
42,200,1,20,NaN,NaN,1,NaN,2.431916e-01,NaN,1,0,1,1
42,201,1,40,NaN,NaN,1,NaN,2.116421e-01,NaN,1,0,1,1
42,202,1,50,NaN,NaN,1,NaN,2.602865e-01,NaN,1,0,2,1
42,203,1,60,NaN,NaN,1,NaN,2.514975e-01,NaN,0,0,2,1
42,204,1,23,NaN,NaN,1,NaN,3.309405e-01,NaN,2,0,1,1
42,205,1,25,NaN,NaN,1,NaN,2.706459e-01,NaN,1,0,1,1
42,206,1,14,NaN,NaN,1,NaN,3.573248e-01,NaN,0,0,1,1
42,207,1,119,NaN,NaN,2,NaN,1.195321e-04,NaN,0,1,3,1
42,208,1,102,NaN,NaN,2,NaN,6.421929e-01,NaN,0,0,3,1
42,209,1,47,NaN,NaN,1,NaN,3.860764e-01,NaN,0,0,1,1
42,210,1,68,NaN,NaN,1,NaN,3.403029e-01,NaN,0,0,2,1
42,211,1,59,NaN,NaN,1,NaN,3.046371e-01,NaN,1,1,2,1
42,212,1,125,NaN,NaN,1,NaN,6.776489e-01,NaN,0,0,3,1
42,213,1,67,NaN,NaN,1,NaN,2.924001e-01,NaN,0,0,2,1
42,214,1,108,NaN,NaN,2,NaN,1.343226e-04,NaN,1,0,3,1
42,215,1,135,NaN,NaN,1,NaN,2.947826e+00,NaN,0,0,3,1
42,216,1,74,NaN,NaN,1,NaN,1.742909e+00,NaN,1,1,2,1
42,217,1,16,NaN,NaN,1,NaN,7.230325e-01,NaN,0,1,1,1
42,218,1,6,NaN,NaN,1,NaN,2.375969e+00,NaN,0,1,1,1
42,219,1,123,NaN,NaN,1,NaN,7.146329e-01,NaN,0,1,3,1
42,220,1,65,NaN,NaN,1,NaN,5.036220e-01,NaN,0,0,2,1
42,221,1,115,NaN,NaN,2,NaN,1.308720e+00,NaN,0,0,3,1
42,222,1,85,NaN,NaN,1,NaN,4.262036e-01,NaN,0,1,2,1
42,223,1,119,NaN,NaN,2,NaN,2.683091e+00,NaN,1,1,3,1
42,224,1,101,NaN,NaN,1,NaN,7.792748e+00,NaN,0,1,3,1
42,225,1,31,NaN,NaN,1,NaN,2.171076e+00,NaN,0,0,1,1
42,226,1,2,NaN,NaN,1,NaN,4.145405e-01,NaN,1,0,1,1
42,227,1,82,NaN,NaN,1,NaN,3.424406e-01,NaN,0,0,2,1
42,228,1,97,NaN,NaN,2,NaN,1.042585e+00,NaN,0,0,3,1
42,229,1,32,NaN,NaN,1,NaN,3.706281e-01,NaN,1,1,1,1
42,230,1,29,NaN,NaN,0,NaN,9.995179e+00,NaN,2,0,1,1
42,231,1,120,NaN,NaN,2,NaN,1.748428e-01,NaN,0,0,3,1
42,232,1,107,NaN,NaN,1,NaN,4.814307e-01,NaN,2,1,3,1
42,233,1,70,NaN,NaN,1,NaN,1.903627e+00,NaN,2,0,2,1
42,234,1,15,NaN,NaN,1,NaN,5.731447e-01,NaN,0,0,1,1
42,235,1,116,NaN,NaN,1,NaN,1.620927e-04,NaN,0,0,3,1
42,236,1,21,NaN,NaN,1,NaN,6.250289e-01,NaN,1,0,1,1
42,237,1,113,NaN,NaN,1,NaN,6.415023e-01,NaN,1,0,3,1
42,238,1,42,NaN,NaN,1,NaN,9.781362e-01,NaN,0,0,1,1
42,239,1,49,NaN,NaN,1,NaN,1.881296e-01,NaN,2,1,2,1
42,240,1,109,NaN,NaN,1,NaN,3.773855e+00,NaN,0,0,3,1
42,241,1,74,NaN,NaN,1,NaN,9.926759e-01,NaN,0,1,2,1
42,242,1,133,NaN,NaN,2,NaN,1.098509e+00,NaN,0,0,3,1
42,243,1,3,NaN,NaN,2,NaN,8.798999e-01,NaN,0,0,1,1
42,244,1,95,NaN,NaN,2,NaN,3.021450e-01,NaN,0,1,2,1
42,245,1,89,NaN,NaN,2,NaN,2.539189e+00,NaN,2,0,2,1
42,246,1,131,NaN,NaN,2,NaN,4.477254e-01,NaN,1,1,3,1
42,247,1,122,NaN,NaN,2,NaN,5.670957e-01,NaN,0,1,3,1
42,248,1,66,NaN,NaN,1,NaN,2.659570e-01,NaN,2,0,2,1
42,249,1,28,NaN,NaN,1,NaN,3.445442e-01,NaN,2,1,1,1
42,250,1,118,NaN,NaN,1,NaN,3.157711e-01,NaN,1,0,3,1
42,251,1,84,NaN,NaN,1,NaN,2.962034e-01,NaN,2,0,2,1
42,252,1,131,NaN,NaN,2,NaN,6.454882e-01,NaN,0,1,3,1
42,253,1,73,NaN,NaN,1,NaN,8.531446e-01,NaN,0,1,2,1
42,254,1,34,NaN,NaN,1,NaN,2.889446e-02,NaN,0,1,1,1
42,255,1,111,NaN,NaN,2,NaN,8.285681e-01,NaN,2,0,3,1
42,256,1,86,NaN,NaN,1,NaN,2.847637e-01,NaN,0,0,2,1
42,257,1,83,NaN,NaN,1,NaN,1.267764e-04,NaN,2,0,2,1
42,258,1,67,NaN,NaN,1,NaN,7.558627e-01,NaN,1,0,2,1
42,259,1,81,NaN,NaN,1,NaN,2.473474e-01,NaN,2,0,2,1
42,260,1,18,NaN,NaN,1,NaN,8.627404e-01,NaN,1,0,1,1
42,261,1,17,NaN,NaN,1,NaN,3.972968e-01,NaN,2,0,1,1
42,262,1,138,NaN,NaN,1,NaN,3.428505e-01,NaN,2,0,3,1
42,263,1,91,NaN,NaN,1,NaN,2.990876e-01,NaN,0,0,2,1
42,264,1,76,NaN,NaN,1,NaN,2.721884e-01,NaN,0,0,2,1
42,265,1,16,NaN,NaN,1,NaN,4.070377e-01,NaN,2,1,1,1
42,266,1,41,NaN,NaN,1,NaN,1.243616e-04,NaN,0,0,1,1
42,267,1,135,NaN,NaN,1,NaN,3.695517e-01,NaN,1,0,3,1
42,268,1,12,NaN,NaN,1,NaN,3.967498e-01,NaN,1,0,1,1
42,269,1,26,NaN,NaN,1,NaN,6.697924e-01,NaN,0,0,1,1
42,270,1,92,NaN,NaN,1,NaN,6.763326e-01,NaN,2,0,2,1
42,271,1,57,NaN,NaN,1,NaN,5.713994e-01,NaN,0,0,2,1
42,272,1,44,NaN,NaN,1,NaN,3.496832e-01,NaN,2,0,1,1
42,273,1,6,NaN,NaN,1,NaN,1.105169e+00,NaN,2,1,1,1
42,274,1,25,NaN,NaN,1,NaN,6.625480e-01,NaN,0,0,1,1
42,275,1,137,NaN,NaN,1,NaN,2.693235e-01,NaN,1,0,3,1
42,276,1,104,NaN,NaN,1,NaN,2.756296e+00,NaN,1,1,3,1
42,277,1,51,NaN,NaN,1,NaN,2.154943e-01,NaN,0,0,2,1
42,278,1,105,NaN,NaN,1,NaN,1.008011e+00,NaN,0,0,3,1
42,279,1,75,NaN,NaN,1,NaN,7.453669e-01,NaN,0,0,2,1
42,280,1,43,NaN,NaN,1,NaN,2.372554e-01,NaN,1,0,1,1
42,281,1,12,NaN,NaN,1,NaN,3.090773e-01,NaN,0,0,1,1
42,282,1,56,NaN,NaN,1,NaN,4.100635e-01,NaN,1,0,2,1
42,283,1,97,NaN,NaN,1,NaN,5.315095e-01,NaN,2,0,3,1
42,284,1,61,NaN,NaN,1,NaN,1.279738e+00,NaN,0,0,2,1
42,285,1,79,NaN,NaN,1,NaN,3.578319e-01,NaN,0,1,2,1
42,286,1,90,NaN,NaN,1,NaN,1.481040e+00,NaN,1,0,2,1
42,287,1,88,NaN,NaN,1,NaN,9.354953e-01,NaN,0,0,2,1
42,288,1,19,NaN,NaN,2,NaN,8.355945e-01,NaN,0,1,1,1
42,366,2,90,36,2,0,0,3.500081e+00,NaN,1,0,2,1
42,367,2,99,31,1,1,1,3.023951e+00,NaN,1,0,3,1
42,368,2,22,71,2,1,0,1.948991e+00,NaN,1,1,1,1
42,369,2,59,55,2,1,0,1.812164e+00,NaN,1,1,2,1
42,370,2,101,61,1,1,1,2.857082e+00,NaN,1,1,3,1
42,371,2,119,27,2,2,1,2.548536e+00,NaN,1,1,3,1
42,372,2,136,1,2,2,1,2.363834e+00,NaN,1,1,3,1
42,373,2,56,53,1,1,1,1.618698e+00,NaN,1,0,2,1
42,374,2,82,20,1,1,1,2.383613e+00,NaN,1,0,2,1
42,375,2,88,34,2,2,1,1.733792e+00,NaN,1,0,2,1
42,376,2,91,26,1,1,1,1.837483e+00,NaN,1,0,2,1
42,377,2,67,45,1,1,1,2.761930e+00,NaN,1,0,2,1
42,378,2,76,14,2,2,1,2.656322e+00,NaN,1,0,2,1
42,379,2,133,22,2,1,0,3.083611e+00,NaN,1,0,3,1
42,380,2,85,16,1,1,1,2.157978e+00,NaN,1,1,2,1
42,381,2,118,41,2,1,0,2.085419e+00,NaN,1,0,3,1
42,382,2,30,59,2,2,1,2.375504e+00,NaN,1,0,1,1
42,383,2,135,33,2,2,1,1.750268e+00,NaN,1,0,3,1
42,384,2,36,8,2,2,1,3.485667e+00,NaN,1,0,1,1
42,385,2,137,30,2,2,1,3.128060e+00,NaN,1,0,3,1
42,386,2,106,62,1,0,0,3.499748e+00,NaN,1,0,3,1
42,387,2,127,28,2,2,1,2.425364e+00,NaN,1,0,3,1
42,388,2,20,54,1,2,0,2.750196e+00,NaN,1,0,1,1
42,389,2,113,40,1,1,1,2.613823e+00,NaN,1,0,3,1
42,390,3,127,28,2,2,1,3.300436e+00,NaN,1,0,3,1
42,391,3,99,31,2,2,1,2.077999e+00,NaN,1,0,3,1
42,392,3,36,8,1,1,1,2.448765e+00,NaN,1,0,1,1
42,393,3,136,1,2,2,1,2.036436e+00,NaN,1,1,3,1
42,394,3,76,14,1,2,0,3.208592e+00,NaN,1,0,2,1
42,395,3,113,40,1,1,1,2.725761e+00,NaN,1,0,3,1
42,396,3,135,33,2,2,1,1.654727e+00,NaN,1,0,3,1
42,397,3,91,26,1,1,1,1.858331e+00,NaN,1,0,2,1
42,398,3,106,62,2,1,0,2.885858e+00,NaN,1,0,3,1
42,399,3,82,20,2,2,1,2.024017e+00,NaN,1,0,2,1
42,400,3,88,34,2,2,1,2.004458e+00,NaN,1,0,2,1
42,401,3,101,61,1,0,0,3.499853e+00,NaN,1,1,3,1
42,402,3,137,30,2,1,0,2.675258e+00,NaN,1,0,3,1
42,403,3,30,59,1,1,1,1.750017e+00,NaN,1,0,1,1
42,404,3,20,54,2,0,0,3.499825e+00,NaN,1,0,1,1
42,405,3,22,71,2,1,0,3.359587e+00,NaN,1,1,1,1
42,406,3,85,16,2,2,1,1.270592e+00,NaN,1,1,2,1
42,407,3,67,45,1,1,1,1.593538e+00,NaN,1,0,2,1
42,408,3,118,41,1,1,1,2.439182e+00,NaN,1,0,3,1
42,409,3,133,22,1,1,1,2.051392e+00,NaN,1,0,3,1
42,410,3,90,36,1,2,0,2.046976e+00,NaN,1,0,2,1
42,411,3,119,27,2,2,1,2.146199e+00,NaN,1,1,3,1
42,412,3,56,53,2,2,1,2.961625e+00,NaN,1,0,2,1
42,413,3,59,55,2,1,0,3.088398e+00,NaN,1,1,2,1
42,438,2,110,47,1,1,1,2.180825e+00,NaN,1,0,3,2
42,439,2,43,49,1,1,1,1.819457e+00,NaN,1,0,1,2
42,440,2,1,37,1,1,1,1.616178e+00,NaN,1,0,1,2
42,441,2,50,58,1,1,1,2.172841e+00,NaN,1,0,2,2
42,442,2,51,11,2,2,1,1.819431e+00,NaN,1,0,2,2
42,443,2,24,42,1,1,1,2.440232e+00,NaN,1,1,1,2
42,444,2,26,63,1,1,1,1.380538e+00,NaN,1,0,1,2
42,445,2,34,2,2,2,1,1.770421e+00,NaN,1,1,1,2
42,446,2,130,23,2,2,1,2.185487e+00,NaN,1,0,3,2
42,447,2,116,19,2,2,1,1.887537e+00,NaN,1,0,3,2
42,448,2,9,67,1,1,1,3.049509e+00,NaN,1,0,1,2
42,449,2,65,12,1,1,1,1.909132e+00,NaN,1,0,2,2
42,450,2,80,66,1,1,1,1.366424e+00,NaN,1,0,2,2
42,451,2,18,18,2,2,1,2.701290e+00,NaN,1,0,1,2
42,452,2,79,9,1,1,1,1.414515e+00,NaN,1,1,2,2
42,453,2,104,24,1,1,1,2.859092e+00,NaN,1,1,3,2
42,454,2,74,50,1,1,1,1.686972e+00,NaN,1,1,2,2
42,455,2,123,43,1,1,1,3.032609e+00,NaN,1,1,3,2
42,456,2,62,5,2,2,1,2.117389e+00,NaN,1,0,2,2
42,457,2,63,70,2,2,1,2.245601e+00,NaN,1,0,2,2
42,458,2,72,57,1,1,1,1.993249e+00,NaN,1,0,2,2
42,459,2,25,6,2,2,1,1.919087e+00,NaN,1,0,1,2
42,460,2,55,69,1,1,1,1.440255e+00,NaN,1,1,2,2
42,461,2,108,65,1,1,1,2.156074e+00,NaN,1,0,3,2
42,462,3,104,24,2,2,1,2.456880e+00,NaN,1,1,3,2
42,463,3,25,6,2,2,1,2.100390e+00,NaN,1,0,1,2
42,464,3,80,66,1,1,1,1.117992e+00,NaN,1,0,2,2
42,465,3,116,19,2,2,1,1.318976e+00,NaN,1,0,3,2
42,466,3,51,11,2,2,1,2.191358e+00,NaN,1,0,2,2
42,467,3,74,50,2,2,1,1.605382e+00,NaN,1,1,2,2
42,468,3,110,47,1,1,1,3.114958e+00,NaN,1,0,3,2
42,469,3,72,57,2,2,1,1.851963e+00,NaN,1,0,2,2
42,470,3,79,9,1,1,1,1.063044e+00,NaN,1,1,2,2
42,471,3,108,65,2,2,1,2.841818e+00,NaN,1,0,3,2
42,472,3,63,70,2,2,1,1.974126e+00,NaN,1,0,2,2
42,473,3,9,67,2,2,1,2.293026e+00,NaN,1,0,1,2
42,474,3,130,23,1,1,1,2.431137e+00,NaN,1,0,3,2
42,475,3,18,18,2,2,1,2.219324e+00,NaN,1,0,1,2
42,476,3,50,58,1,0,0,3.499995e+00,NaN,1,0,2,2
42,477,3,62,5,1,1,1,1.177432e+00,NaN,1,0,2,2
42,478,3,65,12,2,2,1,1.760138e+00,NaN,1,0,2,2
42,479,3,24,42,1,1,1,2.951705e+00,NaN,1,1,1,2
42,480,3,123,43,1,1,1,2.879062e+00,NaN,1,1,3,2
42,481,3,34,2,2,2,1,1.952803e+00,NaN,1,1,1,2
42,482,3,43,49,1,1,1,2.632280e+00,NaN,1,0,1,2
42,483,3,26,63,2,2,1,1.644433e+00,NaN,1,0,1,2
42,484,3,55,69,2,2,1,1.504772e+00,NaN,1,1,2,2
42,485,3,1,37,1,1,1,2.074292e+00,NaN,1,0,1,2
42,510,2,103,48,1,2,0,1.820640e+00,NaN,1,0,3,3
42,511,2,121,56,2,2,1,2.057350e+00,NaN,1,0,3,3
42,512,2,86,38,1,1,1,1.909089e+00,NaN,1,0,2,3
42,513,2,32,72,1,1,1,2.566559e+00,NaN,1,1,1,3
42,514,2,21,10,1,1,1,2.181354e+00,NaN,1,0,1,3
42,515,2,47,68,1,1,1,1.403270e+00,NaN,1,0,1,3
42,516,2,5,13,2,2,1,2.064517e+00,NaN,1,0,1,3
42,517,2,69,3,2,2,1,1.883271e+00,NaN,1,0,2,3
42,518,2,124,46,2,2,1,2.997248e+00,NaN,1,0,3,3
42,519,2,100,21,1,1,1,2.515068e+00,NaN,1,1,3,3
42,520,2,68,17,1,1,1,1.324109e+00,NaN,1,0,2,3
42,521,2,11,15,1,1,1,2.124805e+00,NaN,1,0,1,3
42,522,2,140,25,2,2,1,2.237324e+00,NaN,1,0,3,3
42,523,2,93,4,1,1,1,1.425334e+00,NaN,1,0,2,3
42,524,2,61,32,1,1,1,2.622178e+00,NaN,1,0,2,3
42,525,2,2,44,1,1,1,1.931177e+00,NaN,1,0,1,3
42,526,2,45,35,2,2,1,2.035231e+00,NaN,1,1,1,3
42,527,2,12,39,2,2,1,2.623117e+00,NaN,1,0,1,3
42,528,2,27,64,1,1,1,2.540041e+00,NaN,1,0,1,3
42,529,2,131,7,2,2,1,2.187944e+00,NaN,1,1,3,3
42,530,2,33,51,2,2,1,2.513866e+00,NaN,1,0,1,3
42,531,2,117,52,1,1,1,2.259027e+00,NaN,1,0,3,3
42,532,2,7,29,2,2,1,1.734137e+00,NaN,1,1,1,3
42,533,2,40,60,2,2,1,2.310729e+00,NaN,1,0,1,3
42,534,3,131,7,1,2,0,1.731045e+00,NaN,1,1,3,3
42,535,3,69,3,2,2,1,1.051403e+00,NaN,1,0,2,3
42,536,3,27,64,2,2,1,2.183097e+00,NaN,1,0,1,3
42,537,3,45,35,1,1,1,2.005199e+00,NaN,1,1,1,3
42,538,3,7,29,2,2,1,1.578553e+00,NaN,1,1,1,3
42,539,3,86,38,2,2,1,2.072458e+00,NaN,1,0,2,3
42,540,3,5,13,2,2,1,2.403213e+00,NaN,1,0,1,3
42,541,3,124,46,1,1,1,1.928890e+00,NaN,1,0,3,3
42,542,3,2,44,1,1,1,2.384763e+00,NaN,1,0,1,3
42,543,3,121,56,1,0,0,3.499620e+00,NaN,1,0,3,3
42,544,3,117,52,2,2,1,2.312125e+00,NaN,1,0,3,3
42,545,3,21,10,1,1,1,2.433294e+00,NaN,1,0,1,3
42,546,3,47,68,1,1,1,1.301190e+00,NaN,1,0,1,3
42,547,3,40,60,1,1,1,1.694627e+00,NaN,1,0,1,3
42,548,3,100,21,2,0,0,3.500112e+00,NaN,1,1,3,3
42,549,3,93,4,1,1,1,1.218627e+00,NaN,1,0,2,3
42,550,3,61,32,1,0,0,3.499847e+00,NaN,1,0,2,3
42,551,3,11,15,1,1,1,1.697079e+00,NaN,1,0,1,3
42,552,3,33,51,2,1,0,2.233721e+00,NaN,1,0,1,3
42,553,3,12,39,2,2,1,1.742340e+00,NaN,1,0,1,3
42,554,3,140,25,1,1,1,1.566280e+00,NaN,1,0,3,3
42,555,3,103,48,1,1,1,2.908970e+00,NaN,1,0,3,3
42,556,3,68,17,1,1,1,1.174227e+00,NaN,1,0,2,3
42,557,3,32,72,2,2,1,2.132937e+00,NaN,1,1,1,3
42,582,4,66,46,1,1,1,2.052856e+00,NaN,2,0,2,1
42,583,4,129,42,1,1,1,2.480466e+00,NaN,2,1,3,1
42,584,4,23,22,1,1,1,2.290492e+00,NaN,2,0,1,1
42,585,4,114,69,2,1,0,2.140834e+00,NaN,2,1,3,1
42,586,4,144,2,2,2,1,1.820721e+00,NaN,2,1,3,1
42,587,4,57,33,1,2,0,1.769467e+00,NaN,2,0,2,1
42,588,4,122,50,2,2,1,3.112339e+00,NaN,2,1,3,1
42,589,4,134,49,2,2,1,2.297316e+00,NaN,2,0,3,1
42,590,4,54,7,2,2,1,2.450369e+00,NaN,2,1,2,1
42,591,4,4,48,2,2,1,2.413971e+00,NaN,2,0,1,1
42,592,4,105,26,1,2,0,2.355924e+00,NaN,2,0,3,1
42,593,4,83,68,2,2,1,1.930479e+00,NaN,2,0,2,1
42,594,4,58,31,1,2,0,2.434336e+00,NaN,2,0,2,1
42,595,4,142,59,1,2,0,1.966514e+00,NaN,2,0,3,1
42,596,4,14,47,2,1,0,2.365632e+00,NaN,2,0,1,1
42,597,4,125,6,2,1,0,2.147869e+00,NaN,2,0,3,1
42,598,4,28,55,2,2,1,2.459288e+00,NaN,2,1,1,1
42,599,4,109,32,2,2,1,2.767157e+00,NaN,2,0,3,1
42,600,4,95,71,2,2,1,2.493896e+00,NaN,2,1,2,1
42,601,4,41,66,2,2,1,2.815930e+00,NaN,2,0,1,1
42,602,4,6,27,1,2,0,3.356500e+00,NaN,2,1,1,1
42,603,4,139,39,1,1,1,2.860289e+00,NaN,2,0,3,1
42,604,4,8,52,1,0,0,3.499788e+00,NaN,2,0,1,1
42,605,4,60,30,1,1,1,1.832903e+00,NaN,2,0,2,1
42,630,4,141,51,2,2,1,2.937181e+00,NaN,2,0,3,2
42,631,4,112,20,1,1,1,1.945718e+00,NaN,2,0,3,2
42,632,4,143,18,1,1,1,2.585230e+00,NaN,2,0,3,2
42,633,4,16,21,2,2,1,2.335002e+00,NaN,2,1,1,2
42,634,4,73,24,1,2,0,1.943435e+00,NaN,2,1,2,2
42,635,4,42,57,2,1,0,2.503611e+00,NaN,2,0,1,2
42,636,4,35,14,2,1,0,2.144967e+00,NaN,2,0,1,2
42,637,4,98,17,1,1,1,2.528205e+00,NaN,2,0,3,2
42,638,4,126,29,1,1,1,2.448615e+00,NaN,2,1,3,2
42,639,4,48,5,2,2,1,2.147525e+00,NaN,2,0,1,2
42,640,4,38,36,2,2,1,1.843156e+00,NaN,2,0,1,2
42,641,4,10,56,1,1,1,2.279448e+00,NaN,2,0,1,2
42,642,4,37,11,1,2,0,3.073095e+00,NaN,2,0,1,2
42,643,4,111,12,2,2,1,1.852361e+00,NaN,2,0,3,2
42,644,4,17,62,2,2,1,2.711758e+00,NaN,2,0,1,2
42,645,4,49,61,1,1,1,1.248334e+00,NaN,2,1,2,2
42,646,4,115,58,1,2,0,2.460882e+00,NaN,2,0,3,2
42,647,4,120,4,1,1,1,2.071162e+00,NaN,2,0,3,2
42,648,4,44,38,2,2,1,2.361947e+00,NaN,2,0,1,2
42,649,4,87,63,2,2,1,1.584997e+00,NaN,2,0,2,2
42,650,4,92,15,1,1,1,2.343036e+00,NaN,2,0,2,2
42,651,4,138,60,2,1,0,2.647016e+00,NaN,2,0,3,2
42,652,4,71,65,1,1,1,1.818469e+00,NaN,2,0,2,2
42,653,4,102,70,1,2,0,2.887257e+00,NaN,2,0,3,2
42,678,4,70,40,2,2,1,2.139976e+00,NaN,2,0,2,3
42,679,4,96,72,2,2,1,2.140342e+00,NaN,2,1,2,3
42,680,4,128,67,1,2,0,1.740853e+00,NaN,2,0,3,3
42,681,4,94,10,1,1,1,1.348777e+00,NaN,2,0,2,3
42,682,4,78,35,2,2,1,2.236170e+00,NaN,2,1,2,3
42,683,4,19,43,1,1,1,1.688007e+00,NaN,2,1,1,3
42,684,4,81,8,2,2,1,1.626444e+00,NaN,2,0,2,3
42,685,4,89,44,2,1,0,1.503390e+00,NaN,2,0,2,3
42,686,4,31,45,1,1,1,2.128430e+00,NaN,2,0,1,3
42,687,4,15,23,1,1,1,1.736551e+00,NaN,2,0,1,3
42,688,4,46,53,2,1,0,2.008420e+00,NaN,2,0,1,3
42,689,4,97,3,2,2,1,1.694404e+00,NaN,2,0,3,3
42,690,4,132,64,2,1,0,2.560360e+00,NaN,2,0,3,3
42,691,4,84,13,1,1,1,2.087798e+00,NaN,2,0,2,3
42,692,4,75,37,2,2,1,2.274039e+00,NaN,2,0,2,3
42,693,4,52,28,1,1,1,2.084511e+00,NaN,2,0,2,3
42,694,4,107,16,2,2,1,2.046584e+00,NaN,2,1,3,3
42,695,4,77,54,2,2,1,2.242320e+00,NaN,2,0,2,3
42,696,4,53,41,1,1,1,2.206004e+00,NaN,2,0,2,3
42,697,4,3,19,2,2,1,2.091534e+00,NaN,2,0,1,3
42,698,4,29,34,1,1,1,1.638012e+00,NaN,2,0,1,3
42,699,4,13,1,2,2,1,1.881828e+00,NaN,2,1,1,3
42,700,4,64,25,2,2,1,2.387757e+00,NaN,2,0,2,3
42,701,4,39,9,1,1,1,2.289941e+00,NaN,2,1,1,3
42,702,5,2.890000e+00,44,1,0,0,2.500155e+00,1,1,0,1.200000e+00,1
42,703,5,1.170800e+02,52,3,1,0,7.171256e-01,1,1,0,3.100000e+00,1
42,704,5,1.246600e+02,46,3,2,0,5.014276e-01,1,1,0,3.200000e+00,1
42,705,5,1.275200e+02,28,3,1,0,3.835291e-01,1,1,0,3.200000e+00,1
42,706,5,1.192000e+01,15,1,2,0,4.405586e-01,1,1,0,1.200000e+00,1
42,707,5,8.829000e+01,34,2,1,0,4.342464e-01,1,1,0,2.100000e+00,1
42,708,5,1.211000e+02,56,3,1,0,5.075201e-01,1,1,0,3.100000e+00,1
42,709,5,1.087100e+02,65,3,2,0,1.532587e+00,1,1,0,3.200000e+00,1
42,710,5,5.137000e+01,11,2,1,0,9.111098e-01,1,1,0,2.100000e+00,1
42,711,5,3.681000e+01,8,1,1,1,4.566019e-01,1,1,0,1.200000e+00,1
42,712,5,1.185300e+02,41,3,3,1,1.138211e+00,1,1,0,3.200000e+00,1
42,713,5,7.242000e+01,57,2,0,0,2.500179e+00,1,1,0,2.100000e+00,1
42,714,5,1.406400e+02,25,3,0,0,2.500157e+00,1,1,0,3.200000e+00,1
42,715,5,3.681000e+01,8,1,1,1,6.556439e-01,2,1,0,1.200000e+00,1
42,716,5,4.783000e+01,68,1,1,1,3.767868e-01,1,1,0,1.200000e+00,1
42,717,5,1.160300e+02,19,3,3,1,5.389616e-01,1,1,0,3.100000e+00,1
42,718,5,8.644000e+01,38,2,2,1,4.760717e-01,1,1,0,2.100000e+00,1
42,719,5,4.783000e+01,68,1,1,1,5.102386e-01,2,1,0,1.200000e+00,1
42,720,5,1.376000e+02,30,3,0,0,2.500456e+00,1,1,0,3.200000e+00,1
42,721,5,6.731000e+01,45,2,2,1,1.500619e+00,1,1,0,2.100000e+00,1
42,722,5,7.242000e+01,57,2,1,0,1.124352e+00,2,1,0,2.100000e+00,1
42,723,5,8.644000e+01,38,2,2,1,8.057773e-01,2,1,0,2.100000e+00,1
42,724,5,1.185300e+02,41,3,3,1,1.579785e-02,2,1,0,3.200000e+00,1
42,725,5,1.192000e+01,15,1,0,0,2.500067e+00,2,1,0,1.200000e+00,1
42,726,5,2.194000e+01,10,1,0,0,2.500522e+00,1,1,0,1.200000e+00,1
42,727,5,8.644000e+01,38,2,2,1,5.813034e-01,3,1,0,2.100000e+00,1
42,728,5,6.209000e+01,32,2,2,1,9.022421e-01,1,1,0,2.300000e+00,1
42,729,5,2.625000e+01,6,1,2,0,8.077402e-01,1,1,0,1.300000e+00,1
42,730,5,2.687000e+01,63,1,1,1,3.695122e-01,1,1,0,1.200000e+00,1
42,731,5,1.750000e+00,37,1,1,1,5.869144e-01,1,1,0,1.200000e+00,1
42,732,5,1.339000e+01,39,1,1,1,3.883714e-01,1,1,0,1.300000e+00,1
42,733,5,4.434000e+01,49,1,0,0,2.500070e+00,1,1,0,1.300000e+00,1
42,734,5,3.142000e+01,59,1,1,1,3.675680e-01,1,1,0,1.300000e+00,1
42,735,5,5.840000e+00,13,1,1,1,5.771759e-01,1,1,0,1.200000e+00,1
42,736,5,1.943000e+01,18,1,1,1,3.788650e-01,1,1,0,1.300000e+00,1
42,737,5,6.997000e+01,3,2,2,1,6.527232e-01,1,1,0,2.300000e+00,1
42,738,5,1.355700e+02,33,3,3,1,4.221966e-01,1,1,0,3.200000e+00,1
42,739,5,6.248000e+01,5,2,2,1,3.912797e-01,1,1,0,2.100000e+00,1
42,740,5,7.635000e+01,14,2,1,0,4.327413e-01,1,1,0,2.100000e+00,1
42,741,5,9.205000e+01,26,2,3,0,2.424370e-01,1,1,0,2.300000e+00,1
42,742,5,1.170800e+02,52,3,0,0,2.500184e+00,2,1,0,3.100000e+00,1
42,743,5,6.402000e+01,70,2,0,0,2.500148e+00,1,1,0,2.300000e+00,1
42,744,5,3.142000e+01,59,1,1,1,3.923178e-01,2,1,0,1.300000e+00,1
42,745,5,6.898000e+01,17,2,2,1,3.703589e-01,1,1,0,2.300000e+00,1
42,746,5,8.312000e+01,20,2,2,1,3.563890e-01,1,1,0,2.300000e+00,1
42,747,5,8.041000e+01,66,2,2,1,3.335702e-01,1,1,0,2.100000e+00,1
42,748,5,8.829000e+01,34,2,0,0,2.500512e+00,2,1,0,2.100000e+00,1
42,749,5,2.832000e+01,64,1,3,0,9.607896e-01,1,1,0,1.300000e+00,1
42,750,5,1.332300e+02,22,3,0,0,2.500526e+00,1,1,0,3.100000e+00,1
42,751,5,2.625000e+01,6,1,0,0,2.500406e+00,2,1,0,1.300000e+00,1
42,752,5,7.242000e+01,57,2,0,0,2.500470e+00,3,1,0,2.100000e+00,1
42,753,5,1.185300e+02,41,3,3,1,3.692774e-01,3,1,0,3.200000e+00,1
42,754,5,9.420000e+01,4,2,2,1,3.864378e-01,1,1,0,2.300000e+00,1
42,755,5,5.840000e+00,13,1,2,0,7.802382e-01,2,1,0,1.200000e+00,1
42,756,5,2.077000e+01,54,1,0,0,2.500202e+00,1,1,0,1.200000e+00,1
42,757,5,1.211000e+02,56,3,0,0,2.500398e+00,2,1,0,3.100000e+00,1
42,758,5,1.061700e+02,62,3,2,0,6.096527e-01,1,1,0,3.100000e+00,1
42,759,5,4.783000e+01,68,1,1,1,6.788968e-02,3,1,0,1.200000e+00,1
42,760,5,1.943000e+01,18,1,1,1,3.815569e-01,2,1,0,1.300000e+00,1
42,761,5,3.142000e+01,59,1,1,1,3.986267e-01,3,1,0,1.300000e+00,1
42,762,5,6.898000e+01,17,2,2,1,6.161367e-01,2,1,0,2.300000e+00,1
42,763,5,9.420000e+01,4,2,0,0,2.500438e+00,2,1,0,2.300000e+00,1
42,764,5,8.829000e+01,34,2,3,0,4.594721e-01,3,1,0,2.100000e+00,1
42,765,5,6.997000e+01,3,2,2,1,7.735695e-01,2,1,0,2.300000e+00,1
42,766,5,1.332300e+02,22,3,3,1,6.389211e-01,2,1,0,3.100000e+00,1
42,767,5,2.832000e+01,64,1,2,0,5.043821e-01,2,1,0,1.300000e+00,1
42,768,5,5.137000e+01,11,2,1,0,3.781258e-01,2,1,0,2.100000e+00,1
42,769,5,1.339000e+01,39,1,1,1,4.590743e-01,2,1,0,1.300000e+00,1
42,770,5,9.038000e+01,36,2,2,1,5.973961e-01,1,1,0,2.100000e+00,1
42,771,5,6.402000e+01,70,2,1,0,3.750762e-01,2,1,0,2.300000e+00,1
42,772,5,7.635000e+01,14,2,3,0,4.161391e-01,2,1,0,2.100000e+00,1
42,773,5,6.611000e+01,12,2,2,1,4.578899e-01,1,1,0,2.300000e+00,1
42,774,5,2.687000e+01,63,1,1,1,5.712648e-01,2,1,0,1.200000e+00,1
42,775,5,5.137000e+01,11,2,3,0,3.403799e-01,3,1,0,2.100000e+00,1
42,776,5,8.312000e+01,20,2,2,1,5.817338e-01,2,1,0,2.300000e+00,1
42,777,5,8.644000e+01,38,2,2,1,7.036610e-01,4,1,0,2.100000e+00,1
42,778,5,5.840000e+00,13,1,3,0,3.609122e-01,3,1,0,1.200000e+00,1
42,779,5,1.211000e+02,56,3,3,1,7.871143e-01,3,1,0,3.100000e+00,1
42,780,5,1.376000e+02,30,3,3,1,8.443901e-01,2,1,0,3.200000e+00,1
42,781,5,6.611000e+01,12,2,3,0,5.494991e-01,2,1,0,2.300000e+00,1
42,782,5,1.061700e+02,62,3,3,1,4.551998e-01,2,1,0,3.100000e+00,1
42,783,5,1.301500e+02,23,3,1,0,5.122392e-01,1,1,0,3.100000e+00,1
42,784,5,8.312000e+01,20,2,0,0,2.500191e+00,3,1,0,2.300000e+00,1
42,785,5,9.420000e+01,4,2,2,1,1.003936e+00,3,1,0,2.300000e+00,1
42,786,5,2.687000e+01,63,1,1,1,4.616693e-01,3,1,0,1.200000e+00,1
42,787,5,5.646000e+01,53,2,2,1,5.907718e-01,1,1,0,2.100000e+00,1
42,788,5,2.194000e+01,10,1,3,0,4.242413e-01,2,1,0,1.200000e+00,1
42,789,5,2.077000e+01,54,1,3,0,5.055448e-01,2,1,0,1.200000e+00,1
42,790,5,1.355700e+02,33,3,3,1,5.873871e-01,2,1,0,3.200000e+00,1
42,791,5,2.194000e+01,10,1,2,0,1.404513e+00,3,1,0,1.200000e+00,1
42,792,5,6.248000e+01,5,2,2,1,6.138532e-01,2,1,0,2.100000e+00,1
42,793,5,8.829000e+01,34,2,3,0,7.946255e-02,4,1,0,2.100000e+00,1
42,794,5,1.061700e+02,62,3,3,1,3.608132e-01,3,1,0,3.100000e+00,1
42,795,5,1.355700e+02,33,3,3,1,8.194674e-01,3,1,0,3.200000e+00,1
42,796,5,7.635000e+01,14,2,0,0,2.500088e+00,3,1,0,2.100000e+00,1
42,797,5,1.246600e+02,46,3,3,1,6.381394e-01,2,1,0,3.200000e+00,1
42,798,5,6.402000e+01,70,2,3,0,9.605849e-01,3,1,0,2.300000e+00,1
42,799,5,9.038000e+01,36,2,2,1,5.380759e-01,2,1,0,2.100000e+00,1
42,800,5,1.750000e+00,37,1,1,1,5.794787e-01,2,1,0,1.200000e+00,1
42,801,5,6.731000e+01,45,2,2,1,6.526510e-01,2,1,0,2.100000e+00,1
42,802,5,1.185300e+02,41,3,3,1,6.945515e-01,4,1,0,3.200000e+00,1
42,803,5,5.115000e+01,58,2,1,0,5.515468e-01,1,1,0,2.300000e+00,1
42,804,5,1.028000e+01,67,1,1,1,8.091447e-01,1,1,0,1.300000e+00,1
42,805,5,9.958000e+01,31,3,3,1,5.954094e-01,1,1,0,3.200000e+00,1
42,806,5,2.890000e+00,44,1,1,1,6.124149e-01,2,1,0,1.200000e+00,1
42,807,5,1.170800e+02,52,3,2,0,3.820075e-01,3,1,0,3.100000e+00,1
42,808,5,4.138000e+01,60,1,1,1,9.194269e-01,1,1,0,1.300000e+00,1
42,809,5,9.205000e+01,26,2,3,0,4.490590e-01,2,1,0,2.300000e+00,1
42,810,5,1.406400e+02,25,3,3,1,3.224742e-01,2,1,0,3.200000e+00,1
42,811,5,1.137000e+02,40,3,3,1,3.955095e-01,1,1,0,3.200000e+00,1
42,812,5,6.898000e+01,17,2,2,1,3.411608e-01,3,1,0,2.300000e+00,1
42,813,5,6.209000e+01,32,2,1,0,3.584428e-01,2,1,0,2.300000e+00,1
42,814,5,1.030400e+02,48,3,1,0,5.760941e-01,1,1,0,3.100000e+00,1
42,815,5,1.028000e+01,67,1,1,1,3.623397e-01,2,1,0,1.300000e+00,1
42,816,5,1.275200e+02,28,3,3,1,2.914819e-01,2,1,0,3.200000e+00,1
42,817,5,1.211000e+02,56,3,2,0,3.571597e-01,4,1,0,3.100000e+00,1
42,818,5,1.087100e+02,65,3,3,1,3.743487e-01,2,1,0,3.200000e+00,1
42,819,5,3.441000e+01,51,1,2,0,3.040956e-01,1,1,0,1.300000e+00,1
42,820,5,6.997000e+01,3,2,3,0,4.169616e-01,3,1,0,2.300000e+00,1
42,821,5,2.077000e+01,54,1,3,0,3.626720e-01,3,1,0,1.200000e+00,1
42,822,5,1.061700e+02,62,3,3,1,6.358993e-01,4,1,0,3.100000e+00,1
42,823,5,6.731000e+01,45,2,2,1,5.896036e-01,3,1,0,2.100000e+00,1
42,824,5,6.731000e+01,45,2,2,1,5.506932e-01,4,1,0,2.100000e+00,1
42,825,5,1.101400e+02,47,3,2,0,5.201259e-01,1,1,0,3.100000e+00,1
42,826,5,3.441000e+01,51,1,3,0,5.297283e-01,2,1,0,1.300000e+00,1
42,827,5,1.028000e+01,67,1,1,1,3.469040e-01,3,1,0,1.300000e+00,1
42,828,5,1.030400e+02,48,3,0,0,2.500225e+00,2,1,0,3.100000e+00,1
42,829,5,9.205000e+01,26,2,2,1,3.428508e-01,3,1,0,2.300000e+00,1
42,830,5,6.898000e+01,17,2,2,1,4.484076e-01,4,1,0,2.300000e+00,1
42,831,5,6.209000e+01,32,2,2,1,9.538096e-01,3,1,0,2.300000e+00,1
42,832,5,9.420000e+01,4,2,2,1,8.117832e-01,4,1,0,2.300000e+00,1
42,833,5,9.958000e+01,31,3,3,1,4.449632e-01,2,1,0,3.200000e+00,1
42,834,5,3.441000e+01,51,1,2,0,7.260654e-01,3,1,0,1.300000e+00,1
42,835,5,3.681000e+01,8,1,1,1,5.126479e-01,3,1,0,1.200000e+00,1
42,836,5,1.332300e+02,22,3,1,0,4.178240e-01,3,1,0,3.100000e+00,1
42,837,5,1.750000e+00,37,1,1,1,5.310148e-01,3,1,0,1.200000e+00,1
42,838,5,9.958000e+01,31,3,3,1,6.527425e-01,3,1,0,3.200000e+00,1
42,839,5,9.205000e+01,26,2,3,0,6.221607e-01,4,1,0,2.300000e+00,1
42,840,5,1.137000e+02,40,3,1,0,4.715618e-01,2,1,0,3.200000e+00,1
42,841,5,5.840000e+00,13,1,2,0,5.050344e-01,4,1,0,1.200000e+00,1
42,842,5,5.646000e+01,53,2,2,1,6.180839e-01,2,1,0,2.100000e+00,1
42,843,5,2.194000e+01,10,1,2,0,1.795548e+00,4,1,0,1.200000e+00,1
42,844,5,7.242000e+01,57,2,3,0,6.295599e-01,4,1,0,2.100000e+00,1
42,845,5,9.038000e+01,36,2,2,1,6.149299e-01,3,1,0,2.100000e+00,1
42,846,5,6.997000e+01,3,2,3,0,6.643975e-01,4,1,0,2.300000e+00,1
42,847,5,1.192000e+01,15,1,3,0,5.538231e-01,3,1,0,1.200000e+00,1
42,848,5,1.030400e+02,48,3,3,1,8.195353e-01,3,1,0,3.100000e+00,1
42,849,5,3.142000e+01,59,1,3,0,8.529433e-01,4,1,0,1.300000e+00,1
42,850,5,5.137000e+01,11,2,1,0,1.022099e+00,4,1,0,2.100000e+00,1
42,851,5,5.115000e+01,58,2,0,0,2.500238e+00,2,1,0,2.300000e+00,1
42,852,5,1.376000e+02,30,3,1,0,8.497304e-01,3,1,0,3.200000e+00,1
42,853,5,1.028000e+01,67,1,1,1,7.393006e-01,4,1,0,1.300000e+00,1
42,854,5,4.434000e+01,49,1,0,0,2.500508e+00,2,1,0,1.300000e+00,1
42,855,5,1.406400e+02,25,3,0,0,2.500547e+00,3,1,0,3.200000e+00,1
42,856,5,1.137000e+02,40,3,2,0,3.206263e-01,3,1,0,3.200000e+00,1
42,857,5,8.041000e+01,66,2,2,1,4.265067e-01,2,1,0,2.100000e+00,1
42,858,5,4.434000e+01,49,1,2,0,4.921826e-01,3,1,0,1.300000e+00,1
42,859,5,6.402000e+01,70,2,1,0,4.387442e-01,4,1,0,2.300000e+00,1
42,860,5,9.038000e+01,36,2,2,1,4.798186e-01,4,1,0,2.100000e+00,1
42,861,5,1.246600e+02,46,3,3,1,5.052076e-01,3,1,0,3.200000e+00,1
42,862,5,1.275200e+02,28,3,3,1,5.545988e-01,3,1,0,3.200000e+00,1
42,863,5,1.170800e+02,52,3,1,0,4.439620e-01,4,1,0,3.100000e+00,1
42,864,5,1.301500e+02,23,3,2,0,1.110234e+00,2,1,0,3.100000e+00,1
42,865,5,5.115000e+01,58,2,0,0,2.500585e+00,3,1,0,2.300000e+00,1
42,866,5,1.246600e+02,46,3,2,0,4.662698e-01,4,1,0,3.200000e+00,1
42,867,5,1.101400e+02,47,3,3,1,1.723647e+00,2,1,0,3.100000e+00,1
42,868,5,6.611000e+01,12,2,3,0,5.820535e-01,3,1,0,2.300000e+00,1
42,869,5,7.635000e+01,14,2,2,1,1.759070e+00,4,1,0,2.100000e+00,1
42,870,5,2.077000e+01,54,1,2,0,9.693953e-01,4,1,0,1.200000e+00,1
42,871,5,1.332300e+02,22,3,0,0,2.500385e+00,4,1,0,3.100000e+00,1
42,872,5,8.312000e+01,20,2,2,1,4.207610e-01,4,1,0,2.300000e+00,1
42,873,5,1.087100e+02,65,3,3,1,7.023875e-01,3,1,0,3.200000e+00,1
42,874,5,1.160300e+02,19,3,3,1,4.556849e-01,2,1,0,3.100000e+00,1
42,875,5,6.209000e+01,32,2,1,0,7.612486e-01,4,1,0,2.300000e+00,1
42,876,5,1.275200e+02,28,3,3,1,5.711447e-01,4,1,0,3.200000e+00,1
42,877,5,6.248000e+01,5,2,2,1,4.846391e-01,3,1,0,2.100000e+00,1
42,878,5,1.943000e+01,18,1,1,1,4.380364e-01,3,1,0,1.300000e+00,1
42,879,5,1.355700e+02,33,3,3,1,3.836227e-01,4,1,0,3.200000e+00,1
42,880,5,1.137000e+02,40,3,3,1,3.686957e-01,4,1,0,3.200000e+00,1
42,881,5,3.441000e+01,51,1,1,1,3.305571e-01,4,1,0,1.300000e+00,1
42,882,5,8.041000e+01,66,2,2,1,3.316577e-01,3,1,0,2.100000e+00,1
42,883,5,1.101400e+02,47,3,3,1,6.129622e-01,3,1,0,3.100000e+00,1
42,884,5,1.301500e+02,23,3,2,0,4.465714e-01,3,1,0,3.100000e+00,1
42,885,5,1.301500e+02,23,3,3,1,4.639911e-01,4,1,0,3.100000e+00,1
42,886,5,1.376000e+02,30,3,2,0,4.094604e-01,4,1,0,3.200000e+00,1
42,887,5,4.138000e+01,60,1,1,1,3.713577e-01,2,1,0,1.300000e+00,1
42,888,5,2.890000e+00,44,1,1,1,4.286766e-01,3,1,0,1.200000e+00,1
42,889,5,2.832000e+01,64,1,3,0,3.345778e-01,3,1,0,1.300000e+00,1
42,890,5,6.248000e+01,5,2,2,1,4.406054e-01,4,1,0,2.100000e+00,1
42,891,5,2.687000e+01,63,1,1,1,5.773323e-01,4,1,0,1.200000e+00,1
42,892,5,3.681000e+01,8,1,1,1,3.632567e-01,4,1,0,1.200000e+00,1
42,893,5,1.943000e+01,18,1,1,1,4.932566e-01,4,1,0,1.300000e+00,1
42,894,5,1.406400e+02,25,3,2,0,5.668053e-01,4,1,0,3.200000e+00,1
42,895,5,2.832000e+01,64,1,1,1,4.561660e-01,4,1,0,1.300000e+00,1
42,896,5,4.783000e+01,68,1,1,1,3.859035e-01,4,1,0,1.200000e+00,1
42,897,5,2.625000e+01,6,1,2,0,8.110600e-01,3,1,0,1.300000e+00,1
42,898,5,2.890000e+00,44,1,2,0,4.925375e-01,4,1,0,1.200000e+00,1
42,899,5,8.041000e+01,66,2,2,1,3.664853e-01,4,1,0,2.100000e+00,1
42,900,5,4.434000e+01,49,1,3,0,3.277931e-01,4,1,0,1.300000e+00,1
42,901,5,4.138000e+01,60,1,1,1,4.256422e-01,3,1,0,1.300000e+00,1
42,902,5,1.750000e+00,37,1,1,1,6.916019e-01,4,1,0,1.200000e+00,1
42,903,5,5.646000e+01,53,2,0,0,2.500065e+00,3,1,0,2.100000e+00,1
42,904,5,1.101400e+02,47,3,1,0,9.669832e-01,4,1,0,3.100000e+00,1
42,905,5,1.192000e+01,15,1,1,1,1.000133e+00,4,1,0,1.200000e+00,1
42,906,5,5.115000e+01,58,2,3,0,3.939278e-01,4,1,0,2.300000e+00,1
42,907,5,1.339000e+01,39,1,1,1,5.557274e-01,3,1,0,1.300000e+00,1
42,908,5,4.138000e+01,60,1,1,1,6.615221e-01,4,1,0,1.300000e+00,1
42,909,5,1.339000e+01,39,1,1,1,7.908923e-01,4,1,0,1.300000e+00,1
42,910,5,1.160300e+02,19,3,3,1,5.200384e-01,3,1,0,3.100000e+00,1
42,911,5,1.160300e+02,19,3,3,1,4.175922e-01,4,1,0,3.100000e+00,1
42,912,5,2.625000e+01,6,1,2,0,4.268508e-01,4,1,0,1.300000e+00,1
42,913,5,1.087100e+02,65,3,2,0,6.211836e-01,4,1,0,3.200000e+00,1
42,914,5,1.030400e+02,48,3,1,0,5.103680e-01,4,1,0,3.100000e+00,1
42,915,5,6.611000e+01,12,2,2,1,5.125954e-01,4,1,0,2.300000e+00,1
42,916,5,5.646000e+01,53,2,2,1,1.433903e+00,4,1,0,2.100000e+00,1
42,917,5,9.958000e+01,31,3,2,0,4.675674e-01,4,1,0,3.200000e+00,1
42,918,6,89,44,2,1,0,1.575211e+00,NaN,2,0,2,1
42,919,6,120,4,2,1,0,1.391364e+00,NaN,2,0,3,1
42,920,6,38,36,1,2,0,2.141799e+00,NaN,2,0,1,1
42,921,6,102,70,2,1,0,1.702529e+00,NaN,2,0,3,1
42,922,6,75,37,2,2,1,1.360965e+00,NaN,2,0,2,1
42,923,6,37,11,2,2,1,1.584921e+00,NaN,2,0,1,1
42,924,6,143,18,1,1,1,1.399732e+00,NaN,2,0,3,1
42,925,6,84,13,1,2,0,1.229343e+00,NaN,2,0,2,1
42,926,6,48,5,1,1,1,2.098535e+00,NaN,2,0,1,1
42,927,6,139,39,1,1,1,2.044309e+00,NaN,2,0,3,1
42,928,6,111,12,1,2,0,3.009057e+00,NaN,2,0,3,1
42,929,6,142,59,2,2,1,3.046952e+00,NaN,2,0,3,1
42,930,6,134,49,1,2,0,2.986789e+00,NaN,2,0,3,1
42,931,6,115,58,1,2,0,1.057655e+00,NaN,2,0,3,1
42,932,6,8,52,1,1,1,1.653499e+00,NaN,2,0,1,1
42,933,6,35,14,2,2,1,2.969882e+00,NaN,2,0,1,1
42,934,6,10,56,1,2,0,1.713121e+00,NaN,2,0,1,1
42,935,6,39,9,1,2,0,1.618794e+00,NaN,2,1,1,1
42,936,6,144,2,1,2,0,1.848182e+00,NaN,2,1,3,1
42,937,6,96,72,2,1,0,1.539729e+00,NaN,2,1,2,1
42,938,6,92,15,2,2,1,1.924637e+00,NaN,2,0,2,1
42,939,6,83,68,1,2,0,2.590150e+00,NaN,2,0,2,1
42,940,6,49,61,2,1,0,2.676822e+00,NaN,2,1,2,1
42,941,6,70,40,1,2,0,1.352246e+00,NaN,2,0,2,1
42,942,6,57,33,1,1,1,1.904386e+00,NaN,2,0,2,1
42,943,6,94,10,2,2,1,1.298042e+00,NaN,2,0,2,1
42,944,6,126,29,1,1,1,1.348500e+00,NaN,2,1,3,1
42,945,6,46,53,1,1,1,8.282904e-01,NaN,2,0,1,1
42,946,6,23,22,2,2,1,2.001866e+00,NaN,2,0,1,1
42,947,6,112,20,2,2,1,1.471462e+00,NaN,2,0,3,1
42,948,6,54,7,2,1,0,1.923187e+00,NaN,2,1,2,1
42,949,6,138,60,2,2,1,6.767603e-01,NaN,2,0,3,1
42,950,6,29,34,1,1,1,1.143629e+00,NaN,2,0,1,1
42,951,6,52,28,2,2,1,1.040440e+00,NaN,2,0,2,1
42,952,6,6,27,2,1,0,1.765040e+00,NaN,2,1,1,1
42,953,6,125,6,2,1,0,1.860845e+00,NaN,2,0,3,1
42,954,6,87,63,1,1,1,1.343808e+00,NaN,2,0,2,1
42,955,6,105,26,1,2,0,2.544939e+00,NaN,2,0,3,1
42,956,6,107,16,2,2,1,1.081531e+00,NaN,2,1,3,1
42,957,6,73,24,1,2,0,1.476207e+00,NaN,2,1,2,1
42,958,6,28,55,2,1,0,1.327198e+00,NaN,2,1,1,1
42,959,6,71,65,1,2,0,1.656845e+00,NaN,2,0,2,1
42,960,6,114,69,2,2,1,7.169931e-01,NaN,2,1,3,1
42,961,6,64,25,1,1,1,1.358033e+00,NaN,2,0,2,1
42,962,6,44,38,2,2,1,1.574539e+00,NaN,2,0,1,1
42,963,6,3,19,1,1,1,2.029313e+00,NaN,2,0,1,1
42,964,6,81,8,2,1,0,1.186486e+00,NaN,2,0,2,1
42,965,6,15,23,2,2,1,1.840936e+00,NaN,2,0,1,1
42,966,6,98,17,1,2,0,1.430532e+00,NaN,2,0,3,1
42,967,6,13,1,2,1,0,2.610548e+00,NaN,2,1,1,1
42,968,6,58,31,2,1,0,1.016240e+00,NaN,2,0,2,1
42,969,6,109,32,1,1,1,9.420315e-01,NaN,2,0,3,1
42,970,6,31,45,1,1,1,2.310274e+00,NaN,2,0,1,1
42,971,6,132,64,2,1,0,1.168295e+00,NaN,2,0,3,1
42,972,6,16,21,2,2,1,8.957997e-01,NaN,2,1,1,1
42,973,6,42,57,2,2,1,1.825609e+00,NaN,2,0,1,1
42,974,6,128,67,1,2,0,9.750999e-01,NaN,2,0,3,1
42,975,6,53,41,2,2,1,3.903576e-01,NaN,2,0,2,1
42,976,6,41,66,1,1,1,9.257374e-01,NaN,2,0,1,1
42,977,6,78,35,2,0,0,3.499548e+00,NaN,2,1,2,1
42,978,6,19,43,2,2,1,1.432424e+00,NaN,2,1,1,1
42,979,6,60,30,2,1,0,5.655888e-01,NaN,2,0,2,1
42,980,6,122,50,1,1,1,1.133030e+00,NaN,2,1,3,1
42,981,6,14,47,1,1,1,7.653824e-01,NaN,2,0,1,1
42,982,6,97,3,2,2,1,8.370187e-01,NaN,2,0,3,1
42,983,6,66,46,2,2,1,1.697228e+00,NaN,2,0,2,1
42,984,6,4,48,2,2,1,7.715060e-01,NaN,2,0,1,1
42,985,6,141,51,2,1,0,1.043005e+00,NaN,2,0,3,1
42,986,6,77,54,1,2,0,1.047442e+00,NaN,2,0,2,1
42,987,6,95,71,2,1,0,1.075647e+00,NaN,2,1,2,1
42,988,6,129,42,1,2,0,5.587755e-01,NaN,2,1,3,1
42,989,6,17,62,1,2,0,8.631566e-01,NaN,2,0,1,1
42,990,6,2,44,1,1,1,8.422286e-01,NaN,1,0,1,1
42,991,6,18,18,1,0,0,3.499823e+00,NaN,1,0,1,1
42,992,6,40,60,2,1,0,2.081252e+00,NaN,1,0,1,1
42,993,6,47,68,2,2,1,1.452041e+00,NaN,1,0,1,1
42,994,6,121,56,1,2,0,2.127751e+00,NaN,1,0,3,1
42,995,6,43,49,1,2,0,8.894078e-01,NaN,1,0,1,1
42,996,6,108,65,1,1,1,7.318615e-01,NaN,1,0,3,1
42,997,6,127,28,2,1,0,5.726110e-01,NaN,1,0,3,1
42,998,6,32,72,2,2,1,7.078229e-01,NaN,1,1,1,1
42,999,6,93,4,2,1,0,8.940572e-01,NaN,1,0,2,1
42,1000,6,30,59,1,2,0,8.644956e-01,NaN,1,0,1,1
42,1001,6,1,37,1,1,1,8.042195e-01,NaN,1,0,1,1
42,1002,6,140,25,1,2,0,6.180993e-01,NaN,1,0,3,1
42,1003,6,24,42,1,1,1,6.234088e-01,NaN,1,1,1,1
42,1004,6,25,6,2,2,1,6.208135e-01,NaN,1,0,1,1
42,1005,6,72,57,1,2,0,1.258024e+00,NaN,1,0,2,1
42,1006,6,21,10,2,2,1,1.549878e+00,NaN,1,0,1,1
42,1007,6,27,64,2,2,1,2.677929e+00,NaN,1,0,1,1
42,1008,6,61,32,2,2,1,1.753660e+00,NaN,1,0,2,1
42,1009,6,20,54,2,1,0,3.249527e+00,NaN,1,0,1,1
42,1010,6,104,24,2,2,1,1.141796e+00,NaN,1,1,3,1
42,1011,6,7,29,1,2,0,1.790187e+00,NaN,1,1,1,1
42,1012,6,137,30,1,2,0,2.660813e+00,NaN,1,0,3,1
42,1013,6,91,26,1,1,1,1.944998e+00,NaN,1,0,2,1
42,1014,6,5,13,1,2,0,1.169867e+00,NaN,1,0,1,1
42,1015,6,26,63,2,2,1,1.625292e+00,NaN,1,0,1,1
42,1016,6,45,35,1,2,0,1.174863e+00,NaN,1,1,1,1
42,1017,6,9,67,2,2,1,1.693978e+00,NaN,1,0,1,1
42,1018,6,118,41,2,1,0,2.368158e+00,NaN,1,0,3,1
42,1019,6,100,21,2,1,0,9.513393e-01,NaN,1,1,3,1
42,1020,6,34,2,2,2,1,1.503361e+00,NaN,1,1,1,1
42,1021,6,68,17,2,2,1,1.025478e+00,NaN,1,0,2,1
42,1022,6,76,14,2,2,1,1.495060e+00,NaN,1,0,2,1
42,1023,6,62,5,1,1,1,1.041209e+00,NaN,1,0,2,1
42,1024,6,101,61,2,1,0,9.982689e-01,NaN,1,1,3,1
42,1025,6,135,33,1,0,0,3.499653e+00,NaN,1,0,3,1
42,1026,6,133,22,2,2,1,9.740827e-01,NaN,1,0,3,1
42,1027,6,103,48,2,1,0,2.309573e+00,NaN,1,0,3,1
42,1028,6,11,15,2,2,1,1.304017e+00,NaN,1,0,1,1
42,1029,6,79,9,1,1,1,1.305691e+00,NaN,1,1,2,1
42,1030,6,12,39,1,1,1,8.439621e-01,NaN,1,0,1,1
42,1031,6,113,40,2,1,0,6.244943e-01,NaN,1,0,3,1
42,1032,6,99,31,2,1,0,5.737252e-01,NaN,1,0,3,1
42,1033,6,33,51,2,2,1,1.077526e+00,NaN,1,0,1,1
42,1034,6,131,7,2,1,0,5.367312e-01,NaN,1,1,3,1
42,1035,6,55,69,2,2,1,6.970587e-01,NaN,1,1,2,1
42,1036,6,88,34,2,1,0,3.953293e-01,NaN,1,0,2,1
42,1037,6,130,23,2,2,1,3.379035e-01,NaN,1,0,3,1
42,1038,6,69,3,1,1,1,9.064366e-01,NaN,1,0,2,1
42,1039,6,50,58,1,1,1,7.886921e-01,NaN,1,0,2,1
42,1040,6,36,8,1,2,0,2.483074e+00,NaN,1,0,1,1
42,1041,6,124,46,2,2,1,2.013893e+00,NaN,1,0,3,1
42,1042,6,119,27,2,2,1,1.227331e+00,NaN,1,1,3,1
42,1043,6,116,19,1,2,0,1.128835e+00,NaN,1,0,3,1
42,1044,6,82,20,1,0,0,3.500006e+00,NaN,1,0,2,1
42,1045,6,86,38,2,0,0,3.499981e+00,NaN,1,0,2,1
42,1046,6,59,55,1,2,0,2.341857e+00,NaN,1,1,2,1
42,1047,6,110,47,1,1,1,1.678115e+00,NaN,1,0,3,1
42,1048,6,65,12,1,1,1,3.137685e+00,NaN,1,0,2,1
42,1049,6,136,1,2,2,1,1.578148e+00,NaN,1,1,3,1
42,1050,6,106,62,2,2,1,1.129491e+00,NaN,1,0,3,1
42,1051,6,123,43,1,2,0,7.221302e-01,NaN,1,1,3,1
42,1052,6,63,70,2,2,1,6.998463e-01,NaN,1,0,2,1
42,1053,6,80,66,2,2,1,1.997837e+00,NaN,1,0,2,1
42,1054,6,74,50,2,2,1,1.883645e+00,NaN,1,1,2,1
42,1055,6,56,53,2,1,0,2.214229e+00,NaN,1,0,2,1
42,1056,6,22,71,1,1,1,7.958679e-01,NaN,1,1,1,1
42,1057,6,90,36,1,2,0,7.861964e-01,NaN,1,0,2,1
42,1058,6,117,52,2,2,1,6.650455e-01,NaN,1,0,3,1
42,1059,6,85,16,1,1,1,6.120352e-01,NaN,1,1,2,1
42,1060,6,51,11,2,2,1,1.721551e+00,NaN,1,0,2,1
42,1061,6,67,45,1,2,0,2.154444e+00,NaN,1,0,2,1
