Subject,Trial,Cond,ImageNum,CueNum,Correct,Resp,Accuracy,RT,CueRep,ImageType,Baseline,Category,Block
52,1,1,120,NaN,NaN,1,NaN,3.042138e-01,NaN,0,0,3,1
52,2,1,64,NaN,NaN,1,NaN,1.408975e+00,NaN,2,0,2,1
52,3,1,68,NaN,NaN,1,NaN,1.714025e+00,NaN,2,0,2,1
52,4,1,131,NaN,NaN,2,NaN,2.614742e+00,NaN,2,0,3,1
52,5,1,76,NaN,NaN,1,NaN,2.478331e-01,NaN,2,1,2,1
52,6,1,26,NaN,NaN,1,NaN,2.229020e-01,NaN,1,0,1,1
52,7,1,69,NaN,NaN,1,NaN,1.983327e+00,NaN,1,0,2,1
52,8,1,43,NaN,NaN,1,NaN,2.561972e+00,NaN,2,0,1,1
52,9,1,94,NaN,NaN,1,NaN,1.508321e+00,NaN,0,0,2,1
52,10,1,96,NaN,NaN,1,NaN,1.417910e+00,NaN,0,0,2,1
52,11,1,97,NaN,NaN,1,NaN,1.546725e+00,NaN,2,0,3,1
52,12,1,37,NaN,NaN,2,NaN,9.019995e-01,NaN,0,1,1,1
52,13,1,53,NaN,NaN,1,NaN,1.883402e+00,NaN,0,1,2,1
52,14,1,71,NaN,NaN,1,NaN,2.713402e+00,NaN,0,0,2,1
52,15,1,135,NaN,NaN,1,NaN,1.918114e+00,NaN,2,0,3,1
52,16,1,38,NaN,NaN,1,NaN,1.458558e+00,NaN,0,0,1,1
52,17,1,95,NaN,NaN,1,NaN,1.074257e+00,NaN,0,0,2,1
52,18,1,118,NaN,NaN,1,NaN,7.609853e-01,NaN,0,0,3,1
52,19,1,35,NaN,NaN,1,NaN,1.060657e+00,NaN,0,0,1,1
52,20,1,138,NaN,NaN,1,NaN,6.114932e-01,NaN,0,1,3,1
52,21,1,70,NaN,NaN,1,NaN,7.802690e-01,NaN,0,0,2,1
52,22,1,23,NaN,NaN,1,NaN,5.903794e-01,NaN,0,0,1,1
52,23,1,5,NaN,NaN,1,NaN,7.207405e-01,NaN,0,1,1,1
52,24,1,93,NaN,NaN,1,NaN,7.335648e-01,NaN,0,1,2,1
52,25,1,139,NaN,NaN,1,NaN,3.933437e-01,NaN,0,0,3,1
52,26,1,41,NaN,NaN,2,NaN,4.433529e-01,NaN,0,0,1,1
52,27,1,105,NaN,NaN,2,NaN,1.035418e+00,NaN,2,1,3,1
52,28,1,77,NaN,NaN,1,NaN,7.076376e-01,NaN,2,1,2,1
52,29,1,52,NaN,NaN,1,NaN,5.296203e-01,NaN,1,0,2,1
52,30,1,106,NaN,NaN,1,NaN,9.887834e-01,NaN,1,0,3,1
52,31,1,28,NaN,NaN,1,NaN,7.911219e-01,NaN,0,0,1,1
52,32,1,110,NaN,NaN,1,NaN,9.847530e-01,NaN,1,0,3,1
52,33,1,86,NaN,NaN,1,NaN,8.269152e-01,NaN,1,0,2,1
52,34,1,98,NaN,NaN,2,NaN,5.394831e-01,NaN,0,1,3,1
52,35,1,8,NaN,NaN,1,NaN,6.316810e-01,NaN,2,1,1,1
52,36,1,81,NaN,NaN,1,NaN,8.474984e-01,NaN,2,0,2,1
52,37,1,55,NaN,NaN,1,NaN,5.353618e-01,NaN,2,0,2,1
52,38,1,24,NaN,NaN,2,NaN,6.592156e-01,NaN,0,1,1,1
52,39,1,109,NaN,NaN,1,NaN,5.626015e-01,NaN,0,0,3,1
52,40,1,89,NaN,NaN,1,NaN,5.570863e-01,NaN,0,0,2,1
52,41,1,42,NaN,NaN,1,NaN,3.534101e-01,NaN,2,0,1,1
52,42,1,17,NaN,NaN,1,NaN,2.999658e-01,NaN,1,0,1,1
52,43,1,19,NaN,NaN,2,NaN,4.893718e-01,NaN,0,0,1,1
52,44,1,131,NaN,NaN,2,NaN,6.634319e-01,NaN,0,0,3,1
52,45,1,142,NaN,NaN,1,NaN,7.022257e-01,NaN,2,1,3,1
52,46,1,99,NaN,NaN,2,NaN,7.321642e-01,NaN,2,1,3,1
52,47,1,93,NaN,NaN,1,NaN,7.765007e-01,NaN,2,1,2,1
52,48,1,142,NaN,NaN,1,NaN,3.542411e-01,NaN,0,1,3,1
52,49,1,106,NaN,NaN,1,NaN,4.375594e-01,NaN,0,0,3,1
52,50,1,46,NaN,NaN,1,NaN,1.565538e+00,NaN,2,0,1,1
52,51,1,72,NaN,NaN,1,NaN,1.024097e+00,NaN,1,0,2,1
52,52,1,108,NaN,NaN,2,NaN,5.527426e-01,NaN,0,0,3,1
52,53,1,132,NaN,NaN,2,NaN,6.601746e-01,NaN,0,0,3,1
52,54,1,15,NaN,NaN,1,NaN,4.434404e-01,NaN,0,0,1,1
52,55,1,122,NaN,NaN,2,NaN,6.277846e-01,NaN,1,0,3,1
52,56,1,80,NaN,NaN,1,NaN,1.164298e+00,NaN,0,1,2,1
52,57,1,44,NaN,NaN,1,NaN,1.927167e+00,NaN,0,1,1,1
52,58,1,61,NaN,NaN,1,NaN,8.037799e-01,NaN,1,0,2,1
52,59,1,109,NaN,NaN,1,NaN,4.695641e-01,NaN,2,0,3,1
52,60,1,24,NaN,NaN,1,NaN,9.169262e-01,NaN,2,1,1,1
52,61,1,18,NaN,NaN,2,NaN,4.166783e-01,NaN,0,0,1,1
52,62,1,13,NaN,NaN,1,NaN,2.972313e-01,NaN,0,1,1,1
52,63,1,55,NaN,NaN,1,NaN,1.028673e-01,NaN,0,0,2,1
52,64,1,120,NaN,NaN,1,NaN,3.960957e-01,NaN,2,0,3,1
52,65,1,49,NaN,NaN,1,NaN,2.349558e+00,NaN,2,0,2,1
52,66,1,2,NaN,NaN,1,NaN,4.886993e-01,NaN,0,0,1,1
52,67,1,2,NaN,NaN,1,NaN,5.988845e-01,NaN,2,0,1,1
52,68,1,30,NaN,NaN,2,NaN,4.087470e-01,NaN,1,0,1,1
52,69,1,118,NaN,NaN,1,NaN,6.339343e-01,NaN,1,0,3,1
52,70,1,95,NaN,NaN,1,NaN,6.976124e-01,NaN,1,0,2,1
52,71,1,30,NaN,NaN,1,NaN,6.229996e-01,NaN,0,0,1,1
52,72,1,143,NaN,NaN,1,NaN,9.036298e-01,NaN,1,0,3,1
52,73,1,29,NaN,NaN,1,NaN,5.734230e-01,NaN,2,0,1,1
52,74,1,88,NaN,NaN,1,NaN,7.201148e-01,NaN,2,0,2,1
52,75,1,97,NaN,NaN,1,NaN,3.885931e-01,NaN,0,0,3,1
52,76,1,81,NaN,NaN,1,NaN,4.943395e-01,NaN,0,0,2,1
52,77,1,16,NaN,NaN,1,NaN,2.038942e-01,NaN,2,0,1,1
52,78,1,140,NaN,NaN,1,NaN,4.935722e-01,NaN,1,0,3,1
52,79,1,124,NaN,NaN,2,NaN,4.915555e-01,NaN,0,0,3,1
52,80,1,65,NaN,NaN,1,NaN,4.735308e-01,NaN,1,0,2,1
52,81,1,67,NaN,NaN,1,NaN,8.322403e-01,NaN,2,0,2,1
52,82,1,129,NaN,NaN,2,NaN,5.362967e-01,NaN,0,0,3,1
52,83,1,39,NaN,NaN,2,NaN,7.640848e-01,NaN,2,0,1,1
52,84,1,103,NaN,NaN,1,NaN,7.271230e-01,NaN,2,1,3,1
52,85,1,10,NaN,NaN,1,NaN,6.435388e-01,NaN,0,0,1,1
52,86,1,29,NaN,NaN,1,NaN,5.238944e-01,NaN,0,0,1,1
52,87,1,125,NaN,NaN,1,NaN,4.726572e-01,NaN,2,0,3,1
52,88,1,6,NaN,NaN,1,NaN,5.427724e-01,NaN,1,0,1,1
52,89,1,74,NaN,NaN,1,NaN,7.070221e-01,NaN,0,0,2,1
52,90,1,128,NaN,NaN,1,NaN,7.843712e-01,NaN,0,0,3,1
52,91,1,75,NaN,NaN,1,NaN,3.308108e-01,NaN,0,0,2,1
52,92,1,104,NaN,NaN,1,NaN,1.150719e+00,NaN,2,0,3,1
52,93,1,122,NaN,NaN,1,NaN,1.041898e+00,NaN,0,0,3,1
52,94,1,62,NaN,NaN,1,NaN,6.098877e-01,NaN,0,1,2,1
52,95,1,110,NaN,NaN,1,NaN,4.515244e-01,NaN,0,0,3,1
52,96,1,41,NaN,NaN,2,NaN,5.225333e-01,NaN,1,0,1,1
52,97,1,32,NaN,NaN,1,NaN,8.396716e-01,NaN,2,0,1,1
52,98,1,126,NaN,NaN,2,NaN,7.032831e-01,NaN,2,0,3,1
52,99,1,138,NaN,NaN,1,NaN,3.729138e-01,NaN,2,1,3,1
52,100,1,50,NaN,NaN,1,NaN,6.237781e-01,NaN,0,0,2,1
52,101,1,36,NaN,NaN,2,NaN,6.880536e-01,NaN,0,0,1,1
52,102,1,10,NaN,NaN,1,NaN,6.068770e-01,NaN,1,0,1,1
52,103,1,92,NaN,NaN,1,NaN,6.714932e-01,NaN,0,0,2,1
52,104,1,69,NaN,NaN,1,NaN,4.380828e-01,NaN,0,0,2,1
52,105,1,62,NaN,NaN,1,NaN,5.825251e-01,NaN,1,1,2,1
52,106,1,121,NaN,NaN,1,NaN,5.283446e-01,NaN,0,1,3,1
52,107,1,65,NaN,NaN,1,NaN,5.162264e-01,NaN,0,0,2,1
52,108,1,89,NaN,NaN,1,NaN,3.051411e-01,NaN,2,0,2,1
52,109,1,130,NaN,NaN,2,NaN,4.224063e-01,NaN,0,0,3,1
52,110,1,99,NaN,NaN,2,NaN,9.913117e-01,NaN,0,1,3,1
52,111,1,31,NaN,NaN,1,NaN,4.091406e-01,NaN,0,0,1,1
52,112,1,94,NaN,NaN,1,NaN,8.587772e-01,NaN,1,0,2,1
52,113,1,68,NaN,NaN,1,NaN,5.379047e-01,NaN,0,0,2,1
52,114,1,9,NaN,NaN,1,NaN,4.383004e-01,NaN,1,1,1,1
52,115,1,54,NaN,NaN,1,NaN,5.899450e-01,NaN,0,0,2,1
52,116,1,127,NaN,NaN,1,NaN,5.201490e-01,NaN,0,0,3,1
52,117,1,34,NaN,NaN,1,NaN,9.247883e-01,NaN,0,1,1,1
52,118,1,101,NaN,NaN,2,NaN,4.414171e-01,NaN,2,0,3,1
52,119,1,4,NaN,NaN,1,NaN,4.095687e-01,NaN,2,0,1,1
52,120,1,144,NaN,NaN,1,NaN,4.108724e-01,NaN,1,0,3,1
52,121,1,80,NaN,NaN,1,NaN,7.165695e-01,NaN,1,1,2,1
52,122,1,43,NaN,NaN,2,NaN,6.488303e-01,NaN,0,0,1,1
52,123,1,37,NaN,NaN,1,NaN,6.806929e-01,NaN,1,1,1,1
52,124,1,71,NaN,NaN,1,NaN,5.427368e-01,NaN,2,0,2,1
52,125,1,12,NaN,NaN,1,NaN,8.184787e-01,NaN,1,0,1,1
52,126,1,91,NaN,NaN,1,NaN,8.112544e-01,NaN,0,1,2,1
52,127,1,117,NaN,NaN,1,NaN,6.281103e-01,NaN,0,0,3,1
52,128,1,115,NaN,NaN,2,NaN,7.237428e-01,NaN,2,1,3,1
52,129,1,125,NaN,NaN,1,NaN,3.768174e-01,NaN,0,0,3,1
52,130,1,7,NaN,NaN,1,NaN,6.036746e-01,NaN,0,1,1,1
52,131,1,143,NaN,NaN,1,NaN,5.406211e-01,NaN,0,0,3,1
52,132,1,8,NaN,NaN,1,NaN,5.129370e-01,NaN,0,1,1,1
52,133,1,82,NaN,NaN,1,NaN,5.335773e-01,NaN,0,0,2,1
52,134,1,130,NaN,NaN,2,NaN,6.264698e-01,NaN,1,0,3,1
52,135,1,137,NaN,NaN,1,NaN,6.102864e-01,NaN,2,0,3,1
52,136,1,64,NaN,NaN,1,NaN,3.634911e-01,NaN,0,0,2,1
52,137,1,139,NaN,NaN,1,NaN,4.784018e-01,NaN,1,0,3,1
52,138,1,40,NaN,NaN,1,NaN,6.283657e-01,NaN,2,0,1,1
52,139,1,5,NaN,NaN,1,NaN,4.607379e-01,NaN,1,1,1,1
52,140,1,33,NaN,NaN,1,NaN,4.999848e-01,NaN,0,0,1,1
52,141,1,31,NaN,NaN,1,NaN,4.088995e-01,NaN,2,0,1,1
52,142,1,78,NaN,NaN,2,NaN,1.010380e+00,NaN,1,0,2,1
52,143,1,21,NaN,NaN,1,NaN,5.402096e-01,NaN,0,0,1,1
52,144,1,123,NaN,NaN,1,NaN,4.639086e-01,NaN,1,0,3,1
52,145,1,136,NaN,NaN,1,NaN,6.866225e-01,NaN,0,0,3,1
52,146,1,50,NaN,NaN,1,NaN,3.409655e-01,NaN,1,0,2,1
52,147,1,22,NaN,NaN,2,NaN,7.529457e-01,NaN,0,1,1,1
52,148,1,100,NaN,NaN,2,NaN,5.482987e-01,NaN,0,0,3,1
52,149,1,111,NaN,NaN,1,NaN,6.874752e-01,NaN,1,0,3,1
52,150,1,121,NaN,NaN,1,NaN,5.414490e-01,NaN,2,1,3,1
52,151,1,63,NaN,NaN,1,NaN,3.532788e-01,NaN,1,0,2,1
52,152,1,90,NaN,NaN,1,NaN,4.927568e-01,NaN,2,0,2,1
52,153,1,25,NaN,NaN,1,NaN,4.108999e-01,NaN,0,0,1,1
52,154,1,77,NaN,NaN,1,NaN,4.361914e-01,NaN,0,1,2,1
52,155,1,112,NaN,NaN,1,NaN,4.525911e-01,NaN,2,1,3,1
52,156,1,96,NaN,NaN,1,NaN,4.118127e-01,NaN,1,0,2,1
52,157,1,28,NaN,NaN,1,NaN,5.484406e-01,NaN,1,0,1,1
52,158,1,133,NaN,NaN,2,NaN,6.160612e-01,NaN,0,0,3,1
52,159,1,132,NaN,NaN,1,NaN,5.527520e-01,NaN,2,0,3,1
52,160,1,53,NaN,NaN,1,NaN,5.159698e-01,NaN,1,1,2,1
52,161,1,124,NaN,NaN,1,NaN,5.367549e-01,NaN,2,0,3,1
52,162,1,85,NaN,NaN,1,NaN,6.206666e-01,NaN,0,0,2,1
52,163,1,47,NaN,NaN,1,NaN,4.772463e-01,NaN,2,1,1,1
52,164,1,1,NaN,NaN,1,NaN,5.639101e-01,NaN,0,0,1,1
52,165,1,63,NaN,NaN,1,NaN,4.868514e-01,NaN,0,0,2,1
52,166,1,23,NaN,NaN,1,NaN,4.770103e-01,NaN,1,0,1,1
52,167,1,36,NaN,NaN,1,NaN,3.873353e-01,NaN,1,0,1,1
52,168,1,86,NaN,NaN,1,NaN,4.938333e-01,NaN,0,0,2,1
52,169,1,59,NaN,NaN,1,NaN,3.477702e-01,NaN,1,1,2,1
52,170,1,70,NaN,NaN,1,NaN,4.392751e-01,NaN,1,0,2,1
52,171,1,40,NaN,NaN,1,NaN,3.991671e-01,NaN,0,0,1,1
52,172,1,92,NaN,NaN,1,NaN,4.083718e-01,NaN,2,0,2,1
52,173,1,73,NaN,NaN,1,NaN,3.216015e-01,NaN,1,1,2,1
52,174,1,102,NaN,NaN,2,NaN,4.306985e-01,NaN,1,1,3,1
52,175,1,137,NaN,NaN,1,NaN,2.862643e-01,NaN,0,0,3,1
52,176,1,48,NaN,NaN,1,NaN,2.845984e-01,NaN,0,0,1,1
52,177,1,83,NaN,NaN,1,NaN,2.346079e-01,NaN,0,0,2,1
52,178,1,91,NaN,NaN,1,NaN,4.102705e-01,NaN,2,1,2,1
52,179,1,134,NaN,NaN,2,NaN,3.162044e-01,NaN,1,0,3,1
52,180,1,6,NaN,NaN,1,NaN,3.365108e-01,NaN,0,0,1,1
52,181,1,49,NaN,NaN,1,NaN,5.087458e-01,NaN,0,0,2,1
52,182,1,112,NaN,NaN,1,NaN,5.858733e-01,NaN,0,1,3,1
52,183,1,141,NaN,NaN,1,NaN,5.163658e-01,NaN,1,0,3,1
52,184,1,72,NaN,NaN,1,NaN,4.169345e-01,NaN,0,0,2,1
52,185,1,88,NaN,NaN,1,NaN,3.855492e-01,NaN,0,0,2,1
52,186,1,38,NaN,NaN,1,NaN,6.036933e-01,NaN,2,0,1,1
52,187,1,104,NaN,NaN,1,NaN,5.171304e-01,NaN,0,0,3,1
52,188,1,134,NaN,NaN,2,NaN,5.538384e-01,NaN,0,0,3,1
52,189,1,19,NaN,NaN,2,NaN,4.614811e-01,NaN,1,0,1,1
52,190,1,20,NaN,NaN,1,NaN,3.238274e-01,NaN,2,1,1,1
52,191,1,15,NaN,NaN,1,NaN,4.245377e-01,NaN,1,0,1,1
52,192,1,58,NaN,NaN,1,NaN,3.369032e-01,NaN,2,0,2,1
52,193,1,136,NaN,NaN,1,NaN,3.731436e-01,NaN,2,0,3,1
52,194,1,58,NaN,NaN,1,NaN,3.437574e-01,NaN,0,0,2,1
52,195,1,100,NaN,NaN,2,NaN,4.920810e-01,NaN,1,0,3,1
52,196,1,98,NaN,NaN,1,NaN,1.729879e+00,NaN,2,1,3,1
52,197,1,16,NaN,NaN,1,NaN,4.217953e-01,NaN,0,0,1,1
52,198,1,66,NaN,NaN,1,NaN,4.625865e-01,NaN,0,0,2,1
52,199,1,129,NaN,NaN,2,NaN,1.012898e-01,NaN,1,0,3,1
52,200,1,26,NaN,NaN,1,NaN,2.826288e-01,NaN,0,0,1,1
52,201,1,33,NaN,NaN,1,NaN,4.891690e-01,NaN,2,0,1,1
52,202,1,39,NaN,NaN,2,NaN,1.207419e-04,NaN,0,0,1,1
52,203,1,46,NaN,NaN,1,NaN,1.522387e-01,NaN,0,0,1,1
52,204,1,119,NaN,NaN,1,NaN,1.393890e-01,NaN,2,0,3,1
52,205,1,4,NaN,NaN,1,NaN,1.855253e+00,NaN,0,0,1,1
52,206,1,3,NaN,NaN,1,NaN,5.268818e-01,NaN,2,0,1,1
52,207,1,32,NaN,NaN,1,NaN,3.474587e-01,NaN,0,0,1,1
52,208,1,25,NaN,NaN,1,NaN,4.068804e-01,NaN,2,0,1,1
52,209,1,127,NaN,NaN,1,NaN,2.416279e+00,NaN,1,0,3,1
52,210,1,114,NaN,NaN,1,NaN,3.929498e-01,NaN,2,0,3,1
52,211,1,51,NaN,NaN,1,NaN,4.594517e-01,NaN,0,0,2,1
52,212,1,7,NaN,NaN,1,NaN,4.507984e-01,NaN,2,1,1,1
52,213,1,76,NaN,NaN,1,NaN,3.858079e-01,NaN,0,1,2,1
52,214,1,102,NaN,NaN,1,NaN,5.561464e-01,NaN,0,1,3,1
52,215,1,54,NaN,NaN,1,NaN,8.315828e-01,NaN,2,0,2,1
52,216,1,133,NaN,NaN,1,NaN,1.239204e+00,NaN,1,0,3,1
52,217,1,113,NaN,NaN,1,NaN,6.313991e-01,NaN,0,0,3,1
52,218,1,123,NaN,NaN,1,NaN,6.717353e-01,NaN,0,0,3,1
52,219,1,66,NaN,NaN,1,NaN,6.463336e-01,NaN,2,0,2,1
52,220,1,75,NaN,NaN,1,NaN,5.735211e-01,NaN,2,0,2,1
52,221,1,17,NaN,NaN,1,NaN,7.765849e-01,NaN,0,0,1,1
52,222,1,45,NaN,NaN,1,NaN,1.002797e+00,NaN,0,0,1,1
52,223,1,57,NaN,NaN,1,NaN,5.884107e-01,NaN,1,1,2,1
52,224,1,27,NaN,NaN,1,NaN,6.304120e-01,NaN,1,1,1,1
52,225,1,116,NaN,NaN,1,NaN,5.342356e-01,NaN,1,0,3,1
52,226,1,140,NaN,NaN,1,NaN,6.344270e-01,NaN,0,0,3,1
52,227,1,14,NaN,NaN,1,NaN,4.909086e-01,NaN,0,1,1,1
52,228,1,90,NaN,NaN,1,NaN,4.407793e-01,NaN,0,0,2,1
52,229,1,83,NaN,NaN,1,NaN,4.483797e-01,NaN,2,0,2,1
52,230,1,79,NaN,NaN,1,NaN,3.599754e-01,NaN,1,0,2,1
52,231,1,126,NaN,NaN,2,NaN,3.950872e-01,NaN,0,0,3,1
52,232,1,22,NaN,NaN,2,NaN,3.885677e-01,NaN,1,1,1,1
52,233,1,73,NaN,NaN,1,NaN,3.426680e-01,NaN,0,1,2,1
52,234,1,13,NaN,NaN,1,NaN,5.387746e-01,NaN,1,1,1,1
52,235,1,105,NaN,NaN,2,NaN,5.106819e-01,NaN,0,1,3,1
52,236,1,141,NaN,NaN,1,NaN,3.004270e-01,NaN,0,0,3,1
52,237,1,12,NaN,NaN,1,NaN,2.736353e-01,NaN,0,0,1,1
52,238,1,42,NaN,NaN,1,NaN,6.241968e-01,NaN,0,0,1,1
52,239,1,60,NaN,NaN,1,NaN,3.528957e-01,NaN,0,0,2,1
52,240,1,48,NaN,NaN,1,NaN,4.121649e-01,NaN,1,0,1,1
52,241,1,18,NaN,NaN,1,NaN,2.850297e-01,NaN,1,0,1,1
52,242,1,115,NaN,NaN,2,NaN,4.431763e-01,NaN,0,1,3,1
52,243,1,45,NaN,NaN,1,NaN,3.072052e-01,NaN,2,0,1,1
52,244,1,11,NaN,NaN,1,NaN,3.203664e-01,NaN,1,1,1,1
52,245,1,78,NaN,NaN,1,NaN,2.695745e-01,NaN,0,0,2,1
52,246,1,3,NaN,NaN,1,NaN,2.917445e-01,NaN,0,0,1,1
52,247,1,117,NaN,NaN,1,NaN,4.261496e-01,NaN,1,0,3,1
52,248,1,14,NaN,NaN,1,NaN,5.306466e-01,NaN,1,1,1,1
52,249,1,56,NaN,NaN,1,NaN,8.225154e-01,NaN,2,0,2,1
52,250,1,57,NaN,NaN,1,NaN,3.832744e-01,NaN,0,1,2,1
52,251,1,20,NaN,NaN,1,NaN,4.333633e-01,NaN,0,1,1,1
52,252,1,128,NaN,NaN,1,NaN,4.253681e-01,NaN,1,0,3,1
52,253,1,119,NaN,NaN,1,NaN,5.458456e-01,NaN,0,0,3,1
52,254,1,113,NaN,NaN,1,NaN,4.293725e-01,NaN,1,0,3,1
52,255,1,61,NaN,NaN,1,NaN,3.736458e-01,NaN,0,0,2,1
52,256,1,60,NaN,NaN,1,NaN,2.882674e-01,NaN,1,0,2,1
52,257,1,85,NaN,NaN,1,NaN,8.302175e-01,NaN,2,0,2,1
52,258,1,44,NaN,NaN,1,NaN,6.222990e-01,NaN,1,1,1,1
52,259,1,107,NaN,NaN,1,NaN,1.989419e-01,NaN,1,0,3,1
52,260,1,67,NaN,NaN,1,NaN,1.243642e-04,NaN,0,0,2,1
52,261,1,114,NaN,NaN,1,NaN,9.546460e-03,NaN,0,0,3,1
52,262,1,116,NaN,NaN,1,NaN,1.152738e-01,NaN,0,0,3,1
52,263,1,51,NaN,NaN,1,NaN,3.518625e-01,NaN,2,0,2,1
52,264,1,74,NaN,NaN,1,NaN,1.793781e-01,NaN,1,0,2,1
52,265,1,1,NaN,NaN,1,NaN,1.269127e+00,NaN,2,0,1,1
52,266,1,9,NaN,NaN,1,NaN,5.000901e-01,NaN,0,1,1,1
52,267,1,34,NaN,NaN,1,NaN,4.813504e-01,NaN,1,1,1,1
52,268,1,111,NaN,NaN,1,NaN,3.113044e-01,NaN,0,0,3,1
52,269,1,107,NaN,NaN,1,NaN,3.886978e-01,NaN,0,0,3,1
52,270,1,84,NaN,NaN,1,NaN,3.106044e-01,NaN,0,0,2,1
52,271,1,82,NaN,NaN,1,NaN,3.081274e-01,NaN,1,0,2,1
52,272,1,56,NaN,NaN,1,NaN,3.933905e-01,NaN,0,0,2,1
52,273,1,79,NaN,NaN,1,NaN,3.554570e-01,NaN,0,0,2,1
52,274,1,27,NaN,NaN,1,NaN,3.672411e-01,NaN,0,1,1,1
52,275,1,87,NaN,NaN,1,NaN,6.654290e-01,NaN,1,1,2,1
52,276,1,108,NaN,NaN,2,NaN,3.444876e-01,NaN,1,0,3,1
52,277,1,52,NaN,NaN,1,NaN,2.917291e-01,NaN,0,0,2,1
52,278,1,144,NaN,NaN,1,NaN,1.620142e-01,NaN,0,0,3,1
52,279,1,59,NaN,NaN,1,NaN,2.043427e-01,NaN,0,1,2,1
52,280,1,87,NaN,NaN,1,NaN,1.336290e-01,NaN,0,1,2,1
52,281,1,35,NaN,NaN,1,NaN,9.301375e-01,NaN,2,0,1,1
52,282,1,101,NaN,NaN,1,NaN,2.861001e-01,NaN,0,0,3,1
52,283,1,135,NaN,NaN,1,NaN,3.641057e-01,NaN,0,0,3,1
52,284,1,47,NaN,NaN,1,NaN,5.985832e-01,NaN,0,1,1,1
52,285,1,84,NaN,NaN,1,NaN,6.399111e-01,NaN,2,0,2,1
52,286,1,103,NaN,NaN,1,NaN,8.828227e-02,NaN,0,1,3,1
52,287,1,21,NaN,NaN,1,NaN,1.192326e-04,NaN,2,0,1,1
52,288,1,11,NaN,NaN,1,NaN,1.407391e+00,NaN,0,1,1,1
52,355,2,82,15,2,2,1,1.646168e+00,NaN,1,0,2,1
52,356,2,18,28,1,1,1,2.178379e+00,NaN,1,0,1,1
52,357,2,63,60,2,2,1,2.177073e+00,NaN,1,0,2,1
52,358,2,127,13,2,2,1,1.559309e+00,NaN,1,0,3,1
52,359,2,110,11,1,1,1,1.575016e+00,NaN,1,0,3,1
52,360,2,41,65,1,1,1,2.421689e+00,NaN,1,0,1,1
52,361,2,59,4,2,2,1,1.122570e+00,NaN,1,1,2,1
52,362,2,13,26,2,2,1,1.258883e+00,NaN,1,1,1,1
52,363,2,86,34,2,2,1,1.126671e+00,NaN,1,0,2,1
52,364,2,144,18,1,1,1,1.423211e+00,NaN,1,0,3,1
52,365,2,27,8,2,0,0,3.499945e+00,NaN,1,1,1,1
52,366,2,143,69,1,1,1,2.997529e+00,NaN,1,0,3,1
52,367,2,12,40,1,1,1,1.250927e+00,NaN,1,0,1,1
52,368,2,11,51,1,1,1,1.590625e+00,NaN,1,1,1,1
52,369,2,78,25,1,1,1,1.172770e+00,NaN,1,0,2,1
52,370,2,48,22,1,1,1,8.430702e-01,NaN,1,0,1,1
52,371,2,52,2,2,2,1,5.193116e-01,NaN,1,0,2,1
52,372,2,73,29,1,2,0,6.560002e-01,NaN,1,1,2,1
52,373,2,102,56,2,2,1,1.243411e+00,NaN,1,1,3,1
52,374,2,130,30,1,1,1,1.327744e+00,NaN,1,0,3,1
52,375,2,106,54,2,2,1,2.832119e+00,NaN,1,0,3,1
52,376,2,117,50,2,2,1,1.388467e+00,NaN,1,0,3,1
52,377,2,5,16,2,2,1,8.264256e-01,NaN,1,1,1,1
52,378,2,96,21,2,2,1,6.556117e-01,NaN,1,0,2,1
52,379,3,59,4,1,1,1,8.281821e-01,NaN,1,1,2,1
52,380,3,127,13,1,1,1,1.024715e+00,NaN,1,0,3,1
52,381,3,144,18,2,2,1,9.653724e-01,NaN,1,0,3,1
52,382,3,11,51,1,1,1,1.091680e+00,NaN,1,1,1,1
52,383,3,41,65,2,2,1,8.699537e-01,NaN,1,0,1,1
52,384,3,12,40,2,2,1,1.720832e+00,NaN,1,0,1,1
52,385,3,73,29,2,1,0,8.336436e-01,NaN,1,1,2,1
52,386,3,78,25,1,1,1,1.093540e+00,NaN,1,0,2,1
52,387,3,106,54,1,1,1,1.127407e+00,NaN,1,0,3,1
52,388,3,13,26,1,1,1,9.197582e-01,NaN,1,1,1,1
52,389,3,86,34,1,1,1,6.887195e-01,NaN,1,0,2,1
52,390,3,48,22,1,1,1,9.625178e-01,NaN,1,0,1,1
52,391,3,143,69,1,1,1,6.974588e-01,NaN,1,0,3,1
52,392,3,130,30,1,1,1,1.810717e+00,NaN,1,0,3,1
52,393,3,117,50,2,2,1,1.096439e+00,NaN,1,0,3,1
52,394,3,82,15,1,1,1,7.618293e-01,NaN,1,0,2,1
52,395,3,18,28,2,2,1,7.283467e-01,NaN,1,0,1,1
52,396,3,52,2,2,2,1,6.410811e-01,NaN,1,0,2,1
52,397,3,5,16,2,2,1,6.772686e-01,NaN,1,1,1,1
52,398,3,110,11,1,1,1,7.838484e-01,NaN,1,0,3,1
52,399,3,27,8,2,2,1,1.941861e+00,NaN,1,1,1,1
52,400,3,96,21,2,2,1,1.118270e+00,NaN,1,0,2,1
52,401,3,102,56,2,2,1,9.108955e-01,NaN,1,1,3,1
52,402,3,63,60,1,1,1,1.112415e+00,NaN,1,0,2,1
52,427,2,69,57,2,2,1,1.301063e+00,NaN,1,0,2,2
52,428,2,19,14,2,2,1,1.566559e+00,NaN,1,0,1,2
52,429,2,72,24,1,1,1,7.015383e-01,NaN,1,0,2,2
52,430,2,118,43,1,1,1,1.758756e+00,NaN,1,0,3,2
52,431,2,116,7,2,2,1,1.230187e+00,NaN,1,0,3,2
52,432,2,17,1,1,1,1,9.862774e-01,NaN,1,0,1,2
52,433,2,139,33,2,2,1,7.604040e-01,NaN,1,0,3,2
52,434,2,108,64,1,1,1,1.183811e+00,NaN,1,0,3,2
52,435,2,129,59,1,1,1,1.117996e+00,NaN,1,0,3,2
52,436,2,122,61,2,2,1,1.631089e+00,NaN,1,0,3,2
52,437,2,61,47,1,1,1,7.629730e-01,NaN,1,0,2,2
52,438,2,79,17,2,2,1,5.374588e-01,NaN,1,0,2,2
52,439,2,100,27,2,1,0,1.954024e+00,NaN,1,0,3,2
52,440,2,62,63,2,2,1,5.208912e-01,NaN,1,1,2,2
52,441,2,133,5,1,1,1,2.306141e+00,NaN,1,0,3,2
52,442,2,34,67,2,2,1,8.033763e-01,NaN,1,1,1,2
52,443,2,128,31,2,2,1,1.744869e+00,NaN,1,0,3,2
52,444,2,15,35,2,2,1,1.784245e+00,NaN,1,0,1,2
52,445,2,9,72,2,2,1,6.061444e-01,NaN,1,1,1,2
52,446,2,107,39,1,1,1,1.451687e+00,NaN,1,0,3,2
52,447,2,140,58,1,1,1,1.263244e+00,NaN,1,0,3,2
52,448,2,44,3,2,1,0,1.897727e+00,NaN,1,1,1,2
52,449,2,28,45,2,2,1,8.432785e-01,NaN,1,0,1,2
52,450,2,70,55,2,2,1,5.832285e-01,NaN,1,0,2,2
52,451,3,19,14,1,1,1,1.207167e+00,NaN,1,0,1,2
52,452,3,69,57,2,2,1,5.082477e-01,NaN,1,0,2,2
52,453,3,122,61,1,1,1,1.141547e+00,NaN,1,0,3,2
52,454,3,129,59,1,1,1,7.336023e-01,NaN,1,0,3,2
52,455,3,9,72,2,2,1,6.460795e-01,NaN,1,1,1,2
52,456,3,139,33,2,2,1,5.610974e-01,NaN,1,0,3,2
52,457,3,15,35,2,2,1,7.448747e-01,NaN,1,0,1,2
52,458,3,79,17,1,1,1,5.039538e-01,NaN,1,0,2,2
52,459,3,128,31,2,2,1,1.001443e+00,NaN,1,0,3,2
52,460,3,72,24,1,1,1,7.828016e-01,NaN,1,0,2,2
52,461,3,118,43,2,2,1,8.057178e-01,NaN,1,0,3,2
52,462,3,34,67,1,1,1,9.387817e-01,NaN,1,1,1,2
52,463,3,62,63,2,2,1,6.029737e-01,NaN,1,1,2,2
52,464,3,17,1,1,1,1,7.918316e-01,NaN,1,0,1,2
52,465,3,116,7,1,1,1,1.150131e+00,NaN,1,0,3,2
52,466,3,100,27,1,2,0,7.578146e-01,NaN,1,0,3,2
52,467,3,107,39,2,2,1,9.489379e-01,NaN,1,0,3,2
52,468,3,70,55,1,2,0,8.444497e-01,NaN,1,0,2,2
52,469,3,28,45,2,2,1,5.846846e-01,NaN,1,0,1,2
52,470,3,61,47,1,1,1,5.345975e-01,NaN,1,0,2,2
52,471,3,140,58,2,2,1,8.545977e-01,NaN,1,0,3,2
52,472,3,44,3,2,1,0,8.336810e-01,NaN,1,1,1,2
52,473,3,108,64,2,1,0,7.662787e-01,NaN,1,0,3,2
52,474,3,133,5,1,2,0,8.287143e-01,NaN,1,0,3,2
52,499,2,22,9,2,2,1,1.362470e+00,NaN,1,1,1,3
52,500,2,23,62,2,2,1,8.890699e-01,NaN,1,0,1,3
52,501,2,94,53,2,1,0,4.991378e-01,NaN,1,0,2,3
52,502,2,87,12,2,2,1,6.289395e-01,NaN,1,1,2,3
52,503,2,53,36,2,2,1,5.370088e-01,NaN,1,1,2,3
52,504,2,36,6,1,2,0,6.809274e-01,NaN,1,0,1,3
52,505,2,50,42,1,1,1,1.034986e+00,NaN,1,0,2,3
52,506,2,60,71,1,1,1,8.629437e-01,NaN,1,0,2,3
52,507,2,65,20,1,1,1,8.976507e-01,NaN,1,0,2,3
52,508,2,26,10,2,2,1,8.832504e-01,NaN,1,0,1,3
52,509,2,123,19,1,1,1,8.612530e-01,NaN,1,0,3,3
52,510,2,141,70,2,2,1,1.168550e+00,NaN,1,0,3,3
52,511,2,37,46,1,1,1,1.199096e+00,NaN,1,1,1,3
52,512,2,10,38,1,2,0,5.969659e-01,NaN,1,0,1,3
52,513,2,30,32,2,1,0,2.349055e-01,NaN,1,0,1,3
52,514,2,111,37,1,1,1,7.423947e-01,NaN,1,0,3,3
52,515,2,113,48,2,1,0,9.507026e-01,NaN,1,0,3,3
52,516,2,14,49,1,1,1,8.300168e-01,NaN,1,1,1,3
52,517,2,6,44,2,2,1,6.661896e-01,NaN,1,0,1,3
52,518,2,95,68,2,1,0,5.328909e-01,NaN,1,0,2,3
52,519,2,57,66,2,2,1,7.087361e-01,NaN,1,1,2,3
52,520,2,134,52,1,1,1,8.382912e-01,NaN,1,0,3,3
52,521,2,74,23,2,2,1,7.941607e-01,NaN,1,0,2,3
52,522,2,80,41,2,2,1,5.925757e-01,NaN,1,1,2,3
52,523,3,6,44,1,1,1,7.218296e-01,NaN,1,0,1,3
52,524,3,50,42,2,2,1,9.390060e-01,NaN,1,0,2,3
52,525,3,134,52,1,1,1,8.667869e-01,NaN,1,0,3,3
52,526,3,141,70,1,1,1,1.021568e+00,NaN,1,0,3,3
52,527,3,10,38,2,2,1,8.586139e-01,NaN,1,0,1,3
52,528,3,22,9,2,2,1,7.576695e-01,NaN,1,1,1,3
52,529,3,23,62,2,2,1,6.852980e-01,NaN,1,0,1,3
52,530,3,80,41,1,1,1,6.872863e-01,NaN,1,1,2,3
52,531,3,95,68,2,2,1,9.452360e-01,NaN,1,0,2,3
52,532,3,65,20,1,1,1,7.129430e-01,NaN,1,0,2,3
52,533,3,94,53,2,1,0,6.173483e-01,NaN,1,0,2,3
52,534,3,53,36,1,1,1,5.664266e-01,NaN,1,1,2,3
52,535,3,57,66,2,2,1,6.049276e-01,NaN,1,1,2,3
52,536,3,87,12,2,2,1,4.663690e-01,NaN,1,1,2,3
52,537,3,30,32,2,2,1,6.131770e-01,NaN,1,0,1,3
52,538,3,123,19,2,1,0,7.377175e-01,NaN,1,0,3,3
52,539,3,36,6,2,2,1,7.460607e-01,NaN,1,0,1,3
52,540,3,111,37,2,1,0,6.413259e-01,NaN,1,0,3,3
52,541,3,74,23,1,2,0,5.252965e-01,NaN,1,0,2,3
52,542,3,37,46,1,1,1,9.744015e-01,NaN,1,1,1,3
52,543,3,113,48,1,2,0,7.407070e-01,NaN,1,0,3,3
52,544,3,26,10,2,2,1,6.049182e-01,NaN,1,0,1,3
52,545,3,14,49,2,2,1,1.074330e+00,NaN,1,1,1,3
52,546,3,60,71,2,2,1,6.691569e-01,NaN,1,0,2,3
52,571,4,51,11,1,1,1,1.485203e+00,NaN,2,0,2,1
52,572,4,67,5,2,2,1,8.066641e-01,NaN,2,0,2,1
52,573,4,75,58,2,2,1,7.642644e-01,NaN,2,0,2,1
52,574,4,33,48,1,1,1,1.458726e+00,NaN,2,0,1,1
52,575,4,92,22,2,2,1,6.382294e-01,NaN,2,0,2,1
52,576,4,121,66,1,1,1,6.904195e-01,NaN,2,1,3,1
52,577,4,126,20,2,2,1,1.116364e+00,NaN,2,0,3,1
52,578,4,93,8,2,2,1,5.890841e-01,NaN,2,1,2,1
52,579,4,109,32,2,2,1,5.954690e-01,NaN,2,0,3,1
52,580,4,1,24,1,1,1,1.040968e+00,NaN,2,0,1,1
52,581,4,91,9,2,1,0,6.365496e-01,NaN,2,1,2,1
52,582,4,21,57,1,1,1,9.525904e-01,NaN,2,0,1,1
52,583,4,20,29,2,2,1,9.441300e-01,NaN,2,1,1,1
52,584,4,68,27,1,1,1,5.446415e-01,NaN,2,0,2,1
52,585,4,55,18,1,1,1,6.246900e-01,NaN,2,0,2,1
52,586,4,39,19,2,2,1,8.772000e-01,NaN,2,0,1,1
52,587,4,115,51,1,1,1,9.358806e-01,NaN,2,1,3,1
52,588,4,42,52,2,2,1,8.483155e-01,NaN,2,0,1,1
52,589,4,124,25,2,2,1,6.352462e-01,NaN,2,0,3,1
52,590,4,38,30,1,1,1,8.557919e-01,NaN,2,0,1,1
52,591,4,120,17,1,1,1,1.083092e+00,NaN,2,0,3,1
52,592,4,35,69,2,1,0,7.493787e-01,NaN,2,0,1,1
52,593,4,64,59,2,2,1,6.444676e-01,NaN,2,0,2,1
52,594,4,32,61,2,2,1,1.200374e+00,NaN,2,0,1,1
52,619,4,105,16,1,1,1,6.698837e-01,NaN,2,1,3,2
52,620,4,142,4,1,1,1,1.040765e+00,NaN,2,1,3,2
52,621,4,138,41,2,2,1,9.010109e-01,NaN,2,1,3,2
52,622,4,99,26,1,1,1,8.702163e-01,NaN,2,1,3,2
52,623,4,119,45,2,2,1,7.293908e-01,NaN,2,0,3,2
52,624,4,16,23,1,2,0,5.777084e-01,NaN,2,0,1,2
52,625,4,24,12,1,2,0,9.442903e-01,NaN,2,1,1,2
52,626,4,90,38,2,2,1,5.519545e-01,NaN,2,0,2,2
52,627,4,46,54,2,2,1,5.194870e-01,NaN,2,0,1,2
52,628,4,103,3,2,1,0,5.761599e-01,NaN,2,1,3,2
52,629,4,136,53,2,1,0,6.950853e-01,NaN,2,0,3,2
52,630,4,4,47,1,1,1,8.403022e-01,NaN,2,0,1,2
52,631,4,7,36,1,2,0,6.684478e-01,NaN,2,1,1,2
52,632,4,8,63,1,2,0,6.071704e-01,NaN,2,1,1,2
52,633,4,112,67,2,2,1,1.012640e+00,NaN,2,1,3,2
52,634,4,88,62,1,1,1,6.014472e-01,NaN,2,0,2,2
52,635,4,77,49,1,1,1,6.232852e-01,NaN,2,1,2,2
52,636,4,131,71,2,1,0,1.059477e+00,NaN,2,0,3,2
52,637,4,89,6,1,1,1,6.073452e-01,NaN,2,0,2,2
52,638,4,31,64,1,1,1,8.925285e-01,NaN,2,0,1,2
52,639,4,81,10,1,1,1,6.225683e-01,NaN,2,0,2,2
52,640,4,49,50,1,1,1,4.915684e-01,NaN,2,0,2,2
52,641,4,97,1,2,2,1,8.854026e-01,NaN,2,0,3,2
52,642,4,71,37,1,1,1,5.433456e-01,NaN,2,0,2,2
52,667,4,29,21,1,1,1,7.351417e-01,NaN,2,0,1,3
52,668,4,104,40,2,2,1,9.111904e-01,NaN,2,0,3,3
52,669,4,76,72,2,2,1,6.803783e-01,NaN,2,1,2,3
52,670,4,45,70,2,2,1,1.106354e+00,NaN,2,0,1,3
52,671,4,25,68,1,1,1,9.082313e-01,NaN,2,0,1,3
52,672,4,125,42,1,1,1,7.251772e-01,NaN,2,0,3,3
52,673,4,114,65,1,1,1,6.782581e-01,NaN,2,0,3,3
52,674,4,132,60,2,1,0,7.524887e-01,NaN,2,0,3,3
52,675,4,43,7,2,2,1,4.236236e-01,NaN,2,0,1,3
52,676,4,85,35,2,2,1,6.123200e-01,NaN,2,0,2,3
52,677,4,84,28,2,2,1,3.688657e-01,NaN,2,0,2,3
52,678,4,47,56,2,2,1,6.960461e-01,NaN,2,1,1,3
52,679,4,101,14,2,2,1,7.771961e-01,NaN,2,0,3,3
52,680,4,58,13,1,1,1,6.080198e-01,NaN,2,0,2,3
52,681,4,56,39,1,2,0,7.493159e-01,NaN,2,0,2,3
52,682,4,54,33,1,1,1,5.327481e-01,NaN,2,0,2,3
52,683,4,2,55,2,2,1,6.931423e-01,NaN,2,0,1,3
52,684,4,40,43,1,1,1,1.126828e+00,NaN,2,0,1,3
52,685,4,135,15,2,2,1,5.918494e-01,NaN,2,0,3,3
52,686,4,66,31,2,2,1,5.337125e-01,NaN,2,0,2,3
52,687,4,3,2,1,2,0,8.059870e-01,NaN,2,0,1,3
52,688,4,98,46,1,1,1,8.512245e-01,NaN,2,1,3,3
52,689,4,83,44,2,2,1,7.027225e-01,NaN,2,0,2,3
52,690,4,137,34,1,2,0,6.803044e-01,NaN,2,0,3,3
52,691,5,6.830000e+00,44,1,1,1,1.711863e+00,1,1,0,1.200000e+00,1
52,692,5,6.626000e+01,20,2,2,1,1.266792e+00,1,1,0,2.300000e+00,1
52,693,5,1.407500e+02,58,3,3,1,8.439779e-01,1,1,0,3.200000e+00,1
52,694,5,1.090000e+01,38,1,1,1,5.344019e-01,1,1,0,1.200000e+00,1
52,695,5,7.924000e+01,25,2,3,0,2.633378e-01,1,1,0,2.300000e+00,1
52,696,5,1.275800e+02,13,3,3,1,8.329164e-01,1,1,0,3.200000e+00,1
52,697,5,1.164300e+02,7,3,3,1,6.901198e-01,1,1,0,3.100000e+00,1
52,698,5,7.002000e+01,55,2,3,0,2.675644e-01,1,1,0,2.100000e+00,1
52,699,5,1.075600e+02,39,3,1,0,4.288177e-01,1,1,0,3.200000e+00,1
52,700,5,1.884000e+01,28,1,1,1,4.145976e-01,1,1,0,1.200000e+00,1
52,701,5,6.921000e+01,57,2,2,1,3.757471e-01,1,1,0,2.100000e+00,1
52,702,5,1.233900e+02,19,3,1,0,4.179113e-01,1,1,0,3.100000e+00,1
52,703,5,1.164300e+02,7,3,3,1,3.155856e-01,2,1,0,3.100000e+00,1
52,704,5,7.416000e+01,23,2,3,0,5.091144e-01,1,1,0,2.100000e+00,1
52,705,5,9.536000e+01,53,2,2,1,1.460977e-04,1,1,0,2.300000e+00,1
52,706,5,6.921000e+01,57,2,2,1,4.565303e-01,2,1,0,2.100000e+00,1
52,707,5,1.286600e+02,31,3,1,0,2.820136e-01,1,1,0,3.200000e+00,1
52,708,5,3.109000e+01,32,1,1,1,2.990560e-01,1,1,0,1.300000e+00,1
52,709,5,1.395400e+02,33,3,3,1,1.403371e-01,1,1,0,3.200000e+00,1
52,710,5,3.689000e+01,6,1,1,1,1.819206e-01,1,1,0,1.200000e+00,1
52,711,5,6.626000e+01,20,2,3,0,2.315981e-01,2,1,0,2.300000e+00,1
52,712,5,1.006800e+02,27,3,2,0,3.046944e-01,1,1,0,3.200000e+00,1
52,713,5,7.416000e+01,23,2,2,1,3.063301e-01,2,1,0,2.100000e+00,1
52,714,5,6.830000e+00,44,1,1,1,3.718066e-01,2,1,0,1.200000e+00,1
52,715,5,9.525000e+01,68,2,2,1,5.089025e-01,1,1,0,2.100000e+00,1
52,716,5,1.064600e+02,54,3,2,0,3.515081e-01,1,1,0,3.100000e+00,1
52,717,5,1.064600e+02,54,3,3,1,1.572664e-04,2,1,0,3.100000e+00,1
52,718,5,5.203000e+01,2,2,2,1,6.180888e-01,1,1,0,2.100000e+00,1
52,719,5,1.303800e+02,30,3,2,0,3.555967e-01,1,1,0,3.100000e+00,1
52,720,5,1.407500e+02,58,3,3,1,3.730859e-01,2,1,0,3.200000e+00,1
52,721,5,1.414500e+02,70,3,2,0,3.743567e-01,1,1,0,3.100000e+00,1
52,722,5,6.104000e+01,47,2,2,1,1.433810e-04,1,1,0,2.100000e+00,1
52,723,5,4.214000e+01,65,1,1,1,3.689360e-01,1,1,0,1.300000e+00,1
52,724,5,1.797000e+01,1,1,1,1,2.666966e-01,1,1,0,1.300000e+00,1
52,725,5,1.336700e+02,5,3,1,0,9.226132e-02,1,1,0,3.200000e+00,1
52,726,5,1.174900e+02,50,3,1,0,3.018150e-01,1,1,0,3.200000e+00,1
52,727,5,6.921000e+01,57,2,2,1,3.277367e-01,3,1,0,2.100000e+00,1
52,728,5,9.629000e+01,21,2,2,1,2.816483e-01,1,1,0,2.100000e+00,1
52,729,5,6.432000e+01,60,2,2,1,2.989582e-01,1,1,0,2.300000e+00,1
52,730,5,1.336700e+02,5,3,3,1,2.827625e-02,2,1,0,3.200000e+00,1
52,731,5,5.203000e+01,2,2,2,1,3.737379e-01,2,1,0,2.100000e+00,1
52,732,5,1.304000e+01,40,1,1,1,3.031969e-01,1,1,0,1.300000e+00,1
52,733,5,1.303800e+02,30,3,1,0,1.454940e-04,2,1,0,3.100000e+00,1
52,734,5,6.432000e+01,60,2,1,0,2.340178e-01,2,1,0,2.300000e+00,1
52,735,5,1.233900e+02,19,3,3,1,3.714767e-01,2,1,0,3.100000e+00,1
52,736,5,6.104000e+01,47,2,2,1,1.439847e-04,2,1,0,2.100000e+00,1
52,737,5,1.445500e+02,18,3,3,1,1.433810e-04,1,1,0,3.200000e+00,1
52,738,5,7.201000e+01,24,2,1,0,6.397601e-02,1,1,0,2.100000e+00,1
52,739,5,1.006800e+02,27,3,2,0,6.520969e-02,2,1,0,3.200000e+00,1
52,740,5,6.626000e+01,20,2,3,0,1.623568e-01,3,1,0,2.300000e+00,1
52,741,5,1.233900e+02,19,3,3,1,1.439847e-04,3,1,0,3.100000e+00,1
52,742,5,5.125000e+01,42,2,1,0,1.467014e-04,1,1,0,2.300000e+00,1
52,743,5,1.105100e+02,11,3,3,1,1.823203e-04,1,1,0,3.200000e+00,1
52,744,5,9.629000e+01,21,2,2,1,1.470033e-04,2,1,0,2.100000e+00,1
52,745,5,1.286600e+02,31,3,3,1,3.055728e-01,2,1,0,3.200000e+00,1
52,746,5,6.921000e+01,57,2,2,1,1.467014e-04,4,1,0,2.100000e+00,1
52,747,5,3.689000e+01,6,1,1,1,3.484539e-01,2,1,0,1.200000e+00,1
52,748,5,1.414500e+02,70,3,2,0,3.779373e-02,2,1,0,3.100000e+00,1
52,749,5,1.184000e+02,43,3,3,1,3.512147e-01,1,1,0,3.100000e+00,1
52,750,5,1.797000e+01,1,1,1,1,2.969319e-01,2,1,0,1.300000e+00,1
52,751,5,2.001000e+01,14,1,2,0,2.820411e-01,1,1,0,1.300000e+00,1
52,752,5,6.131000e+01,71,2,1,0,1.421736e-04,1,1,0,2.300000e+00,1
52,753,5,7.002000e+01,55,2,3,0,1.421736e-04,2,1,0,2.100000e+00,1
52,754,5,2.919000e+01,45,1,1,1,1.454940e-04,1,1,0,1.300000e+00,1
52,755,5,2.388000e+01,62,1,1,1,1.397588e-04,1,1,0,1.200000e+00,1
52,756,5,9.629000e+01,21,2,2,1,1.692011e-01,3,1,0,2.100000e+00,1
52,757,5,1.296400e+02,59,3,3,1,1.626813e-01,1,1,0,3.200000e+00,1
52,758,5,1.286600e+02,31,3,3,1,1.527385e-04,3,1,0,3.200000e+00,1
52,759,5,9.629000e+01,21,2,2,1,3.016191e-01,4,1,0,2.100000e+00,1
52,760,5,9.525000e+01,68,2,2,1,4.071795e-01,2,1,0,2.100000e+00,1
52,761,5,4.892000e+01,22,1,1,1,1.686264e-01,1,1,0,1.200000e+00,1
52,762,5,1.164300e+02,7,3,3,1,1.138832e-01,3,1,0,3.100000e+00,1
52,763,5,9.525000e+01,68,2,2,1,1.709262e-01,3,1,0,2.100000e+00,1
52,764,5,1.075600e+02,39,3,2,0,7.564539e-01,2,1,0,3.200000e+00,1
52,765,5,1.395400e+02,33,3,3,1,4.218297e-01,2,1,0,3.200000e+00,1
52,766,5,1.164300e+02,7,3,3,1,7.946660e-02,4,1,0,3.100000e+00,1
52,767,5,3.109000e+01,32,1,3,0,5.660562e-02,2,1,0,1.300000e+00,1
52,768,5,1.585000e+01,35,1,1,1,1.864599e-01,1,1,0,1.200000e+00,1
52,769,5,1.585000e+01,35,1,3,0,2.771993e-02,2,1,0,1.200000e+00,1
52,770,5,1.414500e+02,70,3,1,0,2.140377e-01,3,1,0,3.100000e+00,1
52,771,5,1.223200e+02,61,3,3,1,2.915917e-04,1,1,0,3.100000e+00,1
52,772,5,2.001000e+01,14,1,1,1,1.603531e-01,2,1,0,1.300000e+00,1
52,773,5,1.344200e+02,52,3,3,1,1.448903e-04,1,1,0,3.100000e+00,1
52,774,5,6.432000e+01,60,2,1,0,1.530404e-04,3,1,0,2.300000e+00,1
52,775,5,1.407500e+02,58,3,3,1,2.535894e-01,3,1,0,3.200000e+00,1
52,776,5,1.083100e+02,64,3,1,0,1.418718e-04,1,1,0,3.100000e+00,1
52,777,5,8.020000e+01,17,2,2,1,1.542478e-04,1,1,0,2.300000e+00,1
52,778,5,8.020000e+01,17,2,0,0,2.500057e+00,2,1,0,2.300000e+00,1
52,779,5,1.296400e+02,59,3,2,0,1.435815e+00,2,1,0,3.200000e+00,1
52,780,5,1.083100e+02,64,3,3,1,2.451463e-01,2,1,0,3.100000e+00,1
52,781,5,1.884000e+01,28,1,1,1,8.069693e-01,2,1,0,1.200000e+00,1
52,782,5,2.919000e+01,45,1,1,1,1.040995e-01,2,1,0,1.300000e+00,1
52,783,5,1.184000e+02,43,3,3,1,2.345150e+00,2,1,0,3.100000e+00,1
52,784,5,8.737000e+01,34,2,2,1,4.276697e-01,1,1,0,2.300000e+00,1
52,785,5,6.432000e+01,60,2,3,0,1.495292e-01,4,1,0,2.300000e+00,1
52,786,5,1.133300e+02,48,3,3,1,3.890395e-02,1,1,0,3.100000e+00,1
52,787,5,1.275800e+02,13,3,0,0,2.500202e+00,2,1,0,3.200000e+00,1
52,788,5,1.585000e+01,35,1,1,1,1.066429e+00,3,1,0,1.200000e+00,1
52,789,5,8.737000e+01,34,2,1,0,2.260118e+00,2,1,0,2.300000e+00,1
52,790,5,1.117100e+02,37,3,3,1,5.903091e-01,1,1,0,3.200000e+00,1
52,791,5,4.214000e+01,65,1,1,1,1.702461e-04,2,1,0,1.300000e+00,1
52,792,5,9.536000e+01,53,2,2,1,1.482107e-04,2,1,0,2.300000e+00,1
52,793,5,6.626000e+01,20,2,3,0,1.488144e-04,4,1,0,2.300000e+00,1
52,794,5,1.304000e+01,40,1,1,1,8.515294e-01,2,1,0,1.300000e+00,1
52,795,5,1.105100e+02,11,3,3,1,1.433810e-04,2,1,0,3.200000e+00,1
52,796,5,8.737000e+01,34,2,0,0,2.500318e+00,3,1,0,2.300000e+00,1
52,797,5,1.117100e+02,37,3,3,1,5.526587e-01,2,1,0,3.200000e+00,1
52,798,5,3.689000e+01,6,1,1,1,2.899521e-01,3,1,0,1.200000e+00,1
52,799,5,2.919000e+01,45,1,1,1,6.676920e-01,3,1,0,1.300000e+00,1
52,800,5,1.344200e+02,52,3,1,0,3.887670e-01,2,1,0,3.100000e+00,1
52,801,5,1.303800e+02,30,3,3,1,2.944938e-01,3,1,0,3.100000e+00,1
52,802,5,1.174900e+02,50,3,3,1,1.630016e-04,2,1,0,3.200000e+00,1
52,803,5,1.286600e+02,31,3,3,1,8.902423e-02,4,1,0,3.200000e+00,1
52,804,5,1.445500e+02,18,3,3,1,1.412680e-04,2,1,0,3.200000e+00,1
52,805,5,7.002000e+01,55,2,2,1,1.473052e-04,3,1,0,2.100000e+00,1
52,806,5,1.090000e+01,38,1,1,1,1.173476e-01,2,1,0,1.200000e+00,1
52,807,5,2.681000e+01,10,1,1,1,1.521348e-04,1,1,0,1.200000e+00,1
52,808,5,1.585000e+01,35,1,1,1,1.467014e-04,4,1,0,1.200000e+00,1
52,809,5,1.336700e+02,5,3,3,1,2.738898e-01,3,1,0,3.200000e+00,1
52,810,5,6.131000e+01,71,2,1,0,4.331013e-02,2,1,0,2.300000e+00,1
52,811,5,1.445500e+02,18,3,3,1,1.091770e-01,3,1,0,3.200000e+00,1
52,812,5,8.335000e+01,15,2,2,1,2.157966e-01,1,1,0,2.300000e+00,1
52,813,5,1.117100e+02,37,3,3,1,2.888603e-01,3,1,0,3.200000e+00,1
52,814,5,1.117100e+02,37,3,3,1,5.139525e-01,4,1,0,3.200000e+00,1
52,815,5,1.407500e+02,58,3,3,1,3.557806e-01,4,1,0,3.200000e+00,1
52,816,5,1.223200e+02,61,3,3,1,4.128553e-01,2,1,0,3.100000e+00,1
52,817,5,1.064600e+02,54,3,3,1,4.386717e-01,3,1,0,3.100000e+00,1
52,818,5,6.104000e+01,47,2,2,1,8.476379e-01,3,1,0,2.100000e+00,1
52,819,5,1.395400e+02,33,3,3,1,1.436829e-04,3,1,0,3.200000e+00,1
52,820,5,1.075600e+02,39,3,1,0,2.905817e-01,3,1,0,3.200000e+00,1
52,821,5,7.924000e+01,25,2,3,0,1.433810e-04,2,1,0,2.300000e+00,1
52,822,5,5.125000e+01,42,2,2,1,2.145765e-02,2,1,0,2.300000e+00,1
52,823,5,1.174900e+02,50,3,3,1,2.629161e-01,3,1,0,3.200000e+00,1
52,824,5,3.689000e+01,6,1,1,1,4.030577e-02,4,1,0,1.200000e+00,1
52,825,5,1.133300e+02,48,3,3,1,4.339211e-01,2,1,0,3.100000e+00,1
52,826,5,1.304000e+01,40,1,1,1,1.460977e-04,3,1,0,1.300000e+00,1
52,827,5,6.830000e+00,44,1,1,1,1.533422e-04,3,1,0,1.200000e+00,1
52,828,5,1.884000e+01,28,1,1,1,6.698439e-01,3,1,0,1.200000e+00,1
52,829,5,1.133300e+02,48,3,3,1,1.454940e-04,3,1,0,3.100000e+00,1
52,830,5,1.433500e+02,69,3,1,0,4.647314e-01,1,1,0,3.100000e+00,1
52,831,5,7.416000e+01,23,2,2,1,3.301658e-01,3,1,0,2.100000e+00,1
52,832,5,1.105100e+02,11,3,3,1,3.315123e-01,3,1,0,3.200000e+00,1
52,833,5,1.433500e+02,69,3,3,1,3.710007e-02,2,1,0,3.100000e+00,1
52,834,5,9.536000e+01,53,2,2,1,1.436829e-04,3,1,0,2.300000e+00,1
52,835,5,1.223200e+02,61,3,3,1,7.751631e-03,3,1,0,3.100000e+00,1
52,836,5,6.830000e+00,44,1,3,0,4.890310e-01,4,1,0,1.200000e+00,1
52,837,5,7.002000e+01,55,2,0,0,2.500024e+00,4,1,0,2.100000e+00,1
52,838,5,1.275800e+02,13,3,3,1,9.170138e-01,3,1,0,3.200000e+00,1
52,839,5,1.075600e+02,39,3,3,1,1.110378e+00,4,1,0,3.200000e+00,1
52,840,5,1.296400e+02,59,3,3,1,7.232109e-02,3,1,0,3.200000e+00,1
52,841,5,2.388000e+01,62,1,3,0,1.418718e-04,2,1,0,1.200000e+00,1
52,842,5,2.681000e+01,10,1,1,1,8.751649e-01,2,1,0,1.200000e+00,1
52,843,5,1.433500e+02,69,3,3,1,5.805018e-01,3,1,0,3.100000e+00,1
52,844,5,1.414500e+02,70,3,1,0,3.902107e-01,4,1,0,3.100000e+00,1
52,845,5,1.445500e+02,18,3,3,1,1.524367e-04,4,1,0,3.200000e+00,1
52,846,5,2.001000e+01,14,1,1,1,1.536441e-04,3,1,0,1.300000e+00,1
52,847,5,8.020000e+01,17,2,2,1,3.060802e-01,3,1,0,2.300000e+00,1
52,848,5,1.303800e+02,30,3,1,0,1.473051e-04,4,1,0,3.100000e+00,1
52,849,5,4.892000e+01,22,1,1,1,4.048643e-01,2,1,0,1.200000e+00,1
52,850,5,7.416000e+01,23,2,2,1,9.439181e-02,4,1,0,2.100000e+00,1
52,851,5,1.296400e+02,59,3,3,1,1.403625e-04,4,1,0,3.200000e+00,1
52,852,5,4.214000e+01,65,1,1,1,1.415699e-04,3,1,0,1.300000e+00,1
52,853,5,2.681000e+01,10,1,1,1,6.993867e-01,3,1,0,1.200000e+00,1
52,854,5,1.797000e+01,1,1,1,1,1.445885e-04,3,1,0,1.300000e+00,1
52,855,5,7.924000e+01,25,2,3,0,3.179283e-01,3,1,0,2.300000e+00,1
52,856,5,1.133300e+02,48,3,3,1,2.238531e-01,4,1,0,3.100000e+00,1
52,857,5,7.924000e+01,25,2,3,0,8.732451e-01,4,1,0,2.300000e+00,1
52,858,5,4.892000e+01,22,1,2,0,5.863243e-01,3,1,0,1.200000e+00,1
52,859,5,1.105100e+02,11,3,2,0,6.037428e-01,4,1,0,3.200000e+00,1
52,860,5,5.125000e+01,42,2,1,0,3.330612e-01,3,1,0,2.300000e+00,1
52,861,5,2.919000e+01,45,1,1,1,7.857401e-02,4,1,0,1.300000e+00,1
52,862,5,1.395400e+02,33,3,3,1,1.467014e-04,4,1,0,3.200000e+00,1
52,863,5,8.335000e+01,15,2,2,1,4.016106e-01,2,1,0,2.300000e+00,1
52,864,5,7.201000e+01,24,2,3,0,2.749076e-01,2,1,0,2.100000e+00,1
52,865,5,1.884000e+01,28,1,1,1,2.045311e-01,4,1,0,1.200000e+00,1
52,866,5,3.109000e+01,32,1,1,1,9.576905e-01,3,1,0,1.300000e+00,1
52,867,5,1.083100e+02,64,3,3,1,1.527385e-04,3,1,0,3.100000e+00,1
52,868,5,5.203000e+01,2,2,2,1,2.567154e-01,3,1,0,2.100000e+00,1
52,869,5,8.737000e+01,34,2,2,1,1.778450e-01,4,1,0,2.300000e+00,1
52,870,5,1.090000e+01,38,1,1,1,1.823203e-04,3,1,0,1.200000e+00,1
52,871,5,1.064600e+02,54,3,3,1,3.973774e-01,4,1,0,3.100000e+00,1
52,872,5,2.001000e+01,14,1,1,1,3.752055e-01,4,1,0,1.300000e+00,1
52,873,5,1.336700e+02,5,3,3,1,1.454940e-04,4,1,0,3.200000e+00,1
52,874,5,2.681000e+01,10,1,1,1,1.669257e-04,4,1,0,1.200000e+00,1
52,875,5,1.184000e+02,43,3,3,1,1.161085e-01,3,1,0,3.100000e+00,1
52,876,5,5.125000e+01,42,2,2,1,3.176475e-01,4,1,0,2.300000e+00,1
52,877,5,1.006800e+02,27,3,2,0,1.926428e+00,3,1,0,3.200000e+00,1
52,878,5,1.174900e+02,50,3,3,1,1.201238e+00,4,1,0,3.200000e+00,1
52,879,5,1.083100e+02,64,3,3,1,6.648352e-02,4,1,0,3.100000e+00,1
52,880,5,2.388000e+01,62,1,1,1,1.445885e-04,3,1,0,1.200000e+00,1
52,881,5,1.184000e+02,43,3,3,1,1.445234e+00,4,1,0,3.100000e+00,1
52,882,5,1.344200e+02,52,3,3,1,8.383785e-01,3,1,0,3.100000e+00,1
52,883,5,2.388000e+01,62,1,3,0,1.611905e-04,4,1,0,1.200000e+00,1
52,884,5,1.797000e+01,1,1,1,1,5.772351e-01,4,1,0,1.300000e+00,1
52,885,5,6.104000e+01,47,2,2,1,4.915183e-01,4,1,0,2.100000e+00,1
52,886,5,7.201000e+01,24,2,3,0,2.887211e-02,3,1,0,2.100000e+00,1
52,887,5,6.131000e+01,71,2,2,1,9.444826e-02,3,1,0,2.300000e+00,1
52,888,5,1.275800e+02,13,3,2,0,1.357535e-01,4,1,0,3.200000e+00,1
52,889,5,7.201000e+01,24,2,3,0,1.711517e-04,4,1,0,2.100000e+00,1
52,890,5,6.131000e+01,71,2,3,0,3.788094e-01,4,1,0,2.300000e+00,1
52,891,5,1.433500e+02,69,3,2,0,5.165672e-02,4,1,0,3.100000e+00,1
52,892,5,4.214000e+01,65,1,1,1,1.470033e-04,4,1,0,1.300000e+00,1
52,893,5,8.335000e+01,15,2,2,1,7.826986e-01,3,1,0,2.300000e+00,1
52,894,5,1.006800e+02,27,3,2,0,5.201930e-01,4,1,0,3.200000e+00,1
52,895,5,1.090000e+01,38,1,1,1,3.694525e-01,4,1,0,1.200000e+00,1
52,896,5,1.344200e+02,52,3,3,1,2.592534e-01,4,1,0,3.100000e+00,1
52,897,5,9.536000e+01,53,2,2,1,6.102357e-02,4,1,0,2.300000e+00,1
52,898,5,5.203000e+01,2,2,2,1,3.188752e-01,4,1,0,2.100000e+00,1
52,899,5,1.233900e+02,19,3,3,1,3.197593e-01,4,1,0,3.100000e+00,1
52,900,5,8.020000e+01,17,2,2,1,2.412070e-01,4,1,0,2.300000e+00,1
52,901,5,9.525000e+01,68,2,2,1,1.864183e-01,4,1,0,2.100000e+00,1
52,902,5,8.335000e+01,15,2,2,1,1.081123e-01,4,1,0,2.300000e+00,1
52,903,5,1.304000e+01,40,1,1,1,1.979030e-01,4,1,0,1.300000e+00,1
52,904,5,1.223200e+02,61,3,3,1,1.451922e-04,4,1,0,3.100000e+00,1
52,905,5,3.109000e+01,32,1,1,1,3.283172e-01,4,1,0,1.300000e+00,1
52,906,5,4.892000e+01,22,1,1,1,1.479089e-04,4,1,0,1.200000e+00,1
52,907,6,119,45,1,1,1,3.405194e+00,NaN,2,0,3,1
52,908,6,54,33,1,1,1,1.028573e+00,NaN,2,0,2,1
52,909,6,75,58,1,1,1,1.049050e+00,NaN,2,0,2,1
52,910,6,68,27,1,1,1,1.349000e+00,NaN,2,0,2,1
52,911,6,32,61,1,1,1,1.085577e+00,NaN,2,0,1,1
52,912,6,67,5,1,1,1,9.996269e-01,NaN,2,0,2,1
52,913,6,99,26,2,2,1,1.357802e+00,NaN,2,1,3,1
52,914,6,83,44,2,2,1,6.620177e-01,NaN,2,0,2,1
52,915,6,39,19,2,2,1,1.105262e+00,NaN,2,0,1,1
52,916,6,76,72,1,1,1,6.592304e-01,NaN,2,1,2,1
52,917,6,2,55,2,2,1,8.395699e-01,NaN,2,0,1,1
52,918,6,31,64,2,2,1,8.761888e-01,NaN,2,0,1,1
52,919,6,38,30,2,1,0,1.079611e+00,NaN,2,0,1,1
52,920,6,126,20,2,1,0,1.162292e+00,NaN,2,0,3,1
52,921,6,81,10,1,1,1,6.975919e-01,NaN,2,0,2,1
52,922,6,77,49,1,1,1,6.277542e-01,NaN,2,1,2,1
52,923,6,45,70,2,2,1,7.776438e-01,NaN,2,0,1,1
52,924,6,142,4,1,1,1,7.919777e-01,NaN,2,1,3,1
52,925,6,3,2,2,2,1,1.023064e+00,NaN,2,0,1,1
52,926,6,55,18,2,2,1,7.964768e-01,NaN,2,0,2,1
52,927,6,35,69,1,2,0,7.382149e-01,NaN,2,0,1,1
52,928,6,136,53,1,1,1,8.438744e-01,NaN,2,0,3,1
52,929,6,4,47,2,2,1,7.923640e-01,NaN,2,0,1,1
52,930,6,98,46,1,1,1,9.182644e-01,NaN,2,1,3,1
52,931,6,51,11,2,2,1,9.039604e-01,NaN,2,0,2,1
52,932,6,104,40,1,1,1,8.817414e-01,NaN,2,0,3,1
52,933,6,120,17,1,1,1,8.286889e-01,NaN,2,0,3,1
52,934,6,71,37,2,2,1,8.647666e-01,NaN,2,0,2,1
52,935,6,115,51,1,1,1,1.124364e+00,NaN,2,1,3,1
52,936,6,1,24,2,2,1,9.899223e-01,NaN,2,0,1,1
52,937,6,124,25,2,2,1,8.684082e-01,NaN,2,0,3,1
52,938,6,114,65,1,1,1,8.159733e-01,NaN,2,0,3,1
52,939,6,125,42,1,1,1,8.211755e-01,NaN,2,0,3,1
52,940,6,58,13,1,1,1,7.386550e-01,NaN,2,0,2,1
52,941,6,20,29,2,2,1,7.471830e-01,NaN,2,1,1,1
52,942,6,138,41,2,2,1,9.313271e-01,NaN,2,1,3,1
52,943,6,29,21,2,2,1,7.558610e-01,NaN,2,0,1,1
52,944,6,84,28,2,2,1,8.038807e-01,NaN,2,0,2,1
52,945,6,121,66,1,1,1,6.819075e-01,NaN,2,1,3,1
52,946,6,24,12,2,2,1,5.809244e-01,NaN,2,1,1,1
52,947,6,90,38,2,2,1,5.636248e-01,NaN,2,0,2,1
52,948,6,43,7,2,2,1,8.350533e-01,NaN,2,0,1,1
52,949,6,109,32,1,1,1,6.557135e-01,NaN,2,0,3,1
52,950,6,25,68,2,1,0,1.163745e+00,NaN,2,0,1,1
52,951,6,8,63,2,2,1,9.307844e-01,NaN,2,1,1,1
52,952,6,101,14,1,1,1,1.355426e+00,NaN,2,0,3,1
52,953,6,66,31,2,2,1,7.715853e-01,NaN,2,0,2,1
52,954,6,40,43,2,2,1,8.589176e-01,NaN,2,0,1,1
52,955,6,85,35,1,1,1,6.949072e-01,NaN,2,0,2,1
52,956,6,105,16,2,1,0,9.058035e-01,NaN,2,1,3,1
52,957,6,103,3,2,2,1,1.131920e+00,NaN,2,1,3,1
52,958,6,56,39,1,1,1,9.561486e-01,NaN,2,0,2,1
52,959,6,97,1,2,2,1,1.148704e+00,NaN,2,0,3,1
52,960,6,47,56,2,2,1,9.323196e-01,NaN,2,1,1,1
52,961,6,131,71,2,1,0,8.214544e-01,NaN,2,0,3,1
52,962,6,16,23,2,2,1,8.505689e-01,NaN,2,0,1,1
52,963,6,49,50,1,1,1,7.267553e-01,NaN,2,0,2,1
52,964,6,89,6,1,1,1,8.870399e-01,NaN,2,0,2,1
52,965,6,92,22,1,1,1,7.061283e-01,NaN,2,0,2,1
52,966,6,64,59,1,1,1,6.768059e-01,NaN,2,0,2,1
52,967,6,46,54,2,1,0,1.175460e+00,NaN,2,0,1,1
52,968,6,42,52,1,2,0,1.134312e+00,NaN,2,0,1,1
52,969,6,132,60,2,2,1,1.375188e+00,NaN,2,0,3,1
52,970,6,93,8,2,2,1,7.507775e-01,NaN,2,1,2,1
52,971,6,137,34,2,2,1,1.078461e+00,NaN,2,0,3,1
52,972,6,91,9,1,2,0,6.660933e-01,NaN,2,1,2,1
52,973,6,33,48,2,1,0,1.021848e+00,NaN,2,0,1,1
52,974,6,88,62,2,2,1,7.150557e-01,NaN,2,0,2,1
52,975,6,135,15,2,2,1,7.959715e-01,NaN,2,0,3,1
52,976,6,7,36,1,2,0,8.983275e-01,NaN,2,1,1,1
52,977,6,21,57,1,1,1,9.721599e-01,NaN,2,0,1,1
52,978,6,112,67,1,1,1,8.675730e-01,NaN,2,1,3,1
52,979,6,94,53,1,1,1,1.710941e+00,NaN,1,0,2,1
52,980,6,100,27,1,1,1,1.321022e+00,NaN,1,0,3,1
52,981,6,9,72,1,2,0,8.102384e-01,NaN,1,1,1,1
52,982,6,11,51,1,1,1,8.325741e-01,NaN,1,1,1,1
52,983,6,41,65,2,2,1,1.309182e+00,NaN,1,0,1,1
52,984,6,108,64,2,2,1,1.351011e+00,NaN,1,0,3,1
52,985,6,52,2,1,1,1,8.473481e-01,NaN,1,0,2,1
52,986,6,59,4,2,2,1,7.471389e-01,NaN,1,1,2,1
52,987,6,63,60,2,2,1,9.550499e-01,NaN,1,0,2,1
52,988,6,117,50,1,1,1,1.483019e+00,NaN,1,0,3,1
52,989,6,113,48,2,1,0,9.256942e-01,NaN,1,0,3,1
52,990,6,37,46,2,2,1,8.871317e-01,NaN,1,1,1,1
52,991,6,12,40,1,2,0,1.018163e+00,NaN,1,0,1,1
52,992,6,123,19,2,2,1,1.151217e+00,NaN,1,0,3,1
52,993,6,18,28,2,2,1,9.431550e-01,NaN,1,0,1,1
52,994,6,17,1,1,1,1,1.327876e+00,NaN,1,0,1,1
52,995,6,36,6,2,2,1,1.337450e+00,NaN,1,0,1,1
52,996,6,106,54,1,1,1,1.425966e+00,NaN,1,0,3,1
52,997,6,70,55,2,1,0,1.175533e+00,NaN,1,0,2,1
52,998,6,48,22,1,1,1,1.414651e+00,NaN,1,0,1,1
52,999,6,111,37,1,1,1,1.020537e+00,NaN,1,0,3,1
52,1000,6,15,35,2,2,1,9.534706e-01,NaN,1,0,1,1
52,1001,6,53,36,2,2,1,9.294671e-01,NaN,1,1,2,1
52,1002,6,14,49,1,1,1,8.104524e-01,NaN,1,1,1,1
52,1003,6,102,56,1,1,1,7.203270e-01,NaN,1,1,3,1
52,1004,6,73,29,1,2,0,6.255959e-01,NaN,1,1,2,1
52,1005,6,107,39,2,1,0,8.867405e-01,NaN,1,0,3,1
52,1006,6,44,3,2,2,1,7.615857e-01,NaN,1,1,1,1
52,1007,6,144,18,2,1,0,9.136019e-01,NaN,1,0,3,1
52,1008,6,65,20,2,1,0,8.032157e-01,NaN,1,0,2,1
52,1009,6,130,30,1,1,1,1.329192e+00,NaN,1,0,3,1
52,1010,6,22,9,1,2,0,7.217433e-01,NaN,1,1,1,1
52,1011,6,13,26,2,2,1,7.233383e-01,NaN,1,1,1,1
52,1012,6,128,31,2,1,0,8.124775e-01,NaN,1,0,3,1
52,1013,6,72,24,2,2,1,6.259560e-01,NaN,1,0,2,1
52,1014,6,141,70,1,1,1,1.367114e+00,NaN,1,0,3,1
52,1015,6,62,63,2,2,1,6.305388e-01,NaN,1,1,2,1
52,1016,6,139,33,2,2,1,6.591706e-01,NaN,1,0,3,1
52,1017,6,87,12,1,1,1,7.835955e-01,NaN,1,1,2,1
52,1018,6,69,57,2,2,1,8.137767e-01,NaN,1,0,2,1
52,1019,6,10,38,2,2,1,9.952231e-01,NaN,1,0,1,1
52,1020,6,127,13,1,1,1,1.025538e+00,NaN,1,0,3,1
52,1021,6,129,59,1,1,1,8.466351e-01,NaN,1,0,3,1
52,1022,6,133,5,1,1,1,1.066902e+00,NaN,1,0,3,1
52,1023,6,28,45,2,2,1,8.382085e-01,NaN,1,0,1,1
52,1024,6,82,15,1,2,0,6.909580e-01,NaN,1,0,2,1
52,1025,6,78,25,1,1,1,7.332696e-01,NaN,1,0,2,1
52,1026,6,79,17,2,2,1,5.739772e-01,NaN,1,0,2,1
52,1027,6,34,67,2,2,1,8.056085e-01,NaN,1,1,1,1
52,1028,6,50,42,2,2,1,8.833983e-01,NaN,1,0,2,1
52,1029,6,23,62,2,2,1,1.414233e+00,NaN,1,0,1,1
52,1030,6,140,58,2,2,1,9.555953e-01,NaN,1,0,3,1
52,1031,6,143,69,2,1,0,9.396130e-01,NaN,1,0,3,1
52,1032,6,74,23,1,1,1,8.681562e-01,NaN,1,0,2,1
52,1033,6,118,43,2,2,1,1.047830e+00,NaN,1,0,3,1
52,1034,6,26,10,2,2,1,7.475277e-01,NaN,1,0,1,1
52,1035,6,134,52,2,2,1,7.559857e-01,NaN,1,0,3,1
52,1036,6,110,11,2,2,1,1.003744e+00,NaN,1,0,3,1
52,1037,6,122,61,2,2,1,9.459040e-01,NaN,1,0,3,1
52,1038,6,27,8,1,2,0,7.375997e-01,NaN,1,1,1,1
52,1039,6,96,21,1,1,1,6.423069e-01,NaN,1,0,2,1
52,1040,6,19,14,1,2,0,8.949385e-01,NaN,1,0,1,1
52,1041,6,57,66,1,1,1,9.220146e-01,NaN,1,1,2,1
52,1042,6,6,44,1,1,1,9.473345e-01,NaN,1,0,1,1
52,1043,6,95,68,2,1,0,7.554451e-01,NaN,1,0,2,1
52,1044,6,61,47,2,2,1,9.155579e-01,NaN,1,0,2,1
52,1045,6,30,32,1,1,1,8.284589e-01,NaN,1,0,1,1
52,1046,6,116,7,2,1,0,9.851756e-01,NaN,1,0,3,1
52,1047,6,5,16,2,2,1,6.638222e-01,NaN,1,1,1,1
52,1048,6,86,34,2,1,0,8.275259e-01,NaN,1,0,2,1
52,1049,6,60,71,1,2,0,1.064648e+00,NaN,1,0,2,1
52,1050,6,80,41,1,1,1,7.002298e-01,NaN,1,1,2,1
