Subject,Trial,Cond,ImageNum,CueNum,Correct,Resp,Accuracy,RT,CueRep,ImageType,Baseline,Category,Block
8,1,1,62,NaN,NaN,1,NaN,4.392810e+00,NaN,0,0,2,1
8,2,1,17,NaN,NaN,1,NaN,4.151615e+00,NaN,0,0,1,1
8,3,1,94,NaN,NaN,1,NaN,1.875472e+00,NaN,0,1,2,1
8,4,1,18,NaN,NaN,1,NaN,2.146885e+00,NaN,1,0,1,1
8,5,1,133,NaN,NaN,2,NaN,1.582967e+00,NaN,0,0,3,1
8,6,1,52,NaN,NaN,1,NaN,1.025906e+00,NaN,0,1,2,1
8,7,1,67,NaN,NaN,1,NaN,1.659275e+00,NaN,1,1,2,1
8,8,1,16,NaN,NaN,1,NaN,2.323037e+00,NaN,0,0,1,1
8,9,1,60,NaN,NaN,1,NaN,8.003751e-01,NaN,0,0,2,1
8,10,1,9,NaN,NaN,1,NaN,2.058408e+00,NaN,1,0,1,1
8,11,1,114,NaN,NaN,1,NaN,1.258476e+00,NaN,0,1,3,1
8,12,1,42,NaN,NaN,1,NaN,1.722391e+00,NaN,0,1,1,1
8,13,1,134,NaN,NaN,2,NaN,1.239220e+00,NaN,0,0,3,1
8,14,1,70,NaN,NaN,1,NaN,1.151763e+00,NaN,1,0,2,1
8,15,1,105,NaN,NaN,2,NaN,9.243567e-01,NaN,2,1,3,1
8,16,1,101,NaN,NaN,2,NaN,1.305754e+00,NaN,1,0,3,1
8,17,1,36,NaN,NaN,1,NaN,1.615538e+00,NaN,2,0,1,1
8,18,1,122,NaN,NaN,2,NaN,1.329075e+00,NaN,0,0,3,1
8,19,1,79,NaN,NaN,1,NaN,1.294005e+00,NaN,0,0,2,1
8,20,1,37,NaN,NaN,2,NaN,1.204721e+00,NaN,0,0,1,1
8,21,1,36,NaN,NaN,1,NaN,1.238291e+00,NaN,0,0,1,1
8,22,1,82,NaN,NaN,1,NaN,1.239177e+00,NaN,1,0,2,1
8,23,1,46,NaN,NaN,2,NaN,1.391491e+00,NaN,0,0,1,1
8,24,1,56,NaN,NaN,1,NaN,1.346264e+00,NaN,2,0,2,1
8,25,1,92,NaN,NaN,1,NaN,1.270699e+00,NaN,1,1,2,1
8,26,1,16,NaN,NaN,1,NaN,2.197728e+00,NaN,1,0,1,1
8,27,1,97,NaN,NaN,1,NaN,1.527995e+00,NaN,1,0,3,1
8,28,1,47,NaN,NaN,1,NaN,1.172973e+00,NaN,0,0,1,1
8,29,1,66,NaN,NaN,1,NaN,7.925238e-01,NaN,1,1,2,1
8,30,1,140,NaN,NaN,1,NaN,2.670322e-01,NaN,0,0,3,1
8,31,1,31,NaN,NaN,1,NaN,5.786682e-01,NaN,1,1,1,1
8,32,1,123,NaN,NaN,1,NaN,3.497387e-01,NaN,2,0,3,1
8,33,1,118,NaN,NaN,1,NaN,2.981724e-01,NaN,0,0,3,1
8,34,1,81,NaN,NaN,1,NaN,2.645803e-01,NaN,0,0,2,1
8,35,1,15,NaN,NaN,2,NaN,3.204666e-01,NaN,1,0,1,1
8,36,1,90,NaN,NaN,1,NaN,2.934672e-01,NaN,1,0,2,1
8,37,1,37,NaN,NaN,1,NaN,1.228028e+00,NaN,1,0,1,1
8,38,1,125,NaN,NaN,1,NaN,5.892722e-01,NaN,1,1,3,1
8,39,1,84,NaN,NaN,1,NaN,4.240457e-01,NaN,2,0,2,1
8,40,1,116,NaN,NaN,1,NaN,3.052462e-01,NaN,2,1,3,1
8,41,1,55,NaN,NaN,1,NaN,3.832185e-01,NaN,1,1,2,1
8,42,1,144,NaN,NaN,1,NaN,4.342593e-01,NaN,1,0,3,1
8,43,1,112,NaN,NaN,1,NaN,2.512367e-01,NaN,0,0,3,1
8,44,1,56,NaN,NaN,1,NaN,2.598575e-01,NaN,0,0,2,1
8,45,1,102,NaN,NaN,2,NaN,3.878314e-01,NaN,0,1,3,1
8,46,1,59,NaN,NaN,1,NaN,2.174496e+00,NaN,2,0,2,1
8,47,1,128,NaN,NaN,1,NaN,7.137014e-01,NaN,0,1,3,1
8,48,1,5,NaN,NaN,1,NaN,3.675010e-01,NaN,0,0,1,1
8,49,1,23,NaN,NaN,1,NaN,3.230668e-01,NaN,2,0,1,1
8,50,1,40,NaN,NaN,1,NaN,9.923170e-01,NaN,0,0,1,1
8,51,1,58,NaN,NaN,1,NaN,4.751704e-01,NaN,2,0,2,1
8,52,1,28,NaN,NaN,2,NaN,2.823911e-01,NaN,0,0,1,1
8,53,1,44,NaN,NaN,1,NaN,4.333354e-01,NaN,2,1,1,1
8,54,1,113,NaN,NaN,1,NaN,3.622434e-01,NaN,0,0,3,1
8,55,1,119,NaN,NaN,1,NaN,5.335914e-01,NaN,2,0,3,1
8,56,1,138,NaN,NaN,1,NaN,4.506835e-01,NaN,2,0,3,1
8,57,1,87,NaN,NaN,1,NaN,5.873648e-01,NaN,1,1,2,1
8,58,1,31,NaN,NaN,1,NaN,4.618833e-01,NaN,0,1,1,1
8,59,1,13,NaN,NaN,2,NaN,1.133763e+00,NaN,0,0,1,1
8,60,1,88,NaN,NaN,1,NaN,3.146219e-01,NaN,2,0,2,1
8,61,1,142,NaN,NaN,1,NaN,3.125129e-01,NaN,0,0,3,1
8,62,1,21,NaN,NaN,1,NaN,3.578714e-01,NaN,1,0,1,1
8,63,1,41,NaN,NaN,2,NaN,3.141972e-01,NaN,2,1,1,1
8,64,1,5,NaN,NaN,1,NaN,3.356946e-01,NaN,2,0,1,1
8,65,1,77,NaN,NaN,2,NaN,1.084884e+00,NaN,0,0,2,1
8,66,1,78,NaN,NaN,1,NaN,4.435297e-01,NaN,2,0,2,1
8,67,1,20,NaN,NaN,1,NaN,3.881909e-01,NaN,0,0,1,1
8,68,1,26,NaN,NaN,1,NaN,3.673567e-01,NaN,1,1,1,1
8,69,1,3,NaN,NaN,2,NaN,3.946523e-01,NaN,1,0,1,1
8,70,1,90,NaN,NaN,1,NaN,3.012298e-01,NaN,0,0,2,1
8,71,1,104,NaN,NaN,2,NaN,4.277174e-01,NaN,1,0,3,1
8,72,1,68,NaN,NaN,1,NaN,3.171137e-01,NaN,2,0,2,1
8,73,1,29,NaN,NaN,1,NaN,2.664641e-01,NaN,1,0,1,1
8,74,1,78,NaN,NaN,1,NaN,3.383518e-01,NaN,0,0,2,1
8,75,1,103,NaN,NaN,1,NaN,2.709988e-01,NaN,2,0,3,1
8,76,1,94,NaN,NaN,1,NaN,6.863908e-01,NaN,2,1,2,1
8,77,1,57,NaN,NaN,1,NaN,6.051307e-01,NaN,2,1,2,1
8,78,1,86,NaN,NaN,1,NaN,6.069186e-01,NaN,0,0,2,1
8,79,1,80,NaN,NaN,1,NaN,3.453121e-01,NaN,2,0,2,1
8,80,1,28,NaN,NaN,1,NaN,6.371891e-01,NaN,1,0,1,1
8,81,1,120,NaN,NaN,1,NaN,8.619375e-01,NaN,0,0,3,1
8,82,1,77,NaN,NaN,1,NaN,3.176619e-01,NaN,2,0,2,1
8,83,1,115,NaN,NaN,2,NaN,6.118471e-01,NaN,2,0,3,1
8,84,1,72,NaN,NaN,1,NaN,4.531101e-01,NaN,2,1,2,1
8,85,1,98,NaN,NaN,1,NaN,3.330069e-01,NaN,0,0,3,1
8,86,1,75,NaN,NaN,1,NaN,3.142114e-01,NaN,2,1,2,1
8,87,1,80,NaN,NaN,1,NaN,2.880315e-01,NaN,0,0,2,1
8,88,1,74,NaN,NaN,1,NaN,2.864401e-01,NaN,1,0,2,1
8,89,1,100,NaN,NaN,2,NaN,4.457000e-01,NaN,2,0,3,1
8,90,1,51,NaN,NaN,1,NaN,7.338142e-01,NaN,2,0,2,1
8,91,1,138,NaN,NaN,1,NaN,5.548482e-01,NaN,0,0,3,1
8,92,1,18,NaN,NaN,1,NaN,9.025095e-01,NaN,0,0,1,1
8,93,1,52,NaN,NaN,1,NaN,1.029059e+00,NaN,1,1,2,1
8,94,1,50,NaN,NaN,1,NaN,7.903323e-01,NaN,1,0,2,1
8,95,1,14,NaN,NaN,1,NaN,4.885393e-01,NaN,2,0,1,1
8,96,1,127,NaN,NaN,1,NaN,5.676604e-01,NaN,0,0,3,1
8,97,1,135,NaN,NaN,1,NaN,6.194380e-01,NaN,0,0,3,1
8,98,1,130,NaN,NaN,2,NaN,1.052627e+00,NaN,1,0,3,1
8,99,1,135,NaN,NaN,1,NaN,2.436849e+00,NaN,2,0,3,1
8,100,1,69,NaN,NaN,1,NaN,3.661562e+00,NaN,2,0,2,1
8,101,1,96,NaN,NaN,1,NaN,3.828955e+00,NaN,2,0,2,1
8,102,1,124,NaN,NaN,2,NaN,1.077772e+00,NaN,1,0,3,1
8,103,1,111,NaN,NaN,1,NaN,2.220629e+00,NaN,1,1,3,1
8,104,1,119,NaN,NaN,1,NaN,5.900654e-01,NaN,0,0,3,1
8,105,1,61,NaN,NaN,1,NaN,1.192387e+00,NaN,0,0,2,1
8,106,1,87,NaN,NaN,1,NaN,7.858649e+00,NaN,0,1,2,1
8,107,1,66,NaN,NaN,1,NaN,3.064026e-01,NaN,0,1,2,1
8,108,1,11,NaN,NaN,1,NaN,5.682919e-01,NaN,0,1,1,1
8,109,1,83,NaN,NaN,1,NaN,4.763476e-01,NaN,1,0,2,1
8,110,1,129,NaN,NaN,2,NaN,3.154898e-01,NaN,2,0,3,1
8,111,1,143,NaN,NaN,1,NaN,7.294244e-01,NaN,0,0,3,1
8,112,1,84,NaN,NaN,1,NaN,6.859962e-01,NaN,0,0,2,1
8,113,1,47,NaN,NaN,1,NaN,3.652205e-01,NaN,1,0,1,1
8,114,1,25,NaN,NaN,1,NaN,3.048499e-01,NaN,2,0,1,1
8,115,1,136,NaN,NaN,1,NaN,2.709124e-01,NaN,2,0,3,1
8,116,1,63,NaN,NaN,1,NaN,3.503608e-01,NaN,0,0,2,1
8,117,1,79,NaN,NaN,1,NaN,2.748546e-01,NaN,1,0,2,1
8,118,1,8,NaN,NaN,1,NaN,2.669208e-01,NaN,0,0,1,1
8,119,1,33,NaN,NaN,1,NaN,2.656739e-01,NaN,1,0,1,1
8,120,1,137,NaN,NaN,1,NaN,4.017536e-01,NaN,0,0,3,1
8,121,1,85,NaN,NaN,1,NaN,2.921599e-01,NaN,0,1,2,1
8,122,1,53,NaN,NaN,1,NaN,1.307004e-04,NaN,0,0,2,1
8,123,1,67,NaN,NaN,1,NaN,3.892911e-01,NaN,0,1,2,1
8,124,1,134,NaN,NaN,2,NaN,7.194897e-01,NaN,2,0,3,1
8,125,1,10,NaN,NaN,1,NaN,4.373059e-01,NaN,0,0,1,1
8,126,1,126,NaN,NaN,2,NaN,6.461202e-01,NaN,0,1,3,1
8,127,1,69,NaN,NaN,1,NaN,5.024735e-01,NaN,0,0,2,1
8,128,1,15,NaN,NaN,1,NaN,4.283208e-01,NaN,0,0,1,1
8,129,1,6,NaN,NaN,1,NaN,3.331865e-01,NaN,2,0,1,1
8,130,1,39,NaN,NaN,2,NaN,3.706770e-01,NaN,0,0,1,1
8,131,1,7,NaN,NaN,1,NaN,4.461769e-01,NaN,2,0,1,1
8,132,1,64,NaN,NaN,1,NaN,6.622160e-01,NaN,0,1,2,1
8,133,1,63,NaN,NaN,1,NaN,6.298062e-01,NaN,1,0,2,1
8,134,1,30,NaN,NaN,2,NaN,4.868106e-01,NaN,0,1,1,1
8,135,1,25,NaN,NaN,1,NaN,3.576571e-01,NaN,0,0,1,1
8,136,1,131,NaN,NaN,2,NaN,4.975760e-01,NaN,1,0,3,1
8,137,1,125,NaN,NaN,1,NaN,3.681995e-01,NaN,0,1,3,1
8,138,1,91,NaN,NaN,1,NaN,4.091604e+00,NaN,1,0,2,1
8,139,1,72,NaN,NaN,1,NaN,6.179327e-01,NaN,0,1,2,1
8,140,1,128,NaN,NaN,1,NaN,3.556564e-01,NaN,2,1,3,1
8,141,1,2,NaN,NaN,1,NaN,3.756895e-01,NaN,0,1,1,1
8,142,1,103,NaN,NaN,1,NaN,3.391640e-01,NaN,0,0,3,1
8,143,1,130,NaN,NaN,2,NaN,4.478606e-01,NaN,0,0,3,1
8,144,1,12,NaN,NaN,2,NaN,5.522206e-01,NaN,1,1,1,1
8,145,1,51,NaN,NaN,1,NaN,3.409341e-01,NaN,0,0,2,1
8,146,1,27,NaN,NaN,1,NaN,1.321657e+00,NaN,2,0,1,1
8,147,1,41,NaN,NaN,2,NaN,4.147068e-01,NaN,0,1,1,1
8,148,1,61,NaN,NaN,1,NaN,2.965246e-01,NaN,1,0,2,1
8,149,1,12,NaN,NaN,2,NaN,1.118591e+00,NaN,0,1,1,1
8,150,1,3,NaN,NaN,2,NaN,6.442720e-01,NaN,0,0,1,1
8,151,1,26,NaN,NaN,1,NaN,3.649893e-01,NaN,0,1,1,1
8,152,1,7,NaN,NaN,1,NaN,4.089680e-01,NaN,0,0,1,1
8,153,1,131,NaN,NaN,2,NaN,7.950973e-01,NaN,0,0,3,1
8,154,1,27,NaN,NaN,1,NaN,3.572692e-01,NaN,0,0,1,1
8,155,1,86,NaN,NaN,1,NaN,8.653604e-01,NaN,2,0,2,1
8,156,1,99,NaN,NaN,2,NaN,5.369633e-01,NaN,0,0,3,1
8,157,1,118,NaN,NaN,1,NaN,6.296761e-01,NaN,2,0,3,1
8,158,1,120,NaN,NaN,1,NaN,5.345253e-01,NaN,1,0,3,1
8,159,1,70,NaN,NaN,1,NaN,2.199024e-01,NaN,0,0,2,1
8,160,1,106,NaN,NaN,1,NaN,4.288665e-01,NaN,2,1,3,1
8,161,1,108,NaN,NaN,2,NaN,4.303567e-01,NaN,0,0,3,1
8,162,1,40,NaN,NaN,1,NaN,3.271957e-01,NaN,2,0,1,1
8,163,1,32,NaN,NaN,2,NaN,3.563238e-01,NaN,1,0,1,1
8,164,1,141,NaN,NaN,1,NaN,3.126509e-01,NaN,2,0,3,1
8,165,1,4,NaN,NaN,1,NaN,4.067516e-01,NaN,2,1,1,1
8,166,1,43,NaN,NaN,1,NaN,3.924026e-01,NaN,1,0,1,1
8,167,1,142,NaN,NaN,1,NaN,1.059090e+00,NaN,1,0,3,1
8,168,1,132,NaN,NaN,2,NaN,1.291252e+00,NaN,0,1,3,1
8,169,1,83,NaN,NaN,1,NaN,4.255610e-01,NaN,0,0,2,1
8,170,1,43,NaN,NaN,1,NaN,3.232331e-01,NaN,0,0,1,1
8,171,1,129,NaN,NaN,2,NaN,2.966758e-01,NaN,0,0,3,1
8,172,1,88,NaN,NaN,1,NaN,3.106484e-01,NaN,0,0,2,1
8,173,1,1,NaN,NaN,1,NaN,3.007933e-01,NaN,0,0,1,1
8,174,1,49,NaN,NaN,1,NaN,3.152866e-01,NaN,0,0,2,1
8,175,1,65,NaN,NaN,1,NaN,3.526986e-01,NaN,1,0,2,1
8,176,1,114,NaN,NaN,1,NaN,4.370837e-01,NaN,2,1,3,1
8,177,1,109,NaN,NaN,1,NaN,3.177717e-01,NaN,2,0,3,1
8,178,1,112,NaN,NaN,1,NaN,3.552686e-01,NaN,1,0,3,1
8,179,1,58,NaN,NaN,1,NaN,3.673389e-01,NaN,0,0,2,1
8,180,1,97,NaN,NaN,1,NaN,2.591896e-01,NaN,0,0,3,1
8,181,1,29,NaN,NaN,1,NaN,1.952459e-01,NaN,0,0,1,1
8,182,1,1,NaN,NaN,1,NaN,3.099424e-01,NaN,2,0,1,1
8,183,1,108,NaN,NaN,1,NaN,4.836611e-01,NaN,2,0,3,1
8,184,1,93,NaN,NaN,1,NaN,3.148492e-01,NaN,1,0,2,1
8,185,1,21,NaN,NaN,1,NaN,5.366898e-01,NaN,0,0,1,1
8,186,1,144,NaN,NaN,1,NaN,4.133418e-01,NaN,0,0,3,1
8,187,1,48,NaN,NaN,1,NaN,3.589780e-01,NaN,0,0,1,1
8,188,1,106,NaN,NaN,1,NaN,3.470999e-01,NaN,0,1,3,1
8,189,1,20,NaN,NaN,1,NaN,8.232694e-01,NaN,2,0,1,1
8,190,1,71,NaN,NaN,1,NaN,7.045089e-01,NaN,0,0,2,1
8,191,1,116,NaN,NaN,1,NaN,8.785732e-01,NaN,0,1,3,1
8,192,1,71,NaN,NaN,1,NaN,9.815456e-01,NaN,2,0,2,1
8,193,1,19,NaN,NaN,2,NaN,1.704801e+00,NaN,1,0,1,1
8,194,1,8,NaN,NaN,1,NaN,1.542378e+00,NaN,1,0,1,1
8,195,1,68,NaN,NaN,1,NaN,6.589811e-01,NaN,0,0,2,1
8,196,1,55,NaN,NaN,1,NaN,2.122772e+00,NaN,0,1,2,1
8,197,1,99,NaN,NaN,2,NaN,4.725805e-01,NaN,1,0,3,1
8,198,1,109,NaN,NaN,1,NaN,3.915716e-01,NaN,0,0,3,1
8,199,1,75,NaN,NaN,1,NaN,8.266755e-01,NaN,0,1,2,1
8,200,1,74,NaN,NaN,1,NaN,5.396202e-01,NaN,0,0,2,1
8,201,1,122,NaN,NaN,2,NaN,4.883775e-01,NaN,2,0,3,1
8,202,1,76,NaN,NaN,1,NaN,3.593188e-01,NaN,0,0,2,1
8,203,1,139,NaN,NaN,1,NaN,5.153383e-01,NaN,2,0,3,1
8,204,1,91,NaN,NaN,1,NaN,2.248549e-01,NaN,0,0,2,1
8,205,1,98,NaN,NaN,1,NaN,3.702913e-01,NaN,1,0,3,1
8,206,1,32,NaN,NaN,1,NaN,1.221635e+00,NaN,0,0,1,1
8,207,1,42,NaN,NaN,1,NaN,4.390394e-01,NaN,1,1,1,1
8,208,1,89,NaN,NaN,1,NaN,3.517357e-01,NaN,2,0,2,1
8,209,1,11,NaN,NaN,1,NaN,5.481227e-01,NaN,1,1,1,1
8,210,1,137,NaN,NaN,1,NaN,4.002060e-01,NaN,2,0,3,1
8,211,1,102,NaN,NaN,2,NaN,3.227130e-01,NaN,1,1,3,1
8,212,1,95,NaN,NaN,1,NaN,7.604892e-01,NaN,0,1,2,1
8,213,1,121,NaN,NaN,1,NaN,7.641240e-01,NaN,0,1,3,1
8,214,1,64,NaN,NaN,1,NaN,3.597109e-01,NaN,2,1,2,1
8,215,1,101,NaN,NaN,1,NaN,3.797506e-01,NaN,0,0,3,1
8,216,1,110,NaN,NaN,1,NaN,1.254663e+00,NaN,1,0,3,1
8,217,1,50,NaN,NaN,1,NaN,1.271024e+00,NaN,0,0,2,1
8,218,1,110,NaN,NaN,2,NaN,8.063324e-01,NaN,0,0,3,1
8,219,1,39,NaN,NaN,2,NaN,7.920815e-01,NaN,1,0,1,1
8,220,1,35,NaN,NaN,2,NaN,5.226681e-01,NaN,2,0,1,1
8,221,1,132,NaN,NaN,2,NaN,5.042179e-01,NaN,1,1,3,1
8,222,1,30,NaN,NaN,2,NaN,4.945554e-01,NaN,2,1,1,1
8,223,1,44,NaN,NaN,1,NaN,7.172892e-01,NaN,0,1,1,1
8,224,1,65,NaN,NaN,1,NaN,4.028816e-01,NaN,0,0,2,1
8,225,1,73,NaN,NaN,1,NaN,4.530684e-01,NaN,0,1,2,1
8,226,1,104,NaN,NaN,2,NaN,5.014279e-01,NaN,0,0,3,1
8,227,1,13,NaN,NaN,2,NaN,5.396489e-01,NaN,1,0,1,1
8,228,1,93,NaN,NaN,1,NaN,5.522990e-01,NaN,0,0,2,1
8,229,1,48,NaN,NaN,1,NaN,3.646941e-01,NaN,2,0,1,1
8,230,1,24,NaN,NaN,1,NaN,4.171826e-01,NaN,2,0,1,1
8,231,1,126,NaN,NaN,2,NaN,8.256522e-01,NaN,1,1,3,1
8,232,1,2,NaN,NaN,1,NaN,4.116439e-01,NaN,2,1,1,1
8,233,1,111,NaN,NaN,1,NaN,4.053124e-01,NaN,0,1,3,1
8,234,1,57,NaN,NaN,1,NaN,6.549291e-01,NaN,0,1,2,1
8,235,1,4,NaN,NaN,1,NaN,6.469126e-01,NaN,0,1,1,1
8,236,1,24,NaN,NaN,1,NaN,7.433719e-01,NaN,0,0,1,1
8,237,1,35,NaN,NaN,0,NaN,9.995125e+00,NaN,0,0,1,1
8,238,1,34,NaN,NaN,1,NaN,1.221609e+00,NaN,0,0,1,1
8,239,1,105,NaN,NaN,0,NaN,9.995030e+00,NaN,0,1,3,1
8,240,1,96,NaN,NaN,1,NaN,8.711812e+00,NaN,0,0,2,1
8,241,1,107,NaN,NaN,1,NaN,7.251967e-01,NaN,1,0,3,1
8,242,1,54,NaN,NaN,1,NaN,1.002894e+00,NaN,0,1,2,1
8,243,1,53,NaN,NaN,1,NaN,1.509498e+00,NaN,1,0,2,1
8,244,1,85,NaN,NaN,1,NaN,2.706579e+00,NaN,1,1,2,1
8,245,1,107,NaN,NaN,1,NaN,2.145081e+00,NaN,0,0,3,1
8,246,1,46,NaN,NaN,2,NaN,8.609486e-01,NaN,1,0,1,1
8,247,1,22,NaN,NaN,2,NaN,7.248520e-01,NaN,0,0,1,1
8,248,1,38,NaN,NaN,1,NaN,7.942316e-01,NaN,0,0,1,1
8,249,1,62,NaN,NaN,1,NaN,1.410077e-01,NaN,2,0,2,1
8,250,1,76,NaN,NaN,1,NaN,6.019912e-01,NaN,1,0,2,1
8,251,1,140,NaN,NaN,1,NaN,9.963488e-01,NaN,1,0,3,1
8,252,1,92,NaN,NaN,1,NaN,2.670152e+00,NaN,0,1,2,1
8,253,1,136,NaN,NaN,1,NaN,1.061730e+00,NaN,0,0,3,1
8,254,1,124,NaN,NaN,2,NaN,2.316981e+00,NaN,0,0,3,1
8,255,1,45,NaN,NaN,2,NaN,1.490626e+00,NaN,0,0,1,1
8,256,1,123,NaN,NaN,1,NaN,3.613876e-01,NaN,0,0,3,1
8,257,1,89,NaN,NaN,1,NaN,3.416413e-01,NaN,0,0,2,1
8,258,1,133,NaN,NaN,2,NaN,6.182062e-01,NaN,1,0,3,1
8,259,1,54,NaN,NaN,1,NaN,3.236303e-01,NaN,2,1,2,1
8,260,1,143,NaN,NaN,1,NaN,3.212581e-01,NaN,1,0,3,1
8,261,1,14,NaN,NaN,1,NaN,3.583945e-01,NaN,0,0,1,1
8,262,1,115,NaN,NaN,2,NaN,7.224828e-01,NaN,0,0,3,1
8,263,1,81,NaN,NaN,1,NaN,6.481022e-01,NaN,2,0,2,1
8,264,1,73,NaN,NaN,1,NaN,5.685364e-01,NaN,1,1,2,1
8,265,1,6,NaN,NaN,1,NaN,8.440925e-01,NaN,0,0,1,1
8,266,1,113,NaN,NaN,1,NaN,9.566292e-01,NaN,1,0,3,1
8,267,1,45,NaN,NaN,2,NaN,1.448709e+00,NaN,2,0,1,1
8,268,1,95,NaN,NaN,1,NaN,6.013359e-01,NaN,2,1,2,1
8,269,1,127,NaN,NaN,1,NaN,1.227344e+00,NaN,2,0,3,1
8,270,1,49,NaN,NaN,1,NaN,1.420776e+00,NaN,1,0,2,1
8,271,1,9,NaN,NaN,1,NaN,1.309734e+00,NaN,0,0,1,1
8,272,1,22,NaN,NaN,2,NaN,5.716931e-01,NaN,2,0,1,1
8,273,1,121,NaN,NaN,1,NaN,5.034618e-01,NaN,2,1,3,1
8,274,1,82,NaN,NaN,1,NaN,6.693010e-01,NaN,0,0,2,1
8,275,1,19,NaN,NaN,2,NaN,4.047352e-01,NaN,0,0,1,1
8,276,1,10,NaN,NaN,1,NaN,3.187953e-01,NaN,2,0,1,1
8,277,1,33,NaN,NaN,1,NaN,5.248492e-01,NaN,0,0,1,1
8,278,1,23,NaN,NaN,2,NaN,4.898617e-01,NaN,0,0,1,1
8,279,1,117,NaN,NaN,2,NaN,5.767277e-01,NaN,0,0,3,1
8,280,1,141,NaN,NaN,1,NaN,7.242866e-01,NaN,0,0,3,1
8,281,1,60,NaN,NaN,1,NaN,3.536036e-01,NaN,1,0,2,1
8,282,1,34,NaN,NaN,1,NaN,2.774182e-01,NaN,2,0,1,1
8,283,1,38,NaN,NaN,1,NaN,2.612047e-01,NaN,1,0,1,1
8,284,1,59,NaN,NaN,1,NaN,3.089052e-01,NaN,0,0,2,1
8,285,1,17,NaN,NaN,1,NaN,3.551346e-01,NaN,2,0,1,1
8,286,1,117,NaN,NaN,2,NaN,4.153950e-01,NaN,1,0,3,1
8,287,1,139,NaN,NaN,1,NaN,4.327570e-01,NaN,0,0,3,1
8,288,1,100,NaN,NaN,2,NaN,4.978075e-01,NaN,0,0,3,1
8,374,2,101,3,1,1,1,2.079661e+00,NaN,1,0,3,1
8,375,2,8,45,1,1,1,2.042978e+00,NaN,1,0,1,1
8,376,2,33,11,2,2,1,2.158819e+00,NaN,1,0,1,1
8,377,2,32,23,1,1,1,1.565919e+00,NaN,1,0,1,1
8,378,2,117,72,1,1,1,1.437021e+00,NaN,1,0,3,1
8,379,2,85,20,1,1,1,9.130800e-01,NaN,1,1,2,1
8,380,2,90,30,2,2,1,2.273514e+00,NaN,1,0,2,1
8,381,2,91,57,2,2,1,6.040990e-01,NaN,1,0,2,1
8,382,2,110,16,2,0,0,3.499985e+00,NaN,1,0,3,1
8,383,2,76,49,1,1,1,1.170907e+00,NaN,1,0,2,1
8,384,2,70,15,2,1,0,2.017687e+00,NaN,1,0,2,1
8,385,2,66,7,1,1,1,1.414650e+00,NaN,1,1,2,1
8,386,2,29,60,1,1,1,1.803436e+00,NaN,1,0,1,1
8,387,2,133,71,1,1,1,1.201091e+00,NaN,1,0,3,1
8,388,2,53,25,1,1,1,1.158266e+00,NaN,1,0,2,1
8,389,2,49,10,1,1,1,1.853456e+00,NaN,1,0,2,1
8,390,2,97,48,2,2,1,2.624590e+00,NaN,1,0,3,1
8,391,2,126,44,2,2,1,2.069293e+00,NaN,1,1,3,1
8,392,2,140,19,2,2,1,1.560112e+00,NaN,1,0,3,1
8,393,2,37,46,1,1,1,2.567413e+00,NaN,1,0,1,1
8,394,2,131,61,1,1,1,1.430368e+00,NaN,1,0,3,1
8,395,2,39,38,2,2,1,1.754456e+00,NaN,1,0,1,1
8,396,2,50,6,2,2,1,1.057540e+00,NaN,1,0,2,1
8,397,2,9,64,1,1,1,1.820981e+00,NaN,1,0,1,1
8,398,3,97,48,2,2,1,1.379757e+00,NaN,1,0,3,1
8,399,3,131,61,1,1,1,1.458707e+00,NaN,1,0,3,1
8,400,3,66,7,2,2,1,9.657507e-01,NaN,1,1,2,1
8,401,3,117,72,1,1,1,2.564820e+00,NaN,1,0,3,1
8,402,3,50,6,1,1,1,2.763723e+00,NaN,1,0,2,1
8,403,3,91,57,1,1,1,8.584188e-01,NaN,1,0,2,1
8,404,3,49,10,2,2,1,7.737071e-01,NaN,1,0,2,1
8,405,3,37,46,2,1,0,2.667928e+00,NaN,1,0,1,1
8,406,3,76,49,1,1,1,8.712109e-01,NaN,1,0,2,1
8,407,3,53,25,1,1,1,1.097822e+00,NaN,1,0,2,1
8,408,3,85,20,1,1,1,7.556046e-01,NaN,1,1,2,1
8,409,3,101,3,1,1,1,1.506771e+00,NaN,1,0,3,1
8,410,3,32,23,1,1,1,1.579908e+00,NaN,1,0,1,1
8,411,3,133,71,2,2,1,1.098046e+00,NaN,1,0,3,1
8,412,3,39,38,1,1,1,2.363731e+00,NaN,1,0,1,1
8,413,3,9,64,2,2,1,3.018990e+00,NaN,1,0,1,1
8,414,3,140,19,2,2,1,8.555362e-01,NaN,1,0,3,1
8,415,3,33,11,1,0,0,3.499874e+00,NaN,1,0,1,1
8,416,3,29,60,2,2,1,1.412407e+00,NaN,1,0,1,1
8,417,3,126,44,2,2,1,8.171618e-01,NaN,1,1,3,1
8,418,3,70,15,2,2,1,1.006023e+00,NaN,1,0,2,1
8,419,3,110,16,2,2,1,1.699351e+00,NaN,1,0,3,1
8,420,3,8,45,1,1,1,2.021225e+00,NaN,1,0,1,1
8,421,3,90,30,2,2,1,1.401938e+00,NaN,1,0,2,1
8,446,2,120,14,1,1,1,1.003223e+00,NaN,1,0,3,2
8,447,2,143,67,2,2,1,1.984517e+00,NaN,1,0,3,2
8,448,2,11,37,2,2,1,1.502250e+00,NaN,1,1,1,2
8,449,2,113,65,2,2,1,9.038914e-01,NaN,1,0,3,2
8,450,2,107,47,1,1,1,1.249095e+00,NaN,1,0,3,2
8,451,2,13,56,2,2,1,8.295545e-01,NaN,1,0,1,2
8,452,2,79,69,1,1,1,5.694238e-01,NaN,1,0,2,2
8,453,2,43,41,2,2,1,1.032579e+00,NaN,1,0,1,2
8,454,2,65,32,1,1,1,1.052930e+00,NaN,1,0,2,2
8,455,2,73,17,1,1,1,9.682172e-01,NaN,1,1,2,2
8,456,2,15,12,1,1,1,1.983420e+00,NaN,1,0,1,2
8,457,2,83,58,1,1,1,9.092885e-01,NaN,1,0,2,2
8,458,2,52,27,2,2,1,8.149134e-01,NaN,1,1,2,2
8,459,2,16,53,2,2,1,2.260126e+00,NaN,1,0,1,2
8,460,2,98,29,2,2,1,9.993257e-01,NaN,1,0,3,2
8,461,2,111,70,2,2,1,3.292289e+00,NaN,1,1,3,2
8,462,2,31,13,1,1,1,2.422191e+00,NaN,1,1,1,2
8,463,2,144,52,2,2,1,1.699341e+00,NaN,1,0,3,2
8,464,2,92,2,2,2,1,1.420796e+00,NaN,1,1,2,2
8,465,2,60,21,1,1,1,1.049587e+00,NaN,1,0,2,2
8,466,2,87,55,2,2,1,1.661141e+00,NaN,1,1,2,2
8,467,2,104,54,2,2,1,1.920428e+00,NaN,1,0,3,2
8,468,2,46,36,1,1,1,1.489152e+00,NaN,1,0,1,2
8,469,2,61,63,1,1,1,1.099395e+00,NaN,1,0,2,2
8,470,3,60,21,1,1,1,7.408796e-01,NaN,1,0,2,2
8,471,3,111,70,1,1,1,2.421270e+00,NaN,1,1,3,2
8,472,3,15,12,1,1,1,1.049762e+00,NaN,1,0,1,2
8,473,3,98,29,2,2,1,9.899732e-01,NaN,1,0,3,2
8,474,3,11,37,1,1,1,1.827752e+00,NaN,1,1,1,2
8,475,3,83,58,2,2,1,9.121569e-01,NaN,1,0,2,2
8,476,3,43,41,1,1,1,1.185172e+00,NaN,1,0,1,2
8,477,3,107,47,1,1,1,1.503694e+00,NaN,1,0,3,2
8,478,3,92,2,1,1,1,8.168712e-01,NaN,1,1,2,2
8,479,3,31,13,1,1,1,1.765820e+00,NaN,1,1,1,2
8,480,3,46,36,2,2,1,1.252962e+00,NaN,1,0,1,2
8,481,3,143,67,2,2,1,2.304542e+00,NaN,1,0,3,2
8,482,3,61,63,2,2,1,8.734895e-01,NaN,1,0,2,2
8,483,3,87,55,1,1,1,1.643938e+00,NaN,1,1,2,2
8,484,3,16,53,1,1,1,1.288028e+00,NaN,1,0,1,2
8,485,3,13,56,1,1,1,2.169939e+00,NaN,1,0,1,2
8,486,3,113,65,1,1,1,9.691662e-01,NaN,1,0,3,2
8,487,3,79,69,1,1,1,8.801362e-01,NaN,1,0,2,2
8,488,3,73,17,2,2,1,1.098133e+00,NaN,1,1,2,2
8,489,3,52,27,1,1,1,7.400757e-01,NaN,1,1,2,2
8,490,3,144,52,1,1,1,1.299630e+00,NaN,1,0,3,2
8,491,3,104,54,1,1,1,2.517325e+00,NaN,1,0,3,2
8,492,3,120,14,1,1,1,2.486322e+00,NaN,1,0,3,2
8,493,3,65,32,1,1,1,9.528017e-01,NaN,1,0,2,2
8,518,2,124,50,1,1,1,1.495444e+00,NaN,1,0,3,3
8,519,2,142,62,2,0,0,3.500066e+00,NaN,1,0,3,3
8,520,2,55,33,1,1,1,2.306570e+00,NaN,1,1,2,3
8,521,2,42,66,2,2,1,1.547822e+00,NaN,1,1,1,3
8,522,2,132,5,1,1,1,1.667201e+00,NaN,1,1,3,3
8,523,2,93,39,2,2,1,8.861587e-01,NaN,1,0,2,3
8,524,2,18,51,1,1,1,9.766073e-01,NaN,1,0,1,3
8,525,2,47,4,2,2,1,1.167421e+00,NaN,1,0,1,3
8,526,2,74,9,2,2,1,1.238189e+00,NaN,1,0,2,3
8,527,2,38,8,2,2,1,1.650314e+00,NaN,1,0,1,3
8,528,2,26,31,2,2,1,1.365425e+00,NaN,1,1,1,3
8,529,2,99,22,1,1,1,2.044666e+00,NaN,1,0,3,3
8,530,2,19,18,1,1,1,1.592754e+00,NaN,1,0,1,3
8,531,2,112,34,1,1,1,9.427067e-01,NaN,1,0,3,3
8,532,2,21,42,2,2,1,8.385330e-01,NaN,1,0,1,3
8,533,2,3,59,2,2,1,1.106278e+00,NaN,1,0,1,3
8,534,2,130,28,2,2,1,1.267665e+00,NaN,1,0,3,3
8,535,2,125,68,1,2,0,1.431043e+00,NaN,1,1,3,3
8,536,2,12,1,2,2,1,1.803210e+00,NaN,1,1,1,3
8,537,2,63,43,1,1,1,1.008575e+00,NaN,1,0,2,3
8,538,2,82,24,2,2,1,1.278150e+00,NaN,1,0,2,3
8,539,2,67,26,1,1,1,1.000376e+00,NaN,1,1,2,3
8,540,2,102,40,1,1,1,9.502892e-01,NaN,1,1,3,3
8,541,2,28,35,2,2,1,1.229902e+00,NaN,1,0,1,3
8,542,3,63,43,1,1,1,8.301006e-01,NaN,1,0,2,3
8,543,3,132,5,2,2,1,1.162762e+00,NaN,1,1,3,3
8,544,3,93,39,1,1,1,7.697659e-01,NaN,1,0,2,3
8,545,3,18,51,2,2,1,1.408784e+00,NaN,1,0,1,3
8,546,3,99,22,1,1,1,1.190279e+00,NaN,1,0,3,3
8,547,3,67,26,2,2,1,1.156029e+00,NaN,1,1,2,3
8,548,3,19,18,2,2,1,1.132165e+00,NaN,1,0,1,3
8,549,3,142,62,1,1,1,2.379538e+00,NaN,1,0,3,3
8,550,3,3,59,2,2,1,1.593868e+00,NaN,1,0,1,3
8,551,3,21,42,2,2,1,1.319953e+00,NaN,1,0,1,3
8,552,3,28,35,2,2,1,1.200541e+00,NaN,1,0,1,3
8,553,3,130,28,2,2,1,1.510333e+00,NaN,1,0,3,3
8,554,3,74,9,2,2,1,1.119385e+00,NaN,1,0,2,3
8,555,3,125,68,2,2,1,8.563345e-01,NaN,1,1,3,3
8,556,3,42,66,1,1,1,1.123612e+00,NaN,1,1,1,3
8,557,3,102,40,1,1,1,1.068567e+00,NaN,1,1,3,3
8,558,3,124,50,2,2,1,1.247084e+00,NaN,1,0,3,3
8,559,3,38,8,1,1,1,1.499037e+00,NaN,1,0,1,3
8,560,3,112,34,1,1,1,1.036493e+00,NaN,1,0,3,3
8,561,3,55,33,2,2,1,1.712602e+00,NaN,1,1,2,3
8,562,3,82,24,2,2,1,9.613700e-01,NaN,1,0,2,3
8,563,3,26,31,1,1,1,1.280982e+00,NaN,1,1,1,3
8,564,3,12,1,1,1,1,1.531039e+00,NaN,1,1,1,3
8,565,3,47,4,2,2,1,1.067304e+00,NaN,1,0,1,3
8,590,4,69,51,1,1,1,1.312767e+00,NaN,2,0,2,1
8,591,4,88,22,1,1,1,1.505305e+00,NaN,2,0,2,1
8,592,4,72,31,1,1,1,1.450881e+00,NaN,2,1,2,1
8,593,4,136,59,2,2,1,1.862554e+00,NaN,2,0,3,1
8,594,4,62,35,1,1,1,1.017489e+00,NaN,2,0,2,1
8,595,4,121,17,2,2,1,2.798518e+00,NaN,2,1,3,1
8,596,4,27,10,2,2,1,1.427650e+00,NaN,2,0,1,1
8,597,4,58,12,2,2,1,9.203539e-01,NaN,2,0,2,1
8,598,4,24,15,1,1,1,1.384709e+00,NaN,2,0,1,1
8,599,4,51,36,2,2,1,1.463195e+00,NaN,2,0,2,1
8,600,4,36,43,1,1,1,1.986258e+00,NaN,2,0,1,1
8,601,4,80,54,2,2,1,1.656409e+00,NaN,2,0,2,1
8,602,4,6,65,1,1,1,2.163490e+00,NaN,2,0,1,1
8,603,4,78,16,2,2,1,1.090428e+00,NaN,2,0,2,1
8,604,4,128,66,2,2,1,1.860376e+00,NaN,2,1,3,1
8,605,4,115,21,1,2,0,1.679824e+00,NaN,2,0,3,1
8,606,4,119,6,2,1,0,1.266074e+00,NaN,2,0,3,1
8,607,4,1,29,1,1,1,1.172974e+00,NaN,2,0,1,1
8,608,4,139,11,2,2,1,1.483290e+00,NaN,2,0,3,1
8,609,4,135,56,2,2,1,1.133991e+00,NaN,2,0,3,1
8,610,4,86,34,1,1,1,1.718380e+00,NaN,2,0,2,1
8,611,4,106,20,2,2,1,1.311381e+00,NaN,2,1,3,1
8,612,4,95,68,2,2,1,9.362725e-01,NaN,2,1,2,1
8,613,4,134,38,2,2,1,2.144899e+00,NaN,2,0,3,1
8,638,4,35,24,1,1,1,1.784868e+00,NaN,2,0,1,2
8,639,4,4,70,2,2,1,1.015137e+00,NaN,2,1,1,2
8,640,4,2,5,1,1,1,2.500132e+00,NaN,2,1,1,2
8,641,4,25,25,2,2,1,1.597538e+00,NaN,2,0,1,2
8,642,4,141,46,1,1,1,2.963218e+00,NaN,2,0,3,2
8,643,4,96,3,1,1,1,1.618215e+00,NaN,2,0,2,2
8,644,4,109,69,2,1,0,1.863316e+00,NaN,2,0,3,2
8,645,4,40,63,2,2,1,1.481883e+00,NaN,2,0,1,2
8,646,4,23,72,2,2,1,2.100055e+00,NaN,2,0,1,2
8,647,4,129,64,1,1,1,1.501750e+00,NaN,2,0,3,2
8,648,4,48,32,1,1,1,1.559727e+00,NaN,2,0,1,2
8,649,4,71,53,2,2,1,1.294587e+00,NaN,2,0,2,2
8,650,4,41,7,2,2,1,1.721704e+00,NaN,2,1,1,2
8,651,4,59,45,2,2,1,7.691332e-01,NaN,2,0,2,2
8,652,4,56,18,2,2,1,1.288092e+00,NaN,2,0,2,2
8,653,4,57,13,2,2,1,1.106420e+00,NaN,2,1,2,2
8,654,4,123,60,1,1,1,1.403804e+00,NaN,2,0,3,2
8,655,4,44,55,1,1,1,2.481088e+00,NaN,2,1,1,2
8,656,4,84,52,1,1,1,8.594264e-01,NaN,2,0,2,2
8,657,4,17,47,1,1,1,1.654585e+00,NaN,2,0,1,2
8,658,4,77,61,2,2,1,7.540320e-01,NaN,2,0,2,2
8,659,4,22,50,1,1,1,1.521670e+00,NaN,2,0,1,2
8,660,4,103,30,2,2,1,1.466278e+00,NaN,2,0,3,2
8,661,4,108,58,2,2,1,1.477470e+00,NaN,2,0,3,2
8,686,4,100,49,1,1,1,1.526316e+00,NaN,2,0,3,3
8,687,4,30,27,2,2,1,1.398960e+00,NaN,2,1,1,3
8,688,4,137,23,2,2,1,9.648494e-01,NaN,2,0,3,3
8,689,4,14,19,2,1,0,2.091482e+00,NaN,2,0,1,3
8,690,4,138,4,1,1,1,1.438058e+00,NaN,2,0,3,3
8,691,4,20,67,1,1,1,8.181456e-01,NaN,2,0,1,3
8,692,4,7,62,1,1,1,1.375280e+00,NaN,2,0,1,3
8,693,4,116,2,2,2,1,1.533696e+00,NaN,2,1,3,3
8,694,4,114,33,2,2,1,1.437684e+00,NaN,2,1,3,3
8,695,4,81,28,2,2,1,1.586031e+00,NaN,2,0,2,3
8,696,4,89,14,2,2,1,1.721004e+00,NaN,2,0,2,3
8,697,4,122,42,1,1,1,9.534127e-01,NaN,2,0,3,3
8,698,4,118,57,2,2,1,1.400878e+00,NaN,2,0,3,3
8,699,4,68,41,1,1,1,6.944978e-01,NaN,2,0,2,3
8,700,4,5,71,1,2,0,1.608910e+00,NaN,2,0,1,3
8,701,4,105,26,2,2,1,1.742139e+00,NaN,2,1,3,3
8,702,4,127,8,2,2,1,1.478158e+00,NaN,2,0,3,3
8,703,4,94,44,2,2,1,9.842797e-01,NaN,2,1,2,3
8,704,4,45,39,2,2,1,1.390625e+00,NaN,2,0,1,3
8,705,4,10,48,1,1,1,1.252796e+00,NaN,2,0,1,3
8,706,4,64,37,1,1,1,1.040188e+00,NaN,2,1,2,3
8,707,4,34,9,1,1,1,1.228421e+00,NaN,2,0,1,3
8,708,4,54,1,1,1,1,1.288660e+00,NaN,2,1,2,3
8,709,4,75,40,1,1,1,1.738529e+00,NaN,2,1,2,3
8,710,5,9.345000e+01,39,2,0,0,2.500525e+00,1,1,0,2.100000e+00,1
8,711,5,3.927000e+01,8,1,1,1,5.827894e-01,1,1,0,1.300000e+00,1
8,712,5,8.235000e+01,24,2,2,1,4.251034e-01,1,1,0,2.100000e+00,1
8,713,5,9.103000e+01,30,2,3,0,5.551135e-01,1,1,0,2.300000e+00,1
8,714,5,1.130600e+02,65,3,3,1,3.245395e-01,1,1,0,3.100000e+00,1
8,715,5,1.401400e+02,19,3,3,1,3.905468e-01,1,1,0,3.100000e+00,1
8,716,5,4.927000e+01,10,2,1,0,3.683099e-01,1,1,0,2.100000e+00,1
8,717,5,1.208900e+02,14,3,3,1,7.861040e-01,1,1,0,3.200000e+00,1
8,718,5,8.408000e+01,58,2,2,1,2.759904e-01,1,1,0,2.300000e+00,1
8,719,5,4.927000e+01,10,2,2,1,2.858413e-01,2,1,0,2.100000e+00,1
8,720,5,3.023000e+01,60,1,1,1,3.443830e-01,1,1,0,1.300000e+00,1
8,721,5,4.368000e+01,41,1,2,0,3.382380e-01,1,1,0,1.200000e+00,1
8,722,5,1.558000e+01,12,1,2,0,3.639642e-01,1,1,0,1.200000e+00,1
8,723,5,1.048000e+02,54,3,2,0,4.055484e-01,1,1,0,3.200000e+00,1
8,724,5,7.434000e+01,9,2,1,0,6.229911e-01,1,1,0,2.100000e+00,1
8,725,5,1.019600e+02,3,3,3,1,4.491033e-01,1,1,0,3.200000e+00,1
8,726,5,1.107800e+02,16,3,1,0,3.706127e-01,1,1,0,3.200000e+00,1
8,727,5,1.107800e+02,16,3,3,1,2.760795e-01,2,1,0,3.200000e+00,1
8,728,5,3.841000e+01,46,1,1,1,2.702580e-01,1,1,0,1.300000e+00,1
8,729,5,8.408000e+01,58,2,2,1,4.158635e-01,2,1,0,2.300000e+00,1
8,730,5,4.368000e+01,41,1,2,0,2.814935e-01,2,1,0,1.200000e+00,1
8,731,5,77,49,2,3,0,2.832789e-01,1,1,0,2.300000e+00,1
8,732,5,4.368000e+01,41,1,1,1,2.694871e-01,3,1,0,1.200000e+00,1
8,733,5,1.448400e+02,52,3,3,1,5.112709e-01,1,1,0,3.200000e+00,1
8,734,5,3.439000e+01,11,1,1,1,6.571338e-01,1,1,0,1.300000e+00,1
8,735,5,1.029000e+01,64,1,1,1,3.149063e-01,1,1,0,1.300000e+00,1
8,736,5,8.235000e+01,24,2,2,1,3.404391e-01,2,1,0,2.100000e+00,1
8,737,5,1.172300e+02,72,3,1,0,3.104199e-01,1,1,0,3.100000e+00,1
8,738,5,1.330500e+02,71,3,3,1,4.324395e-01,1,1,0,3.100000e+00,1
8,739,5,1.048000e+02,54,3,1,0,3.059254e-01,2,1,0,3.200000e+00,1
8,740,5,1.128600e+02,34,3,3,1,3.237547e-01,1,1,0,3.200000e+00,1
8,741,5,1.242200e+02,50,3,3,1,5.573855e-01,1,1,0,3.100000e+00,1
8,742,5,6.336000e+01,43,2,2,1,3.511172e-01,1,1,0,2.100000e+00,1
8,743,5,1.317700e+02,61,3,2,0,6.332183e-01,1,1,0,3.200000e+00,1
8,744,5,1.956000e+01,18,1,1,1,2.829456e-01,1,1,0,1.200000e+00,1
8,745,5,9.345000e+01,39,2,2,1,5.488136e-01,2,1,0,2.100000e+00,1
8,746,5,1.130600e+02,65,3,3,1,3.341316e-01,2,1,0,3.100000e+00,1
8,747,5,3.023000e+01,60,1,1,1,3.041532e-01,2,1,0,1.300000e+00,1
8,748,5,7.434000e+01,9,2,2,1,3.468047e-01,2,1,0,2.100000e+00,1
8,749,5,1.432000e+02,67,3,3,1,3.478500e-01,1,1,0,3.100000e+00,1
8,750,5,9.801000e+01,29,3,3,1,4.931935e-01,1,1,0,3.100000e+00,1
8,751,5,1.172300e+02,72,3,3,1,6.153893e-01,2,1,0,3.100000e+00,1
8,752,5,1.019600e+02,3,3,3,1,3.209897e-01,2,1,0,3.200000e+00,1
8,753,5,4.838000e+01,4,1,1,1,4.429067e-01,1,1,0,1.300000e+00,1
8,754,5,2.222000e+01,42,1,1,1,3.164279e-01,1,1,0,1.300000e+00,1
8,755,5,1.420700e+02,62,3,3,1,3.498760e-01,1,1,0,3.100000e+00,1
8,756,5,1.107800e+02,16,3,1,0,4.641303e-01,3,1,0,3.200000e+00,1
8,757,5,3.439000e+01,11,1,1,1,5.300078e-01,2,1,0,1.300000e+00,1
8,758,5,1.558000e+01,12,1,2,0,2.755280e-01,2,1,0,1.200000e+00,1
8,759,5,6.115000e+01,21,2,2,1,5.414108e-01,1,1,0,2.300000e+00,1
8,760,5,8.590000e+00,45,1,1,1,3.830522e-01,1,1,0,1.200000e+00,1
8,761,5,1.308100e+02,28,3,3,1,4.329442e-01,1,1,0,3.200000e+00,1
8,762,5,1.130600e+02,65,3,3,1,3.623418e-01,3,1,0,3.100000e+00,1
8,763,5,5.325000e+01,25,2,2,1,3.484232e-01,1,1,0,2.100000e+00,1
8,764,5,4.034000e+01,38,1,3,0,2.782262e-01,1,1,0,1.300000e+00,1
8,765,5,1.048000e+02,54,3,2,0,2.487432e-01,3,1,0,3.200000e+00,1
8,766,5,3.337000e+01,23,1,1,1,2.815958e-01,1,1,0,1.300000e+00,1
8,767,5,8.009000e+01,69,2,2,1,4.592074e-01,1,1,0,2.300000e+00,1
8,768,5,77,49,2,3,0,4.529392e-01,2,1,0,2.300000e+00,1
8,769,5,4.034000e+01,38,1,2,0,1.182672e+00,2,1,0,1.300000e+00,1
8,770,5,1.128600e+02,34,3,3,1,2.885196e-01,2,1,0,3.200000e+00,1
8,771,5,4.360000e+00,59,1,1,1,2.901336e-01,1,1,0,1.300000e+00,1
8,772,5,1.401400e+02,19,3,3,1,3.001676e-01,2,1,0,3.100000e+00,1
8,773,5,9.988000e+01,22,3,3,1,2.538103e-01,1,1,0,3.200000e+00,1
8,774,5,1.317700e+02,61,3,3,1,3.116179e-01,2,1,0,3.200000e+00,1
8,775,5,4.360000e+00,59,1,1,1,2.972427e-01,2,1,0,1.300000e+00,1
8,776,5,1.071700e+02,47,3,1,0,3.629814e-01,1,1,0,3.100000e+00,1
8,777,5,9.103000e+01,30,2,2,1,3.246475e-01,2,1,0,2.300000e+00,1
8,778,5,1.869000e+01,51,1,1,1,1.270687e+00,1,1,0,1.200000e+00,1
8,779,5,77,49,2,3,0,6.481813e-01,3,1,0,2.300000e+00,1
8,780,5,5.119000e+01,6,2,3,0,5.297280e-01,1,1,0,2.300000e+00,1
8,781,5,8.408000e+01,58,2,2,1,2.678097e-01,3,1,0,2.300000e+00,1
8,782,5,1.869000e+01,51,1,2,0,3.578095e-01,2,1,0,1.200000e+00,1
8,783,5,4.838000e+01,4,1,1,1,3.270361e-01,2,1,0,1.300000e+00,1
8,784,5,9.988000e+01,22,3,3,1,3.452019e-01,2,1,0,3.200000e+00,1
8,785,5,1.869000e+01,51,1,2,0,3.226916e-01,3,1,0,1.200000e+00,1
8,786,5,1.242200e+02,50,3,3,1,2.364341e-01,2,1,0,3.100000e+00,1
8,787,5,1.448400e+02,52,3,3,1,3.506672e-01,2,1,0,3.200000e+00,1
8,788,5,1.671000e+01,53,1,1,1,2.646195e-01,1,1,0,1.200000e+00,1
8,789,5,6.115000e+01,21,2,2,1,2.578400e-01,2,1,0,2.300000e+00,1
8,790,5,1.071700e+02,47,3,3,1,5.799004e-01,2,1,0,3.100000e+00,1
8,791,5,1.130600e+02,65,3,3,1,2.696719e-01,4,1,0,3.100000e+00,1
8,792,5,4.927000e+01,10,2,1,0,3.274590e-01,3,1,0,2.100000e+00,1
8,793,5,4.360000e+00,59,1,1,1,5.373364e-01,3,1,0,1.300000e+00,1
8,794,5,7.024000e+01,15,2,2,1,6.831432e-01,1,1,0,2.100000e+00,1
8,795,5,6.115000e+01,21,2,2,1,2.847160e-01,3,1,0,2.300000e+00,1
8,796,5,1.317700e+02,61,3,3,1,5.266552e-01,3,1,0,3.200000e+00,1
8,797,5,1.330500e+02,71,3,0,0,2.500566e+00,2,1,0,3.100000e+00,1
8,798,5,4.838000e+01,4,1,1,1,2.751924e-01,3,1,0,1.300000e+00,1
8,799,5,9.801000e+01,29,3,3,1,2.849632e-01,2,1,0,3.100000e+00,1
8,800,5,1.401400e+02,19,3,3,1,3.192514e-01,3,1,0,3.100000e+00,1
8,801,5,1.330500e+02,71,3,3,1,2.893895e-01,3,1,0,3.100000e+00,1
8,802,5,77,49,2,3,0,3.467896e-01,4,1,0,2.300000e+00,1
8,803,5,5.119000e+01,6,2,2,1,1.252388e+00,2,1,0,2.300000e+00,1
8,804,5,1.956000e+01,18,1,1,1,4.068557e-01,2,1,0,1.200000e+00,1
8,805,5,2.862000e+01,35,1,1,1,3.524695e-01,1,1,0,1.200000e+00,1
8,806,5,6.140000e+01,63,2,2,1,6.266407e-01,1,1,0,2.100000e+00,1
8,807,5,4.360000e+00,59,1,1,1,3.082937e-01,4,1,0,1.300000e+00,1
8,808,5,1.869000e+01,51,1,1,1,6.941205e-01,4,1,0,1.200000e+00,1
8,809,5,1.420700e+02,62,3,3,1,6.084145e-01,2,1,0,3.100000e+00,1
8,810,5,3.337000e+01,23,1,1,1,4.823230e-01,2,1,0,1.300000e+00,1
8,811,5,1.308100e+02,28,3,3,1,1.212237e+00,2,1,0,3.200000e+00,1
8,812,5,2.862000e+01,35,1,1,1,4.778508e-01,2,1,0,1.200000e+00,1
8,813,5,7.024000e+01,15,2,1,0,8.155056e-01,2,1,0,2.100000e+00,1
8,814,5,8.235000e+01,24,2,2,1,1.625367e+00,3,1,0,2.100000e+00,1
8,815,5,9.103000e+01,30,2,3,0,4.512136e-01,3,1,0,2.300000e+00,1
8,816,5,1.432000e+02,67,3,3,1,3.259382e-01,2,1,0,3.100000e+00,1
8,817,5,1.671000e+01,53,1,1,1,3.916890e-01,2,1,0,1.200000e+00,1
8,818,5,1.019600e+02,3,3,3,1,3.135860e-01,3,1,0,3.200000e+00,1
8,819,5,1.019600e+02,3,3,3,1,5.237095e-01,4,1,0,3.200000e+00,1
8,820,5,1.671000e+01,53,1,1,1,3.009515e-01,3,1,0,1.200000e+00,1
8,821,5,9.218000e+01,57,2,3,0,3.191590e-01,1,1,0,2.300000e+00,1
8,822,5,6.548000e+01,32,2,2,1,1.120872e+00,1,1,0,2.100000e+00,1
8,823,5,3.023000e+01,60,1,1,1,1.475020e+00,3,1,0,1.300000e+00,1
8,824,5,8.590000e+00,45,1,1,1,4.125130e-01,2,1,0,1.200000e+00,1
8,825,5,1.128600e+02,34,3,3,1,2.543929e-01,3,1,0,3.200000e+00,1
8,826,5,9.218000e+01,57,2,2,1,3.122914e-01,2,1,0,2.300000e+00,1
8,827,5,1.071700e+02,47,3,3,1,1.226153e+00,3,1,0,3.100000e+00,1
8,828,5,9.988000e+01,22,3,3,1,4.279607e-01,3,1,0,3.200000e+00,1
8,829,5,2.222000e+01,42,1,1,1,7.824426e-01,2,1,0,1.300000e+00,1
8,830,5,4.838000e+01,4,1,1,1,4.550923e-01,4,1,0,1.300000e+00,1
8,831,5,3.337000e+01,23,1,2,0,2.728829e-01,3,1,0,1.300000e+00,1
8,832,5,1.071700e+02,47,3,1,0,7.630419e-01,4,1,0,3.100000e+00,1
8,833,5,1.172300e+02,72,3,3,1,1.132382e+00,3,1,0,3.100000e+00,1
8,834,5,1.330500e+02,71,3,3,1,4.300147e-01,4,1,0,3.100000e+00,1
8,835,5,6.548000e+01,32,2,2,1,3.036872e-01,2,1,0,2.100000e+00,1
8,836,5,6.115000e+01,21,2,2,1,9.294725e-01,4,1,0,2.300000e+00,1
8,837,5,9.710000e+01,48,3,3,1,4.670002e-01,1,1,0,3.100000e+00,1
8,838,5,7.024000e+01,15,2,2,1,3.411182e-01,3,1,0,2.100000e+00,1
8,839,5,9.710000e+01,48,3,3,1,4.148085e-01,2,1,0,3.100000e+00,1
8,840,5,3.841000e+01,46,1,1,1,3.529621e-01,2,1,0,1.300000e+00,1
8,841,5,1.048000e+02,54,3,1,0,4.428982e-01,4,1,0,3.200000e+00,1
8,842,5,1.308100e+02,28,3,3,1,4.609352e-01,3,1,0,3.200000e+00,1
8,843,5,5.325000e+01,25,2,2,1,4.302345e-01,2,1,0,2.100000e+00,1
8,844,5,6.548000e+01,32,2,2,1,3.601458e-01,3,1,0,2.100000e+00,1
8,845,5,5.119000e+01,6,2,2,1,2.582852e-01,3,1,0,2.300000e+00,1
8,846,5,1.172300e+02,72,3,3,1,4.197932e-01,4,1,0,3.100000e+00,1
8,847,5,9.103000e+01,30,2,2,1,2.935683e-01,4,1,0,2.300000e+00,1
8,848,5,2.862000e+01,35,1,1,1,3.118117e-01,3,1,0,1.200000e+00,1
8,849,5,5.119000e+01,6,2,2,1,4.012256e-01,4,1,0,2.300000e+00,1
8,850,5,6.140000e+01,63,2,2,1,5.233626e-01,2,1,0,2.100000e+00,1
8,851,5,1.420700e+02,62,3,3,1,4.211196e-01,3,1,0,3.100000e+00,1
8,852,5,7.024000e+01,15,2,2,1,4.466741e-01,4,1,0,2.100000e+00,1
8,853,5,1.208900e+02,14,3,3,1,3.368190e-01,2,1,0,3.200000e+00,1
8,854,5,8.235000e+01,24,2,2,1,3.779407e-01,4,1,0,2.100000e+00,1
8,855,5,4.927000e+01,10,2,1,0,3.397222e-01,4,1,0,2.100000e+00,1
8,856,5,7.434000e+01,9,2,3,0,1.045607e+00,3,1,0,2.100000e+00,1
8,857,5,4.651000e+01,36,1,1,1,1.183016e+00,1,1,0,1.200000e+00,1
8,858,5,1.435000e+01,56,1,3,0,3.371284e-01,1,1,0,1.300000e+00,1
8,859,5,6.336000e+01,43,2,2,1,9.706823e-01,2,1,0,2.100000e+00,1
8,860,5,1.435000e+01,56,1,1,1,8.121841e-01,2,1,0,1.300000e+00,1
8,861,5,3.841000e+01,46,1,1,1,1.022109e+00,3,1,0,1.300000e+00,1
8,862,5,3.841000e+01,46,1,1,1,4.165764e-01,4,1,0,1.300000e+00,1
8,863,5,3.927000e+01,8,1,1,1,5.778919e-01,2,1,0,1.300000e+00,1
8,864,5,1.558000e+01,12,1,2,0,3.325294e-01,3,1,0,1.200000e+00,1
8,865,5,2.862000e+01,35,1,1,1,5.015489e-01,4,1,0,1.200000e+00,1
8,866,5,1.558000e+01,12,1,1,1,5.672741e-01,4,1,0,1.200000e+00,1
8,867,5,1.432000e+02,67,3,3,1,4.816985e-01,3,1,0,3.100000e+00,1
8,868,5,8.009000e+01,69,2,2,1,5.391098e-01,2,1,0,2.300000e+00,1
8,869,5,1.107800e+02,16,3,3,1,5.090441e-01,4,1,0,3.200000e+00,1
8,870,5,3.439000e+01,11,1,1,1,6.149945e-01,3,1,0,1.300000e+00,1
8,871,5,1.401400e+02,19,3,3,1,4.086487e-01,4,1,0,3.100000e+00,1
8,872,5,5.325000e+01,25,2,2,1,1.066719e+00,3,1,0,2.100000e+00,1
8,873,5,6.336000e+01,43,2,2,1,5.725084e-01,3,1,0,2.100000e+00,1
8,874,5,9.710000e+01,48,3,0,0,2.500098e+00,3,1,0,3.100000e+00,1
8,875,5,9.218000e+01,57,2,1,0,5.605555e-01,3,1,0,2.300000e+00,1
8,876,5,1.128600e+02,34,3,3,1,6.904201e-01,4,1,0,3.200000e+00,1
8,877,5,4.651000e+01,36,1,2,0,1.020886e+00,2,1,0,1.200000e+00,1
8,878,5,7.434000e+01,9,2,3,0,4.301050e-01,4,1,0,2.100000e+00,1
8,879,5,1.029000e+01,64,1,3,0,4.556456e-01,2,1,0,1.300000e+00,1
8,880,5,2.222000e+01,42,1,2,0,1.064946e+00,3,1,0,1.300000e+00,1
8,881,5,5.325000e+01,25,2,2,1,4.348223e-01,4,1,0,2.100000e+00,1
8,882,5,1.308100e+02,28,3,3,1,3.649341e-01,4,1,0,3.200000e+00,1
8,883,5,4.651000e+01,36,1,1,1,5.185385e-01,3,1,0,1.200000e+00,1
8,884,5,1.956000e+01,18,1,1,1,3.364860e-01,3,1,0,1.200000e+00,1
8,885,5,1.317700e+02,61,3,2,0,4.024789e-01,4,1,0,3.200000e+00,1
8,886,5,1.435000e+01,56,1,1,1,5.804980e-01,3,1,0,1.300000e+00,1
8,887,5,4.368000e+01,41,1,1,1,6.140884e-01,4,1,0,1.200000e+00,1
8,888,5,1.208900e+02,14,3,2,0,4.956907e-01,3,1,0,3.200000e+00,1
8,889,5,4.034000e+01,38,1,1,1,2.973121e-01,3,1,0,1.300000e+00,1
8,890,5,4.034000e+01,38,1,1,1,2.910246e-01,4,1,0,1.300000e+00,1
8,891,5,1.448400e+02,52,3,3,1,3.571883e-01,3,1,0,3.200000e+00,1
8,892,5,6.548000e+01,32,2,2,1,4.067597e-01,4,1,0,2.100000e+00,1
8,893,5,1.029000e+01,64,1,1,1,4.321476e-01,3,1,0,1.300000e+00,1
8,894,5,3.337000e+01,23,1,0,0,2.500315e+00,4,1,0,1.300000e+00,1
8,895,5,8.009000e+01,69,2,1,0,6.203475e-01,3,1,0,2.300000e+00,1
8,896,5,8.009000e+01,69,2,2,1,4.699415e-01,4,1,0,2.300000e+00,1
8,897,5,1.420700e+02,62,3,1,0,6.476023e-01,4,1,0,3.100000e+00,1
8,898,5,1.242200e+02,50,3,3,1,3.535366e-01,3,1,0,3.100000e+00,1
8,899,5,8.590000e+00,45,1,1,1,5.474701e-01,3,1,0,1.200000e+00,1
8,900,5,6.140000e+01,63,2,2,1,1.364527e+00,3,1,0,2.100000e+00,1
8,901,5,9.801000e+01,29,3,3,1,3.902383e-01,3,1,0,3.100000e+00,1
8,902,5,2.222000e+01,42,1,1,1,5.527117e-01,4,1,0,1.300000e+00,1
8,903,5,3.023000e+01,60,1,1,1,5.544283e-01,4,1,0,1.300000e+00,1
8,904,5,1.448400e+02,52,3,3,1,4.839171e-01,4,1,0,3.200000e+00,1
8,905,5,1.242200e+02,50,3,3,1,5.345244e-01,4,1,0,3.100000e+00,1
8,906,5,1.435000e+01,56,1,1,1,4.158973e-01,4,1,0,1.300000e+00,1
8,907,5,9.988000e+01,22,3,3,1,5.135393e-01,4,1,0,3.200000e+00,1
8,908,5,8.590000e+00,45,1,1,1,5.796013e-01,4,1,0,1.200000e+00,1
8,909,5,3.927000e+01,8,1,1,1,5.648647e-01,3,1,0,1.300000e+00,1
8,910,5,1.956000e+01,18,1,1,1,6.148246e-01,4,1,0,1.200000e+00,1
8,911,5,6.336000e+01,43,2,2,1,6.407685e-01,4,1,0,2.100000e+00,1
8,912,5,9.218000e+01,57,2,1,0,9.064269e-01,4,1,0,2.300000e+00,1
8,913,5,9.801000e+01,29,3,3,1,5.716986e-01,4,1,0,3.100000e+00,1
8,914,5,1.029000e+01,64,1,1,1,3.814968e-01,4,1,0,1.300000e+00,1
8,915,5,6.140000e+01,63,2,2,1,4.075681e-01,4,1,0,2.100000e+00,1
8,916,5,1.671000e+01,53,1,1,1,1.297244e+00,4,1,0,1.200000e+00,1
8,917,5,3.927000e+01,8,1,1,1,8.279194e-02,4,1,0,1.300000e+00,1
8,918,5,8.408000e+01,58,2,2,1,7.083309e-01,4,1,0,2.300000e+00,1
8,919,5,4.651000e+01,36,1,1,1,3.822647e-01,4,1,0,1.200000e+00,1
8,920,5,9.345000e+01,39,2,2,1,4.399576e-01,3,1,0,2.100000e+00,1
8,921,5,1.208900e+02,14,3,0,0,2.500043e+00,4,1,0,3.200000e+00,1
8,922,5,3.439000e+01,11,1,0,0,2.500625e+00,4,1,0,1.300000e+00,1
8,923,5,1.432000e+02,67,3,0,0,2.500113e+00,4,1,0,3.100000e+00,1
8,924,5,9.710000e+01,48,3,3,1,3.130671e-01,4,1,0,3.100000e+00,1
8,925,5,9.345000e+01,39,2,0,0,2.500196e+00,4,1,0,2.100000e+00,1
8,926,6,100,49,2,2,1,2.968881e+00,NaN,2,0,3,1
8,927,6,62,35,2,2,1,9.772065e-01,NaN,2,0,2,1
8,928,6,119,6,2,1,0,1.504198e+00,NaN,2,0,3,1
8,929,6,69,51,1,1,1,7.785998e-01,NaN,2,0,2,1
8,930,6,135,56,2,2,1,7.935893e-01,NaN,2,0,3,1
8,931,6,71,53,2,2,1,5.679740e-01,NaN,2,0,2,1
8,932,6,25,25,1,1,1,1.328149e+00,NaN,2,0,1,1
8,933,6,78,16,1,1,1,8.333503e-01,NaN,2,0,2,1
8,934,6,75,40,1,1,1,6.865610e-01,NaN,2,1,2,1
8,935,6,129,64,1,1,1,1.161620e+00,NaN,2,0,3,1
8,936,6,58,12,1,1,1,8.977790e-01,NaN,2,0,2,1
8,937,6,136,59,1,1,1,1.284240e+00,NaN,2,0,3,1
8,938,6,138,4,1,1,1,1.599924e+00,NaN,2,0,3,1
8,939,6,116,2,1,2,0,8.537854e-01,NaN,2,1,3,1
8,940,6,96,3,1,1,1,8.977488e-01,NaN,2,0,2,1
8,941,6,84,52,2,2,1,8.682367e-01,NaN,2,0,2,1
8,942,6,48,32,1,1,1,1.248322e+00,NaN,2,0,1,1
8,943,6,57,13,1,1,1,7.169113e-01,NaN,2,1,2,1
8,944,6,7,62,2,2,1,1.022646e+00,NaN,2,0,1,1
8,945,6,121,17,1,1,1,1.196292e+00,NaN,2,1,3,1
8,946,6,115,21,1,1,1,1.242338e+00,NaN,2,0,3,1
8,947,6,30,27,1,1,1,1.503529e+00,NaN,2,1,1,1
8,948,6,1,29,1,1,1,7.220309e-01,NaN,2,0,1,1
8,949,6,20,67,2,2,1,1.099304e+00,NaN,2,0,1,1
8,950,6,64,37,1,1,1,7.259308e-01,NaN,2,1,2,1
8,951,6,10,48,2,1,0,8.950747e-01,NaN,2,0,1,1
8,952,6,68,41,2,2,1,7.862541e-01,NaN,2,0,2,1
8,953,6,139,11,2,2,1,7.054383e-01,NaN,2,0,3,1
8,954,6,80,54,2,1,0,6.517730e-01,NaN,2,0,2,1
8,955,6,128,66,1,1,1,1.272062e+00,NaN,2,1,3,1
8,956,6,59,45,1,1,1,8.755680e-01,NaN,2,0,2,1
8,957,6,95,68,1,1,1,7.029604e-01,NaN,2,1,2,1
8,958,6,44,55,1,1,1,8.738176e-01,NaN,2,1,1,1
8,959,6,123,60,2,1,0,1.084875e+00,NaN,2,0,3,1
8,960,6,24,15,2,1,0,1.688073e+00,NaN,2,0,1,1
8,961,6,89,14,1,1,1,1.211090e+00,NaN,2,0,2,1
8,962,6,134,38,1,2,0,1.712770e+00,NaN,2,0,3,1
8,963,6,77,61,1,1,1,8.346283e-01,NaN,2,0,2,1
8,964,6,103,30,2,1,0,1.223654e+00,NaN,2,0,3,1
8,965,6,2,5,1,1,1,1.093497e+00,NaN,2,1,1,1
8,966,6,54,1,2,2,1,1.120006e+00,NaN,2,1,2,1
8,967,6,45,39,2,2,1,1.242116e+00,NaN,2,0,1,1
8,968,6,27,10,2,1,0,1.222900e+00,NaN,2,0,1,1
8,969,6,137,23,1,1,1,1.452531e+00,NaN,2,0,3,1
8,970,6,114,33,1,1,1,1.017038e+00,NaN,2,1,3,1
8,971,6,109,69,1,1,1,1.207411e+00,NaN,2,0,3,1
8,972,6,56,18,2,2,1,7.090563e-01,NaN,2,0,2,1
8,973,6,108,58,1,2,0,1.567950e+00,NaN,2,0,3,1
8,974,6,14,19,2,2,1,1.287296e+00,NaN,2,0,1,1
8,975,6,17,47,2,1,0,1.226035e+00,NaN,2,0,1,1
8,976,6,22,50,1,1,1,7.996893e-01,NaN,2,0,1,1
8,977,6,23,72,2,2,1,1.182423e+00,NaN,2,0,1,1
8,978,6,4,70,2,2,1,1.118171e+00,NaN,2,1,1,1
8,979,6,6,65,2,1,0,8.232196e-01,NaN,2,0,1,1
8,980,6,86,34,1,2,0,1.068409e+00,NaN,2,0,2,1
8,981,6,36,43,2,1,0,1.016487e+00,NaN,2,0,1,1
8,982,6,94,44,2,2,1,6.861161e-01,NaN,2,1,2,1
8,983,6,127,8,1,1,1,1.417465e+00,NaN,2,0,3,1
8,984,6,34,9,2,1,0,1.182950e+00,NaN,2,0,1,1
8,985,6,141,46,1,1,1,7.661962e-01,NaN,2,0,3,1
8,986,6,51,36,1,1,1,8.700874e-01,NaN,2,0,2,1
8,987,6,35,24,1,1,1,8.099845e-01,NaN,2,0,1,1
8,988,6,88,22,2,1,0,6.643407e-01,NaN,2,0,2,1
8,989,6,106,20,1,1,1,1.051912e+00,NaN,2,1,3,1
8,990,6,118,57,1,1,1,1.336587e+00,NaN,2,0,3,1
8,991,6,81,28,2,2,1,7.216732e-01,NaN,2,0,2,1
8,992,6,5,71,1,1,1,8.906858e-01,NaN,2,0,1,1
8,993,6,41,7,2,2,1,9.336181e-01,NaN,2,1,1,1
8,994,6,122,42,1,1,1,7.909499e-01,NaN,2,0,3,1
8,995,6,105,26,2,2,1,1.245582e+00,NaN,2,1,3,1
8,996,6,40,63,1,1,1,9.621910e-01,NaN,2,0,1,1
8,997,6,72,31,1,2,0,6.978474e-01,NaN,2,1,2,1
8,998,6,55,33,1,1,1,7.562201e-01,NaN,1,1,2,1
8,999,6,83,58,2,2,1,7.246308e-01,NaN,1,0,2,1
8,1000,6,28,35,2,2,1,1.438288e+00,NaN,1,0,1,1
8,1001,6,104,54,2,2,1,1.091037e+00,NaN,1,0,3,1
8,1002,6,90,30,2,2,1,1.077879e+00,NaN,1,0,2,1
8,1003,6,82,24,1,2,0,7.211610e-01,NaN,1,0,2,1
8,1004,6,140,19,2,2,1,1.002857e+00,NaN,1,0,3,1
8,1005,6,21,42,2,2,1,1.009109e+00,NaN,1,0,1,1
8,1006,6,60,21,2,2,1,1.158913e+00,NaN,1,0,2,1
8,1007,6,79,69,1,1,1,1.679243e+00,NaN,1,0,2,1
8,1008,6,3,59,2,2,1,1.746239e+00,NaN,1,0,1,1
8,1009,6,61,63,1,1,1,6.747880e-01,NaN,1,0,2,1
8,1010,6,125,68,2,2,1,1.270407e+00,NaN,1,1,3,1
8,1011,6,67,26,2,2,1,1.161877e+00,NaN,1,1,2,1
8,1012,6,73,17,1,1,1,1.026523e+00,NaN,1,1,2,1
8,1013,6,16,53,1,1,1,1.247921e+00,NaN,1,0,1,1
8,1014,6,53,25,2,2,1,1.300341e+00,NaN,1,0,2,1
8,1015,6,98,29,2,2,1,1.158664e+00,NaN,1,0,3,1
8,1016,6,31,13,1,1,1,1.054795e+00,NaN,1,1,1,1
8,1017,6,87,55,1,1,1,1.571218e+00,NaN,1,1,2,1
8,1018,6,101,3,2,2,1,1.713967e+00,NaN,1,0,3,1
8,1019,6,74,9,1,1,1,9.400652e-01,NaN,1,0,2,1
8,1020,6,26,31,1,1,1,1.276621e+00,NaN,1,1,1,1
8,1021,6,52,27,1,1,1,6.485323e-01,NaN,1,1,2,1
8,1022,6,126,44,1,1,1,1.285045e+00,NaN,1,1,3,1
8,1023,6,112,34,2,2,1,1.072007e+00,NaN,1,0,3,1
8,1024,6,97,48,1,1,1,1.988062e+00,NaN,1,0,3,1
8,1025,6,33,11,2,1,0,8.263881e-01,NaN,1,0,1,1
8,1026,6,11,37,2,2,1,1.135552e+00,NaN,1,1,1,1
8,1027,6,12,1,1,1,1,1.264728e+00,NaN,1,1,1,1
8,1028,6,38,8,2,2,1,8.286855e-01,NaN,1,0,1,1
8,1029,6,144,52,2,2,1,1.050074e+00,NaN,1,0,3,1
8,1030,6,99,22,2,2,1,1.927157e+00,NaN,1,0,3,1
8,1031,6,70,15,2,1,0,1.120534e+00,NaN,1,0,2,1
8,1032,6,8,45,1,1,1,9.379164e-01,NaN,1,0,1,1
8,1033,6,120,14,2,1,0,1.378744e+00,NaN,1,0,3,1
8,1034,6,49,10,2,2,1,7.783124e-01,NaN,1,0,2,1
8,1035,6,143,67,1,1,1,1.377700e+00,NaN,1,0,3,1
8,1036,6,13,56,1,1,1,9.211828e-01,NaN,1,0,1,1
8,1037,6,47,4,1,1,1,1.066651e+00,NaN,1,0,1,1
8,1038,6,43,41,1,1,1,1.062729e+00,NaN,1,0,1,1
8,1039,6,63,43,2,2,1,9.387631e-01,NaN,1,0,2,1
8,1040,6,93,39,2,2,1,9.069817e-01,NaN,1,0,2,1
8,1041,6,131,61,1,1,1,9.732197e-01,NaN,1,0,3,1
8,1042,6,39,38,1,2,0,1.260766e+00,NaN,1,0,1,1
8,1043,6,91,57,2,2,1,9.611907e-01,NaN,1,0,2,1
8,1044,6,92,2,2,2,1,7.609890e-01,NaN,1,1,2,1
8,1045,6,124,50,2,2,1,8.332742e-01,NaN,1,0,3,1
8,1046,6,130,28,2,2,1,2.078114e+00,NaN,1,0,3,1
8,1047,6,15,12,2,2,1,2.137958e+00,NaN,1,0,1,1
8,1048,6,19,18,1,1,1,9.065293e-01,NaN,1,0,1,1
8,1049,6,133,71,2,2,1,1.084877e+00,NaN,1,0,3,1
8,1050,6,76,49,1,1,1,1.007435e+00,NaN,1,0,2,1
8,1051,6,85,20,1,1,1,6.376129e-01,NaN,1,1,2,1
8,1052,6,18,51,1,1,1,7.231900e-01,NaN,1,0,1,1
8,1053,6,66,7,2,2,1,6.921875e-01,NaN,1,1,2,1
8,1054,6,29,60,1,1,1,1.095208e+00,NaN,1,0,1,1
8,1055,6,32,23,1,1,1,1.058121e+00,NaN,1,0,1,1
8,1056,6,65,32,1,1,1,6.458042e-01,NaN,1,0,2,1
8,1057,6,132,5,1,1,1,1.474549e+00,NaN,1,1,3,1
8,1058,6,46,36,1,1,1,7.579977e-01,NaN,1,0,1,1
8,1059,6,142,62,1,1,1,1.110144e+00,NaN,1,0,3,1
8,1060,6,107,47,2,2,1,1.088321e+00,NaN,1,0,3,1
8,1061,6,102,40,1,1,1,7.464487e-01,NaN,1,1,3,1
8,1062,6,113,65,1,1,1,1.140155e+00,NaN,1,0,3,1
8,1063,6,9,64,2,1,0,1.100304e+00,NaN,1,0,1,1
8,1064,6,50,6,2,2,1,7.751557e-01,NaN,1,0,2,1
8,1065,6,111,70,2,2,1,9.747434e-01,NaN,1,1,3,1
8,1066,6,110,16,1,1,1,1.174029e+00,NaN,1,0,3,1
8,1067,6,37,46,2,1,0,9.253803e-01,NaN,1,0,1,1
8,1068,6,42,66,2,2,1,9.748017e-01,NaN,1,1,1,1
8,1069,6,117,72,1,1,1,1.182187e+00,NaN,1,0,3,1
