Subject,Trial,Cond,ImageNum,CueNum,Correct,Resp,Accuracy,RT,CueRep,ImageType,Baseline,Category,Block
31,1,1,120,NaN,NaN,2,NaN,2.805859e+00,NaN,1,0,3,1
31,2,1,14,NaN,NaN,2,NaN,4.121565e-01,NaN,2,0,1,1
31,3,1,110,NaN,NaN,2,NaN,3.494218e-01,NaN,1,0,3,1
31,4,1,23,NaN,NaN,2,NaN,3.688566e-01,NaN,0,0,1,1
31,5,1,87,NaN,NaN,1,NaN,1.099714e+00,NaN,2,0,2,1
31,6,1,124,NaN,NaN,2,NaN,7.455944e-01,NaN,0,0,3,1
31,7,1,49,NaN,NaN,1,NaN,5.251770e-01,NaN,0,0,2,1
31,8,1,101,NaN,NaN,2,NaN,6.103020e-01,NaN,0,0,3,1
31,9,1,99,NaN,NaN,2,NaN,5.801971e-01,NaN,2,0,3,1
31,10,1,132,NaN,NaN,2,NaN,6.704504e-01,NaN,2,0,3,1
31,11,1,140,NaN,NaN,1,NaN,5.654732e-01,NaN,1,0,3,1
31,12,1,102,NaN,NaN,2,NaN,4.649389e-01,NaN,1,0,3,1
31,13,1,119,NaN,NaN,2,NaN,2.831634e+00,NaN,0,0,3,1
31,14,1,80,NaN,NaN,1,NaN,6.876513e-01,NaN,0,0,2,1
31,15,1,109,NaN,NaN,1,NaN,6.935364e-01,NaN,0,0,3,1
31,16,1,14,NaN,NaN,1,NaN,5.233723e-01,NaN,0,0,1,1
31,17,1,38,NaN,NaN,1,NaN,5.686677e-01,NaN,0,0,1,1
31,18,1,39,NaN,NaN,2,NaN,7.074438e-01,NaN,0,0,1,1
31,19,1,118,NaN,NaN,1,NaN,6.168771e-01,NaN,0,0,3,1
31,20,1,8,NaN,NaN,2,NaN,6.416517e-01,NaN,0,0,1,1
31,21,1,84,NaN,NaN,2,NaN,1.033404e+00,NaN,1,0,2,1
31,22,1,144,NaN,NaN,1,NaN,4.898502e-01,NaN,2,0,3,1
31,23,1,43,NaN,NaN,2,NaN,6.554778e-01,NaN,2,1,1,1
31,24,1,72,NaN,NaN,1,NaN,4.787600e-01,NaN,1,0,2,1
31,25,1,123,NaN,NaN,2,NaN,5.414615e-01,NaN,0,0,3,1
31,26,1,19,NaN,NaN,2,NaN,5.450489e-01,NaN,1,0,1,1
31,27,1,136,NaN,NaN,2,NaN,5.339479e-01,NaN,2,1,3,1
31,28,1,36,NaN,NaN,2,NaN,6.408904e-01,NaN,2,0,1,1
31,29,1,81,NaN,NaN,1,NaN,5.934120e-01,NaN,0,0,2,1
31,30,1,21,NaN,NaN,2,NaN,9.071858e-01,NaN,2,1,1,1
31,31,1,71,NaN,NaN,1,NaN,6.242990e-01,NaN,0,0,2,1
31,32,1,92,NaN,NaN,1,NaN,5.692201e-01,NaN,0,1,2,1
31,33,1,50,NaN,NaN,2,NaN,1.436261e+00,NaN,1,1,2,1
31,34,1,22,NaN,NaN,2,NaN,7.804094e-01,NaN,0,0,1,1
31,35,1,19,NaN,NaN,2,NaN,5.987225e-01,NaN,0,0,1,1
31,36,1,57,NaN,NaN,1,NaN,5.843007e-01,NaN,2,0,2,1
31,37,1,133,NaN,NaN,2,NaN,6.341540e-01,NaN,0,0,3,1
31,38,1,116,NaN,NaN,1,NaN,6.909583e-01,NaN,2,0,3,1
31,39,1,10,NaN,NaN,2,NaN,7.043713e-01,NaN,1,1,1,1
31,40,1,55,NaN,NaN,1,NaN,3.340275e-01,NaN,0,0,2,1
31,41,1,76,NaN,NaN,1,NaN,3.784445e-01,NaN,0,1,2,1
31,42,1,101,NaN,NaN,1,NaN,1.892915e+00,NaN,1,0,3,1
31,43,1,114,NaN,NaN,1,NaN,4.104571e-01,NaN,0,0,3,1
31,44,1,83,NaN,NaN,1,NaN,4.279598e-01,NaN,1,1,2,1
31,45,1,76,NaN,NaN,1,NaN,3.645878e-01,NaN,2,1,2,1
31,46,1,132,NaN,NaN,2,NaN,1.735412e+00,NaN,0,0,3,1
31,47,1,6,NaN,NaN,2,NaN,9.159358e-01,NaN,0,0,1,1
31,48,1,111,NaN,NaN,2,NaN,9.775684e-01,NaN,0,0,3,1
31,49,1,142,NaN,NaN,2,NaN,9.322869e-01,NaN,1,1,3,1
31,50,1,118,NaN,NaN,1,NaN,4.488102e-01,NaN,2,0,3,1
31,51,1,93,NaN,NaN,1,NaN,4.564452e-01,NaN,0,0,2,1
31,52,1,137,NaN,NaN,1,NaN,3.437235e-01,NaN,1,0,3,1
31,53,1,131,NaN,NaN,2,NaN,5.719548e-01,NaN,0,0,3,1
31,54,1,37,NaN,NaN,2,NaN,7.027836e-01,NaN,0,0,1,1
31,55,1,68,NaN,NaN,1,NaN,4.684573e-01,NaN,0,0,2,1
31,56,1,129,NaN,NaN,2,NaN,3.640771e-01,NaN,1,0,3,1
31,57,1,72,NaN,NaN,1,NaN,3.506811e-01,NaN,0,0,2,1
31,58,1,94,NaN,NaN,1,NaN,4.825901e-01,NaN,1,0,2,1
31,59,1,127,NaN,NaN,1,NaN,1.337580e+00,NaN,1,0,3,1
31,60,1,136,NaN,NaN,2,NaN,5.818232e-01,NaN,0,1,3,1
31,61,1,135,NaN,NaN,2,NaN,6.803091e-01,NaN,1,1,3,1
31,62,1,79,NaN,NaN,1,NaN,6.943043e-01,NaN,0,0,2,1
31,63,1,139,NaN,NaN,2,NaN,9.009218e-01,NaN,0,0,3,1
31,64,1,25,NaN,NaN,2,NaN,7.063922e-01,NaN,2,0,1,1
31,65,1,41,NaN,NaN,2,NaN,5.673885e-01,NaN,2,1,1,1
31,66,1,15,NaN,NaN,2,NaN,5.060202e-01,NaN,2,0,1,1
31,67,1,26,NaN,NaN,2,NaN,4.234906e-01,NaN,1,0,1,1
31,68,1,75,NaN,NaN,1,NaN,4.083342e-01,NaN,0,0,2,1
31,69,1,20,NaN,NaN,2,NaN,4.414802e-01,NaN,2,0,1,1
31,70,1,90,NaN,NaN,1,NaN,3.218859e-01,NaN,2,1,2,1
31,71,1,131,NaN,NaN,2,NaN,5.263431e-01,NaN,2,0,3,1
31,72,1,115,NaN,NaN,2,NaN,4.346285e-01,NaN,0,0,3,1
31,73,1,27,NaN,NaN,1,NaN,6.195416e-01,NaN,2,0,1,1
31,74,1,97,NaN,NaN,2,NaN,5.963641e-01,NaN,2,0,3,1
31,75,1,56,NaN,NaN,1,NaN,4.620813e-01,NaN,0,0,2,1
31,76,1,12,NaN,NaN,2,NaN,3.405133e-01,NaN,0,0,1,1
31,77,1,68,NaN,NaN,1,NaN,3.208126e-01,NaN,1,0,2,1
31,78,1,135,NaN,NaN,1,NaN,4.934114e-01,NaN,0,1,3,1
31,79,1,66,NaN,NaN,1,NaN,3.070480e-01,NaN,1,0,2,1
31,80,1,130,NaN,NaN,2,NaN,3.366717e-01,NaN,2,1,3,1
31,81,1,90,NaN,NaN,1,NaN,3.968114e-01,NaN,0,1,2,1
31,82,1,66,NaN,NaN,1,NaN,5.020280e-01,NaN,0,0,2,1
31,83,1,4,NaN,NaN,1,NaN,3.402259e-01,NaN,1,1,1,1
31,84,1,61,NaN,NaN,1,NaN,4.242123e-01,NaN,1,0,2,1
31,85,1,99,NaN,NaN,2,NaN,3.683148e-01,NaN,0,0,3,1
31,86,1,21,NaN,NaN,1,NaN,5.157591e-01,NaN,0,1,1,1
31,87,1,44,NaN,NaN,2,NaN,3.845651e-01,NaN,1,0,1,1
31,88,1,125,NaN,NaN,2,NaN,4.273769e-01,NaN,0,0,3,1
31,89,1,94,NaN,NaN,1,NaN,3.561131e-01,NaN,0,0,2,1
31,90,1,100,NaN,NaN,2,NaN,7.511799e-01,NaN,0,0,3,1
31,91,1,10,NaN,NaN,1,NaN,2.034938e+00,NaN,0,1,1,1
31,92,1,3,NaN,NaN,2,NaN,6.269359e-01,NaN,0,0,1,1
31,93,1,114,NaN,NaN,1,NaN,4.117620e-01,NaN,2,0,3,1
31,94,1,67,NaN,NaN,2,NaN,5.645423e-01,NaN,2,1,2,1
31,95,1,56,NaN,NaN,1,NaN,5.836122e-01,NaN,2,0,2,1
31,96,1,134,NaN,NaN,2,NaN,4.096901e-01,NaN,0,0,3,1
31,97,1,82,NaN,NaN,1,NaN,4.835099e-01,NaN,0,0,2,1
31,98,1,45,NaN,NaN,2,NaN,4.572967e-01,NaN,2,0,1,1
31,99,1,78,NaN,NaN,2,NaN,6.815893e-01,NaN,0,1,2,1
31,100,1,47,NaN,NaN,2,NaN,1.374892e+00,NaN,0,0,1,1
31,101,1,9,NaN,NaN,1,NaN,4.493711e-01,NaN,0,0,1,1
31,102,1,85,NaN,NaN,1,NaN,2.571632e-01,NaN,0,0,2,1
31,103,1,65,NaN,NaN,2,NaN,1.753070e+00,NaN,0,0,2,1
31,104,1,103,NaN,NaN,2,NaN,5.638429e-01,NaN,1,0,3,1
31,105,1,75,NaN,NaN,1,NaN,3.827634e-01,NaN,2,0,2,1
31,106,1,143,NaN,NaN,2,NaN,1.136970e+00,NaN,0,0,3,1
31,107,1,104,NaN,NaN,2,NaN,5.809481e-01,NaN,0,1,3,1
31,108,1,38,NaN,NaN,1,NaN,5.593188e-01,NaN,1,0,1,1
31,109,1,88,NaN,NaN,2,NaN,1.202877e+00,NaN,0,0,2,1
31,110,1,139,NaN,NaN,1,NaN,5.407576e-01,NaN,1,0,3,1
31,111,1,41,NaN,NaN,2,NaN,4.166223e-01,NaN,0,1,1,1
31,112,1,142,NaN,NaN,2,NaN,1.657574e+00,NaN,0,1,3,1
31,113,1,106,NaN,NaN,2,NaN,6.971157e-01,NaN,1,1,3,1
31,114,1,64,NaN,NaN,1,NaN,5.507789e-01,NaN,1,0,2,1
31,115,1,18,NaN,NaN,1,NaN,4.423634e-01,NaN,2,1,1,1
31,116,1,20,NaN,NaN,2,NaN,7.140301e-01,NaN,0,0,1,1
31,117,1,2,NaN,NaN,2,NaN,7.111399e-01,NaN,0,1,1,1
31,118,1,58,NaN,NaN,2,NaN,3.402875e-01,NaN,0,0,2,1
31,119,1,128,NaN,NaN,2,NaN,1.112389e+00,NaN,0,1,3,1
31,120,1,104,NaN,NaN,2,NaN,5.172532e-01,NaN,1,1,3,1
31,121,1,100,NaN,NaN,2,NaN,4.898677e-01,NaN,1,0,3,1
31,122,1,12,NaN,NaN,1,NaN,5.671041e-01,NaN,2,0,1,1
31,123,1,79,NaN,NaN,1,NaN,4.903292e-01,NaN,1,0,2,1
31,124,1,59,NaN,NaN,1,NaN,4.000273e-01,NaN,0,0,2,1
31,125,1,43,NaN,NaN,2,NaN,7.376610e-01,NaN,0,1,1,1
31,126,1,86,NaN,NaN,1,NaN,2.013793e+00,NaN,0,1,2,1
31,127,1,103,NaN,NaN,1,NaN,5.661509e-01,NaN,0,0,3,1
31,128,1,49,NaN,NaN,1,NaN,2.735080e-01,NaN,2,0,2,1
31,129,1,105,NaN,NaN,2,NaN,5.602193e-01,NaN,2,1,3,1
31,130,1,107,NaN,NaN,2,NaN,5.314344e-01,NaN,2,0,3,1
31,131,1,48,NaN,NaN,2,NaN,4.798065e-01,NaN,2,1,1,1
31,132,1,69,NaN,NaN,1,NaN,7.099208e-01,NaN,0,1,2,1
31,133,1,7,NaN,NaN,2,NaN,4.988951e-01,NaN,0,0,1,1
31,134,1,7,NaN,NaN,1,NaN,3.127755e-01,NaN,2,0,1,1
31,135,1,96,NaN,NaN,1,NaN,3.577483e-01,NaN,0,0,2,1
31,136,1,51,NaN,NaN,1,NaN,3.934883e-01,NaN,0,0,2,1
31,137,1,95,NaN,NaN,1,NaN,1.386989e+00,NaN,1,0,2,1
31,138,1,64,NaN,NaN,1,NaN,4.690767e-01,NaN,0,0,2,1
31,139,1,24,NaN,NaN,2,NaN,3.725624e-01,NaN,1,0,1,1
31,140,1,11,NaN,NaN,2,NaN,8.467183e-01,NaN,0,0,1,1
31,141,1,63,NaN,NaN,1,NaN,3.259660e-01,NaN,2,0,2,1
31,142,1,32,NaN,NaN,2,NaN,3.784638e-01,NaN,2,1,1,1
31,143,1,17,NaN,NaN,2,NaN,5.645912e-01,NaN,0,0,1,1
31,144,1,46,NaN,NaN,2,NaN,5.428415e-01,NaN,0,0,1,1
31,145,1,13,NaN,NaN,2,NaN,4.513171e-01,NaN,0,1,1,1
31,146,1,45,NaN,NaN,2,NaN,3.630686e-01,NaN,0,0,1,1
31,147,1,28,NaN,NaN,2,NaN,4.620092e-01,NaN,0,0,1,1
31,148,1,42,NaN,NaN,2,NaN,7.007096e-01,NaN,0,0,1,1
31,149,1,109,NaN,NaN,1,NaN,4.663528e-01,NaN,2,0,3,1
31,150,1,128,NaN,NaN,2,NaN,7.695917e-01,NaN,2,1,3,1
31,151,1,27,NaN,NaN,1,NaN,3.959692e-01,NaN,0,0,1,1
31,152,1,73,NaN,NaN,2,NaN,6.940647e-01,NaN,0,0,2,1
31,153,1,84,NaN,NaN,1,NaN,4.677950e-01,NaN,0,0,2,1
31,154,1,121,NaN,NaN,2,NaN,4.825699e-01,NaN,1,0,3,1
31,155,1,5,NaN,NaN,2,NaN,9.051401e-01,NaN,0,0,1,1
31,156,1,112,NaN,NaN,1,NaN,4.299347e-01,NaN,1,1,3,1
31,157,1,58,NaN,NaN,1,NaN,4.624547e-01,NaN,1,0,2,1
31,158,1,78,NaN,NaN,1,NaN,4.136699e-01,NaN,1,1,2,1
31,159,1,126,NaN,NaN,2,NaN,1.062280e+00,NaN,0,0,3,1
31,160,1,54,NaN,NaN,1,NaN,5.172526e-01,NaN,1,0,2,1
31,161,1,6,NaN,NaN,2,NaN,4.590254e-01,NaN,2,0,1,1
31,162,1,115,NaN,NaN,2,NaN,6.422125e-01,NaN,2,0,3,1
31,163,1,1,NaN,NaN,2,NaN,7.777371e-01,NaN,0,0,1,1
31,164,1,48,NaN,NaN,1,NaN,1.308343e+00,NaN,0,1,1,1
31,165,1,117,NaN,NaN,2,NaN,6.010567e-01,NaN,0,0,3,1
31,166,1,96,NaN,NaN,1,NaN,4.669526e-01,NaN,2,0,2,1
31,167,1,113,NaN,NaN,2,NaN,8.586425e-01,NaN,0,0,3,1
31,168,1,105,NaN,NaN,2,NaN,4.581178e-01,NaN,0,1,3,1
31,169,1,122,NaN,NaN,2,NaN,9.459932e-01,NaN,0,0,3,1
31,170,1,81,NaN,NaN,1,NaN,3.493388e-01,NaN,1,0,2,1
31,171,1,141,NaN,NaN,2,NaN,5.610717e-01,NaN,0,0,3,1
31,172,1,34,NaN,NaN,2,NaN,4.201497e-01,NaN,1,1,1,1
31,173,1,98,NaN,NaN,2,NaN,3.248329e-01,NaN,1,0,3,1
31,174,1,35,NaN,NaN,2,NaN,3.345116e+00,NaN,1,1,1,1
31,175,1,95,NaN,NaN,1,NaN,8.035750e-01,NaN,0,0,2,1
31,176,1,83,NaN,NaN,1,NaN,5.647732e-01,NaN,0,1,2,1
31,177,1,122,NaN,NaN,2,NaN,8.720651e-01,NaN,1,0,3,1
31,178,1,73,NaN,NaN,1,NaN,5.346282e-01,NaN,2,0,2,1
31,179,1,4,NaN,NaN,1,NaN,3.710036e-01,NaN,0,1,1,1
31,180,1,116,NaN,NaN,1,NaN,3.979104e-01,NaN,0,0,3,1
31,181,1,126,NaN,NaN,2,NaN,6.395091e-01,NaN,1,0,3,1
31,182,1,40,NaN,NaN,2,NaN,5.030968e-01,NaN,1,0,1,1
31,183,1,80,NaN,NaN,1,NaN,4.769359e-01,NaN,1,0,2,1
31,184,1,106,NaN,NaN,2,NaN,1.075647e+00,NaN,0,1,3,1
31,185,1,91,NaN,NaN,1,NaN,1.866288e+00,NaN,0,0,2,1
31,186,1,52,NaN,NaN,1,NaN,5.132537e-01,NaN,1,0,2,1
31,187,1,77,NaN,NaN,2,NaN,6.059454e-01,NaN,2,1,2,1
31,188,1,89,NaN,NaN,1,NaN,5.040651e-01,NaN,0,1,2,1
31,189,1,18,NaN,NaN,1,NaN,2.932767e-01,NaN,0,1,1,1
31,190,1,25,NaN,NaN,2,NaN,5.234719e-01,NaN,0,0,1,1
31,191,1,120,NaN,NaN,2,NaN,5.359751e-01,NaN,0,0,3,1
31,192,1,91,NaN,NaN,1,NaN,2.440612e-01,NaN,2,0,2,1
31,193,1,5,NaN,NaN,1,NaN,4.284264e-01,NaN,2,0,1,1
31,194,1,88,NaN,NaN,1,NaN,3.327492e-01,NaN,2,0,2,1
31,195,1,113,NaN,NaN,1,NaN,4.168234e-01,NaN,1,0,3,1
31,196,1,53,NaN,NaN,1,NaN,4.024092e-01,NaN,2,1,2,1
31,197,1,24,NaN,NaN,2,NaN,6.522945e-01,NaN,0,0,1,1
31,198,1,65,NaN,NaN,1,NaN,8.118137e-01,NaN,1,0,2,1
31,199,1,93,NaN,NaN,1,NaN,2.453896e-01,NaN,1,0,2,1
31,200,1,70,NaN,NaN,1,NaN,2.851938e-01,NaN,1,0,2,1
31,201,1,54,NaN,NaN,1,NaN,2.912634e-01,NaN,0,0,2,1
31,202,1,30,NaN,NaN,2,NaN,4.936674e-02,NaN,1,1,1,1
31,203,1,52,NaN,NaN,1,NaN,1.473026e-04,NaN,0,0,2,1
31,204,1,143,NaN,NaN,1,NaN,2.991033e-01,NaN,2,0,3,1
31,205,1,111,NaN,NaN,2,NaN,3.450275e-01,NaN,2,0,3,1
31,206,1,82,NaN,NaN,1,NaN,2.686148e-01,NaN,2,0,2,1
31,207,1,17,NaN,NaN,2,NaN,5.550960e-01,NaN,1,0,1,1
31,208,1,62,NaN,NaN,2,NaN,1.526908e+00,NaN,2,0,2,1
31,209,1,33,NaN,NaN,2,NaN,5.396902e-01,NaN,1,0,1,1
31,210,1,97,NaN,NaN,2,NaN,5.442385e-01,NaN,0,0,3,1
31,211,1,102,NaN,NaN,2,NaN,3.879485e-01,NaN,0,0,3,1
31,212,1,3,NaN,NaN,2,NaN,4.383053e-01,NaN,1,0,1,1
31,213,1,86,NaN,NaN,1,NaN,4.379205e-01,NaN,1,1,2,1
31,214,1,22,NaN,NaN,2,NaN,6.541542e-01,NaN,2,0,1,1
31,215,1,46,NaN,NaN,2,NaN,4.457148e-01,NaN,1,0,1,1
31,216,1,16,NaN,NaN,2,NaN,4.133442e-01,NaN,0,0,1,1
31,217,1,40,NaN,NaN,2,NaN,5.262836e-01,NaN,0,0,1,1
31,218,1,36,NaN,NaN,2,NaN,4.672161e-01,NaN,0,0,1,1
31,219,1,85,NaN,NaN,1,NaN,4.098561e-01,NaN,2,0,2,1
31,220,1,11,NaN,NaN,1,NaN,5.154147e-01,NaN,1,0,1,1
31,221,1,141,NaN,NaN,1,NaN,4.728250e-01,NaN,2,0,3,1
31,222,1,55,NaN,NaN,1,NaN,5.036860e-01,NaN,1,0,2,1
31,223,1,57,NaN,NaN,1,NaN,3.408834e-01,NaN,0,0,2,1
31,224,1,119,NaN,NaN,1,NaN,4.322451e-01,NaN,2,0,3,1
31,225,1,140,NaN,NaN,1,NaN,3.927464e-01,NaN,0,0,3,1
31,226,1,8,NaN,NaN,2,NaN,6.986304e-01,NaN,1,0,1,1
31,227,1,34,NaN,NaN,1,NaN,4.405746e-01,NaN,0,1,1,1
31,228,1,112,NaN,NaN,1,NaN,6.244231e-01,NaN,0,1,3,1
31,229,1,33,NaN,NaN,1,NaN,4.247614e-01,NaN,0,0,1,1
31,230,1,87,NaN,NaN,1,NaN,3.691781e-01,NaN,0,0,2,1
31,231,1,42,NaN,NaN,2,NaN,4.054467e-01,NaN,2,0,1,1
31,232,1,121,NaN,NaN,2,NaN,4.781004e-01,NaN,0,0,3,1
31,233,1,35,NaN,NaN,1,NaN,5.334975e-01,NaN,0,1,1,1
31,234,1,138,NaN,NaN,2,NaN,1.057336e+00,NaN,2,1,3,1
31,235,1,138,NaN,NaN,1,NaN,5.436191e-01,NaN,0,1,3,1
31,236,1,98,NaN,NaN,1,NaN,4.604387e-01,NaN,0,0,3,1
31,237,1,125,NaN,NaN,1,NaN,3.397623e-01,NaN,2,0,3,1
31,238,1,107,NaN,NaN,1,NaN,5.039504e-01,NaN,0,0,3,1
31,239,1,108,NaN,NaN,2,NaN,2.611968e-01,NaN,2,0,3,1
31,240,1,31,NaN,NaN,1,NaN,3.885999e-01,NaN,2,0,1,1
31,241,1,15,NaN,NaN,2,NaN,3.185399e-01,NaN,0,0,1,1
31,242,1,51,NaN,NaN,1,NaN,4.114855e-01,NaN,2,0,2,1
31,243,1,53,NaN,NaN,1,NaN,3.563416e-01,NaN,0,1,2,1
31,244,1,108,NaN,NaN,2,NaN,3.680808e-01,NaN,0,0,3,1
31,245,1,30,NaN,NaN,2,NaN,4.109765e-01,NaN,0,1,1,1
31,246,1,1,NaN,NaN,1,NaN,3.326990e-01,NaN,1,0,1,1
31,247,1,74,NaN,NaN,1,NaN,4.329360e-01,NaN,2,0,2,1
31,248,1,29,NaN,NaN,2,NaN,4.415393e-01,NaN,0,1,1,1
31,249,1,77,NaN,NaN,1,NaN,9.532977e-01,NaN,0,1,2,1
31,250,1,144,NaN,NaN,1,NaN,7.003316e-01,NaN,0,0,3,1
31,251,1,29,NaN,NaN,2,NaN,3.542272e-01,NaN,1,1,1,1
31,252,1,129,NaN,NaN,2,NaN,5.096125e-01,NaN,0,0,3,1
31,253,1,60,NaN,NaN,2,NaN,4.026980e-01,NaN,1,0,2,1
31,254,1,44,NaN,NaN,2,NaN,8.447167e-01,NaN,0,0,1,1
31,255,1,130,NaN,NaN,2,NaN,5.169574e-01,NaN,0,1,3,1
31,256,1,39,NaN,NaN,2,NaN,4.017409e-01,NaN,2,0,1,1
31,257,1,71,NaN,NaN,1,NaN,3.636162e-01,NaN,2,0,2,1
31,258,1,63,NaN,NaN,1,NaN,4.061699e-01,NaN,0,0,2,1
31,259,1,28,NaN,NaN,2,NaN,4.553730e-01,NaN,2,0,1,1
31,260,1,61,NaN,NaN,1,NaN,4.307983e-01,NaN,0,0,2,1
31,261,1,9,NaN,NaN,1,NaN,4.473336e-01,NaN,1,0,1,1
31,262,1,37,NaN,NaN,2,NaN,4.304947e-01,NaN,2,0,1,1
31,263,1,47,NaN,NaN,1,NaN,6.550885e-01,NaN,2,0,1,1
31,264,1,31,NaN,NaN,2,NaN,1.501232e-01,NaN,0,0,1,1
31,265,1,123,NaN,NaN,2,NaN,3.618434e-01,NaN,2,0,3,1
31,266,1,50,NaN,NaN,1,NaN,4.687975e-01,NaN,0,1,2,1
31,267,1,124,NaN,NaN,2,NaN,4.605597e-01,NaN,1,0,3,1
31,268,1,60,NaN,NaN,1,NaN,2.910141e-01,NaN,0,0,2,1
31,269,1,92,NaN,NaN,1,NaN,3.053914e-01,NaN,1,1,2,1
31,270,1,62,NaN,NaN,1,NaN,3.193244e-01,NaN,0,0,2,1
31,271,1,134,NaN,NaN,2,NaN,2.678846e-01,NaN,1,0,3,1
31,272,1,127,NaN,NaN,2,NaN,3.630191e-01,NaN,0,0,3,1
31,273,1,2,NaN,NaN,2,NaN,5.901448e-01,NaN,1,1,1,1
31,274,1,133,NaN,NaN,2,NaN,5.836013e-01,NaN,1,0,3,1
31,275,1,26,NaN,NaN,2,NaN,5.943770e-01,NaN,0,0,1,1
31,276,1,89,NaN,NaN,1,NaN,8.198296e-01,NaN,2,1,2,1
31,277,1,13,NaN,NaN,2,NaN,3.167026e-01,NaN,1,1,1,1
31,278,1,67,NaN,NaN,1,NaN,3.863886e-01,NaN,0,1,2,1
31,279,1,16,NaN,NaN,2,NaN,3.404016e-01,NaN,1,0,1,1
31,280,1,70,NaN,NaN,1,NaN,3.523805e-01,NaN,0,0,2,1
31,281,1,117,NaN,NaN,2,NaN,3.232545e-01,NaN,2,0,3,1
31,282,1,74,NaN,NaN,1,NaN,3.761423e-01,NaN,0,0,2,1
31,283,1,23,NaN,NaN,2,NaN,4.184005e-01,NaN,1,0,1,1
31,284,1,137,NaN,NaN,1,NaN,3.638236e-01,NaN,0,0,3,1
31,285,1,32,NaN,NaN,1,NaN,5.584184e-01,NaN,0,1,1,1
31,286,1,110,NaN,NaN,2,NaN,6.745997e-01,NaN,0,0,3,1
31,287,1,59,NaN,NaN,1,NaN,4.162034e-01,NaN,2,0,2,1
31,288,1,69,NaN,NaN,1,NaN,7.381143e-01,NaN,2,1,2,1
31,462,2,86,50,2,2,1,2.279128e+00,NaN,1,1,2,1
31,463,2,13,44,1,1,1,1.113835e+00,NaN,1,1,1,1
31,464,2,65,35,2,2,1,1.338351e+00,NaN,1,0,2,1
31,465,2,40,31,2,2,1,1.138503e+00,NaN,1,0,1,1
31,466,2,64,66,1,1,1,1.690183e+00,NaN,1,0,2,1
31,467,2,58,39,1,1,1,9.399095e-01,NaN,1,0,2,1
31,468,2,3,60,1,1,1,1.171557e+00,NaN,1,0,1,1
31,469,2,94,14,2,1,0,1.017903e+00,NaN,1,0,2,1
31,470,2,1,62,1,1,1,1.702545e+00,NaN,1,0,1,1
31,471,2,44,19,2,2,1,1.408159e+00,NaN,1,0,1,1
31,472,2,24,13,2,2,1,1.125276e+00,NaN,1,0,1,1
31,473,2,55,58,1,1,1,1.773755e+00,NaN,1,0,2,1
31,474,2,34,70,1,1,1,1.339856e+00,NaN,1,1,1,1
31,475,2,121,41,2,2,1,1.155908e+00,NaN,1,0,3,1
31,476,2,122,47,1,1,1,1.027334e+00,NaN,1,0,3,1
31,477,2,80,5,2,2,1,9.834231e-01,NaN,1,0,2,1
31,478,2,78,30,1,2,0,1.069510e+00,NaN,1,1,2,1
31,479,2,92,49,1,1,1,7.759622e-01,NaN,1,1,2,1
31,480,2,135,28,1,1,1,7.504455e-01,NaN,1,1,3,1
31,481,2,129,34,2,2,1,1.021814e+00,NaN,1,0,3,1
31,482,2,102,36,2,2,1,1.042162e+00,NaN,1,0,3,1
31,483,2,120,1,2,2,1,9.897079e-01,NaN,1,0,3,1
31,484,2,29,6,2,1,0,1.164276e+00,NaN,1,1,1,1
31,485,2,79,2,1,1,1,9.385494e-01,NaN,1,0,2,1
31,486,3,102,36,2,2,1,1.005070e+00,NaN,1,0,3,1
31,487,3,34,70,2,2,1,1.482512e+00,NaN,1,1,1,1
31,488,3,129,34,1,1,1,1.180502e+00,NaN,1,0,3,1
31,489,3,122,47,2,2,1,1.138738e+00,NaN,1,0,3,1
31,490,3,64,66,1,2,0,1.050399e+00,NaN,1,0,2,1
31,491,3,29,6,1,2,0,1.589621e+00,NaN,1,1,1,1
31,492,3,40,31,2,2,1,7.957149e-01,NaN,1,0,1,1
31,493,3,80,5,2,2,1,6.568757e-01,NaN,1,0,2,1
31,494,3,120,1,2,2,1,1.516101e+00,NaN,1,0,3,1
31,495,3,44,19,2,2,1,8.286852e-01,NaN,1,0,1,1
31,496,3,135,28,2,2,1,5.847245e-01,NaN,1,1,3,1
31,497,3,86,50,1,1,1,9.593226e-01,NaN,1,1,2,1
31,498,3,121,41,1,1,1,7.423336e-01,NaN,1,0,3,1
31,499,3,65,35,2,2,1,6.064456e-01,NaN,1,0,2,1
31,500,3,3,60,2,2,1,1.027188e+00,NaN,1,0,1,1
31,501,3,55,58,2,2,1,1.111676e+00,NaN,1,0,2,1
31,502,3,94,14,1,2,0,1.673402e+00,NaN,1,0,2,1
31,503,3,92,49,1,1,1,5.386018e-01,NaN,1,1,2,1
31,504,3,13,44,1,1,1,5.943544e-01,NaN,1,1,1,1
31,505,3,78,30,1,2,0,6.963243e-01,NaN,1,1,2,1
31,506,3,79,2,1,1,1,1.346171e+00,NaN,1,0,2,1
31,507,3,58,39,2,2,1,6.810088e-01,NaN,1,0,2,1
31,508,3,1,62,1,1,1,1.179261e+00,NaN,1,0,1,1
31,509,3,24,13,1,1,1,8.254883e-01,NaN,1,0,1,1
31,534,2,60,27,2,2,1,8.411802e-01,NaN,1,0,2,2
31,535,2,10,3,2,2,1,8.448510e-01,NaN,1,1,1,2
31,536,2,140,56,1,1,1,9.603781e-01,NaN,1,0,3,2
31,537,2,98,64,2,2,1,8.638790e-01,NaN,1,0,3,2
31,538,2,81,55,2,1,0,1.282420e+00,NaN,1,0,2,2
31,539,2,68,24,2,2,1,7.643906e-01,NaN,1,0,2,2
31,540,2,95,23,1,1,1,1.363282e+00,NaN,1,0,2,2
31,541,2,72,51,1,1,1,5.620681e-01,NaN,1,0,2,2
31,542,2,54,46,1,1,1,8.008038e-01,NaN,1,0,2,2
31,543,2,70,65,2,2,1,1.087278e+00,NaN,1,0,2,2
31,544,2,124,42,2,2,1,1.024258e+00,NaN,1,0,3,2
31,545,2,110,52,1,1,1,8.362755e-01,NaN,1,0,3,2
31,546,2,112,25,1,1,1,7.042472e-01,NaN,1,1,3,2
31,547,2,17,12,2,2,1,1.721254e+00,NaN,1,0,1,2
31,548,2,35,67,2,2,1,8.022934e-01,NaN,1,1,1,2
31,549,2,61,40,2,2,1,6.231323e-01,NaN,1,0,2,2
31,550,2,142,29,1,1,1,9.000504e-01,NaN,1,1,3,2
31,551,2,8,63,1,1,1,7.894370e-01,NaN,1,0,1,2
31,552,2,100,57,2,2,1,6.353011e-01,NaN,1,0,3,2
31,553,2,133,72,2,2,1,8.069814e-01,NaN,1,0,3,2
31,554,2,19,43,1,2,0,1.131832e+00,NaN,1,0,1,2
31,555,2,134,11,1,1,1,8.199026e-01,NaN,1,0,3,2
31,556,2,33,54,2,2,1,1.200366e+00,NaN,1,0,1,2
31,557,2,2,69,2,2,1,8.616537e-01,NaN,1,1,1,2
31,558,3,95,23,2,1,0,8.506779e-01,NaN,1,0,2,2
31,559,3,124,42,1,1,1,1.718390e+00,NaN,1,0,3,2
31,560,3,54,46,1,1,1,9.111672e-01,NaN,1,0,2,2
31,561,3,72,51,1,1,1,5.120696e-01,NaN,1,0,2,2
31,562,3,142,29,2,2,1,8.645955e-01,NaN,1,1,3,2
31,563,3,2,69,1,1,1,8.035231e-01,NaN,1,1,1,2
31,564,3,112,25,2,2,1,6.165828e-01,NaN,1,1,3,2
31,565,3,134,11,2,2,1,6.612063e-01,NaN,1,0,3,2
31,566,3,140,56,2,2,1,7.605329e-01,NaN,1,0,3,2
31,567,3,70,65,2,2,1,5.436127e-01,NaN,1,0,2,2
31,568,3,8,63,2,2,1,6.153265e-01,NaN,1,0,1,2
31,569,3,33,54,2,2,1,7.645246e-01,NaN,1,0,1,2
31,570,3,133,72,1,1,1,8.268871e-01,NaN,1,0,3,2
31,571,3,81,55,1,1,1,7.514385e-01,NaN,1,0,2,2
31,572,3,17,12,1,2,0,1.487291e+00,NaN,1,0,1,2
31,573,3,10,3,1,1,1,6.245251e-01,NaN,1,1,1,2
31,574,3,19,43,2,2,1,9.092471e-01,NaN,1,0,1,2
31,575,3,100,57,2,2,1,6.545720e-01,NaN,1,0,3,2
31,576,3,61,40,1,1,1,4.896498e-01,NaN,1,0,2,2
31,577,3,110,52,1,1,1,6.353370e-01,NaN,1,0,3,2
31,578,3,35,67,2,2,1,6.557845e-01,NaN,1,1,1,2
31,579,3,98,64,2,2,1,1.178528e+00,NaN,1,0,3,2
31,580,3,68,24,1,1,1,6.009978e-01,NaN,1,0,2,2
31,581,3,60,27,1,1,1,5.263253e-01,NaN,1,0,2,2
31,606,2,26,16,2,2,1,9.644081e-01,NaN,1,0,1,3
31,607,2,50,48,1,1,1,9.313473e-01,NaN,1,1,2,3
31,608,2,93,15,1,2,0,1.571386e+00,NaN,1,0,2,3
31,609,2,137,7,2,2,1,6.342168e-01,NaN,1,0,3,3
31,610,2,23,32,1,1,1,5.819463e-01,NaN,1,0,1,3
31,611,2,106,68,2,2,1,7.401029e-01,NaN,1,1,3,3
31,612,2,84,8,1,1,1,7.004044e-01,NaN,1,0,2,3
31,613,2,9,59,2,2,1,1.125625e+00,NaN,1,0,1,3
31,614,2,38,38,2,2,1,6.622148e-01,NaN,1,0,1,3
31,615,2,66,45,1,1,1,5.366056e-01,NaN,1,0,2,3
31,616,2,4,18,2,1,0,9.927680e-01,NaN,1,1,1,3
31,617,2,16,22,1,1,1,1.094193e+00,NaN,1,0,1,3
31,618,2,52,4,1,1,1,5.605256e-01,NaN,1,0,2,3
31,619,2,11,26,2,2,1,7.271666e-01,NaN,1,0,1,3
31,620,2,101,37,2,2,1,1.223814e+00,NaN,1,0,3,3
31,621,2,83,10,1,1,1,1.100380e+00,NaN,1,1,2,3
31,622,2,113,21,2,2,1,6.863413e-01,NaN,1,0,3,3
31,623,2,103,9,2,2,1,9.353706e-01,NaN,1,0,3,3
31,624,2,30,61,1,1,1,1.063662e+00,NaN,1,1,1,3
31,625,2,127,20,1,1,1,6.741315e-01,NaN,1,0,3,3
31,626,2,46,33,1,1,1,8.048362e-01,NaN,1,0,1,3
31,627,2,126,53,2,2,1,1.050200e+00,NaN,1,0,3,3
31,628,2,104,17,2,2,1,7.651962e-01,NaN,1,1,3,3
31,629,2,139,71,2,2,1,1.052044e+00,NaN,1,0,3,3
31,630,3,66,45,1,1,1,5.208081e-01,NaN,1,0,2,3
31,631,3,93,15,1,1,1,8.259514e-01,NaN,1,0,2,3
31,632,3,137,7,2,2,1,5.338265e-01,NaN,1,0,3,3
31,633,3,16,22,1,1,1,4.623195e-01,NaN,1,0,1,3
31,634,3,104,17,1,1,1,7.131813e-01,NaN,1,1,3,3
31,635,3,50,48,1,1,1,5.455518e-01,NaN,1,1,2,3
31,636,3,52,4,1,1,1,6.096207e-01,NaN,1,0,2,3
31,637,3,11,26,1,1,1,6.622507e-01,NaN,1,0,1,3
31,638,3,126,53,1,1,1,1.577241e+00,NaN,1,0,3,3
31,639,3,103,9,2,2,1,6.557254e-01,NaN,1,0,3,3
31,640,3,127,20,2,2,1,5.948772e-01,NaN,1,0,3,3
31,641,3,139,71,2,2,1,1.544175e+00,NaN,1,0,3,3
31,642,3,4,18,1,1,1,4.798934e-01,NaN,1,1,1,3
31,643,3,23,32,1,1,1,5.699813e-01,NaN,1,0,1,3
31,644,3,38,38,1,1,1,6.089609e-01,NaN,1,0,1,3
31,645,3,83,10,2,2,1,7.503899e-01,NaN,1,1,2,3
31,646,3,101,37,1,1,1,7.732278e-01,NaN,1,0,3,3
31,647,3,30,61,2,2,1,6.359573e-01,NaN,1,1,1,3
31,648,3,46,33,1,1,1,7.999015e-01,NaN,1,0,1,3
31,649,3,106,68,2,2,1,8.615091e-01,NaN,1,1,3,3
31,650,3,113,21,1,1,1,9.445109e-01,NaN,1,0,3,3
31,651,3,26,16,2,2,1,1.360286e+00,NaN,1,0,1,3
31,652,3,84,8,2,2,1,6.316692e-01,NaN,1,0,2,3
31,653,3,9,59,2,2,1,6.117883e-01,NaN,1,0,1,3
31,678,4,91,26,2,2,1,8.986890e-01,NaN,2,0,2,1
31,679,4,73,34,1,1,1,9.565540e-01,NaN,2,0,2,1
31,680,4,27,42,2,2,1,6.754038e-01,NaN,2,0,1,1
31,681,4,125,16,1,1,1,9.742179e-01,NaN,2,0,3,1
31,682,4,96,22,1,1,1,7.642143e-01,NaN,2,0,2,1
31,683,4,119,19,1,1,1,1.035227e+00,NaN,2,0,3,1
31,684,4,6,47,2,2,1,1.175385e+00,NaN,2,0,1,1
31,685,4,77,3,2,2,1,6.854750e-01,NaN,2,1,2,1
31,686,4,5,41,1,1,1,6.481402e-01,NaN,2,0,1,1
31,687,4,14,64,1,1,1,9.155917e-01,NaN,2,0,1,1
31,688,4,59,37,1,1,1,1.124112e+00,NaN,2,0,2,1
31,689,4,12,53,2,2,1,1.076922e+00,NaN,2,0,1,1
31,690,4,7,21,2,2,1,8.709156e-01,NaN,2,0,1,1
31,691,4,117,39,2,2,1,7.934018e-01,NaN,2,0,3,1
31,692,4,111,51,2,2,1,6.795955e-01,NaN,2,0,3,1
31,693,4,74,38,2,2,1,1.433263e+00,NaN,2,0,2,1
31,694,4,53,28,2,2,1,8.374594e-01,NaN,2,1,2,1
31,695,4,63,1,1,1,1,1.385422e+00,NaN,2,0,2,1
31,696,4,32,49,1,1,1,6.153745e-01,NaN,2,1,1,1
31,697,4,67,17,1,1,1,9.081058e-01,NaN,2,1,2,1
31,698,4,21,25,2,2,1,9.091007e-01,NaN,2,1,1,1
31,699,4,18,29,1,1,1,8.626595e-01,NaN,2,1,1,1
31,700,4,43,10,1,1,1,7.292696e-01,NaN,2,1,1,1
31,701,4,136,18,2,2,1,8.896294e-01,NaN,2,1,3,1
31,726,4,47,2,2,2,1,1.064530e+00,NaN,2,0,1,2
31,727,4,131,13,2,2,1,8.752245e-01,NaN,2,0,3,2
31,728,4,116,24,2,2,1,9.101493e-01,NaN,2,0,3,2
31,729,4,57,57,2,2,1,1.062773e+00,NaN,2,0,2,2
31,730,4,85,59,1,1,1,5.136857e-01,NaN,2,0,2,2
31,731,4,71,7,1,1,1,1.050582e+00,NaN,2,0,2,2
31,732,4,28,15,2,2,1,8.623199e-01,NaN,2,0,1,2
31,733,4,15,9,2,2,1,1.025007e+00,NaN,2,0,1,2
31,734,4,109,8,2,2,1,5.735057e-01,NaN,2,0,3,2
31,735,4,37,46,2,2,1,1.163575e+00,NaN,2,0,1,2
31,736,4,105,48,2,2,1,6.505532e-01,NaN,2,1,3,2
31,737,4,97,27,2,2,1,5.658762e-01,NaN,2,0,3,2
31,738,4,89,70,1,1,1,1.012848e+00,NaN,2,1,2,2
31,739,4,108,66,2,2,1,6.414974e-01,NaN,2,0,3,2
31,740,4,41,30,1,1,1,1.301576e+00,NaN,2,1,1,2
31,741,4,114,58,2,2,1,8.626854e-01,NaN,2,0,3,2
31,742,4,88,33,1,1,1,8.338719e-01,NaN,2,0,2,2
31,743,4,76,67,1,1,1,5.419387e-01,NaN,2,1,2,2
31,744,4,123,32,1,1,1,1.237407e+00,NaN,2,0,3,2
31,745,4,69,68,2,2,1,5.693511e-01,NaN,2,1,2,2
31,746,4,56,20,1,1,1,8.402699e-01,NaN,2,0,2,2
31,747,4,99,23,2,2,1,7.479911e-01,NaN,2,0,3,2
31,748,4,138,61,1,2,0,5.395266e-01,NaN,2,1,3,2
31,749,4,90,69,1,1,1,1.251159e+00,NaN,2,1,2,2
31,774,4,130,6,2,2,1,1.456069e+00,NaN,2,1,3,3
31,775,4,51,11,1,1,1,1.203072e+00,NaN,2,0,2,3
31,776,4,87,43,1,1,1,9.444209e-01,NaN,2,0,2,3
31,777,4,107,35,1,2,0,8.557662e-01,NaN,2,0,3,3
31,778,4,42,55,2,2,1,1.099399e+00,NaN,2,0,1,3
31,779,4,31,14,2,2,1,6.045741e-01,NaN,2,0,1,3
31,780,4,128,44,1,1,1,9.535138e-01,NaN,2,1,3,3
31,781,4,75,63,2,2,1,7.927649e-01,NaN,2,0,2,3
31,782,4,20,71,2,2,1,7.345564e-01,NaN,2,0,1,3
31,783,4,36,4,2,2,1,7.429032e-01,NaN,2,0,1,3
31,784,4,115,45,1,1,1,1.102836e+00,NaN,2,0,3,3
31,785,4,143,60,1,1,1,6.483074e-01,NaN,2,0,3,3
31,786,4,25,52,1,1,1,6.756600e-01,NaN,2,0,1,3
31,787,4,118,5,1,1,1,1.454719e+00,NaN,2,0,3,3
31,788,4,49,56,1,1,1,1.217702e+00,NaN,2,0,2,3
31,789,4,22,72,2,2,1,1.125956e+00,NaN,2,0,1,3
31,790,4,45,40,2,2,1,1.359545e+00,NaN,2,0,1,3
31,791,4,144,31,2,2,1,6.137859e-01,NaN,2,0,3,3
31,792,4,132,12,1,1,1,8.987705e-01,NaN,2,0,3,3
31,793,4,48,50,1,1,1,4.917555e-01,NaN,2,1,1,3
31,794,4,82,54,2,2,1,6.219742e-01,NaN,2,0,2,3
31,795,4,39,65,1,1,1,1.098452e+00,NaN,2,0,1,3
31,796,4,141,62,2,2,1,8.195039e-01,NaN,2,0,3,3
31,797,4,62,36,1,2,0,6.881786e-01,NaN,2,0,2,3
31,798,5,1.206300e+02,1,3,2,0,8.788102e-01,1,1,0,3.200000e+00,1
31,799,5,2.423000e+01,32,1,1,1,1.641597e+00,1,1,0,1.300000e+00,1
31,800,5,1.206300e+02,1,3,2,0,5.242247e-01,2,1,0,3.200000e+00,1
31,801,5,8.142000e+01,55,2,2,1,5.258568e-01,1,1,0,2.100000e+00,1
31,802,5,6.607000e+01,35,2,2,1,4.310549e-01,1,1,0,2.300000e+00,1
31,803,5,6.607000e+01,35,2,2,1,4.086040e-01,2,1,0,2.300000e+00,1
31,804,5,1.015900e+02,37,3,2,0,9.061006e-01,1,1,0,3.200000e+00,1
31,805,5,4.144000e+01,31,1,1,1,3.713218e-01,1,1,0,1.300000e+00,1
31,806,5,1.220600e+02,47,3,1,0,1.053049e+00,1,1,0,3.100000e+00,1
31,807,5,9.328000e+01,15,2,2,1,3.346004e-01,1,1,0,2.100000e+00,1
31,808,5,7.947000e+01,2,2,2,1,3.361030e-01,1,1,0,2.100000e+00,1
31,809,5,1.345100e+02,11,3,3,1,4.899139e-01,1,1,0,3.200000e+00,1
31,810,5,8.509000e+01,8,2,0,0,2.500417e+00,1,1,0,2.300000e+00,1
31,811,5,1.696000e+01,22,1,1,1,6.372148e-01,1,1,0,1.200000e+00,1
31,812,5,1.297300e+02,34,3,3,1,9.270861e-01,1,1,0,3.200000e+00,1
31,813,5,1.696000e+01,22,1,1,1,4.404490e-01,2,1,0,1.200000e+00,1
31,814,5,1.031500e+02,9,3,1,0,3.937573e-01,1,1,0,3.100000e+00,1
31,815,5,1.332200e+02,72,3,3,1,7.631729e-01,1,1,0,3.100000e+00,1
31,816,5,3.874000e+01,38,1,1,1,8.526082e-01,1,1,0,1.200000e+00,1
31,817,5,6.916000e+01,24,2,2,1,3.582445e-01,1,1,0,2.300000e+00,1
31,818,5,6.715000e+01,45,2,2,1,2.882144e-01,1,1,0,2.300000e+00,1
31,819,5,5.614000e+01,58,2,0,0,2.500588e+00,1,1,0,2.300000e+00,1
31,820,5,7.311000e+01,51,2,2,1,6.600412e-01,1,1,0,2.300000e+00,1
31,821,5,5.437000e+01,46,2,2,1,2.614546e-01,1,1,0,2.100000e+00,1
31,822,5,1.832000e+01,12,1,1,1,3.506726e-01,1,1,0,1.300000e+00,1
31,823,5,7.947000e+01,2,2,2,1,2.406283e-01,2,1,0,2.100000e+00,1
31,824,5,4.519000e+01,19,1,3,0,1.001781e+00,1,1,0,1.300000e+00,1
31,825,5,9.431000e+01,14,2,2,1,3.795955e-01,1,1,0,2.100000e+00,1
31,826,5,1.130700e+02,21,3,3,1,4.210649e-01,1,1,0,3.100000e+00,1
31,827,5,1.102500e+02,52,3,3,1,1.046325e+00,1,1,0,3.100000e+00,1
31,828,5,1.015900e+02,37,3,3,1,6.640956e-01,2,1,0,3.200000e+00,1
31,829,5,3.382000e+01,54,1,1,1,4.892450e-01,1,1,0,1.200000e+00,1
31,830,5,2.725000e+01,16,1,1,1,2.830797e-01,1,1,0,1.300000e+00,1
31,831,5,5.437000e+01,46,2,2,1,3.404191e-01,2,1,0,2.100000e+00,1
31,832,5,1.005700e+02,57,3,3,1,6.703421e-01,1,1,0,3.200000e+00,1
31,833,5,1.031500e+02,9,3,3,1,2.555493e-01,2,1,0,3.100000e+00,1
31,834,5,1.220600e+02,47,3,3,1,8.491376e-01,2,1,0,3.100000e+00,1
31,835,5,3.382000e+01,54,1,1,1,2.585487e-01,2,1,0,1.200000e+00,1
31,836,5,4.519000e+01,19,1,1,1,3.559206e-01,2,1,0,1.300000e+00,1
31,837,5,5.236000e+01,4,2,2,1,4.216412e-01,1,1,0,2.100000e+00,1
31,838,5,5.917000e+01,39,2,2,1,2.872799e-01,1,1,0,2.300000e+00,1
31,839,5,5.614000e+01,58,2,3,0,3.927419e-01,2,1,0,2.300000e+00,1
31,840,5,1.696000e+01,22,1,1,1,3.220438e-01,3,1,0,1.200000e+00,1
31,841,5,3.382000e+01,54,1,1,1,3.395453e-01,3,1,0,1.200000e+00,1
31,842,5,1.130700e+02,21,3,3,1,2.367794e-01,2,1,0,3.100000e+00,1
31,843,5,8.750000e+00,63,1,3,0,1.486409e+00,1,1,0,1.200000e+00,1
31,844,5,9.431000e+01,14,2,2,1,3.439233e-01,2,1,0,2.100000e+00,1
31,845,5,8.750000e+00,63,1,1,1,2.416093e-01,2,1,0,1.200000e+00,1
31,846,5,1.275600e+02,20,3,3,1,6.431712e-01,1,1,0,3.200000e+00,1
31,847,5,7.311000e+01,51,2,2,1,2.130152e-01,2,1,0,2.300000e+00,1
31,848,5,1.242700e+02,42,3,1,0,3.585337e-01,1,1,0,3.100000e+00,1
31,849,5,1.297300e+02,34,3,2,0,8.158180e-01,2,1,0,3.200000e+00,1
31,850,5,2.410000e+00,62,1,1,1,1.409574e+00,1,1,0,1.300000e+00,1
31,851,5,2.410000e+00,62,1,1,1,2.429329e-01,2,1,0,1.300000e+00,1
31,852,5,1.987000e+01,43,1,1,1,3.085240e-01,1,1,0,1.200000e+00,1
31,853,5,2.531000e+01,13,1,1,1,6.184999e-02,1,1,0,1.300000e+00,1
31,854,5,8.142000e+01,55,2,2,1,3.273098e-01,2,1,0,2.100000e+00,1
31,855,5,9.814000e+01,64,3,1,0,6.008182e-01,1,1,0,3.100000e+00,1
31,856,5,1.005700e+02,57,3,3,1,1.330202e+00,2,1,0,3.200000e+00,1
31,857,5,5.236000e+01,4,2,2,1,2.357972e-01,2,1,0,2.100000e+00,1
31,858,5,9.850000e+00,59,1,1,1,6.934794e-01,1,1,0,1.200000e+00,1
31,859,5,1.026200e+02,36,3,3,1,8.948586e-01,1,1,0,3.200000e+00,1
31,860,5,1.026200e+02,36,3,3,1,2.651698e-01,2,1,0,3.200000e+00,1
31,861,5,8.142000e+01,55,2,2,1,2.422583e-01,3,1,0,2.100000e+00,1
31,862,5,3.874000e+01,38,1,1,1,3.074835e-01,2,1,0,1.200000e+00,1
31,863,5,3.382000e+01,54,1,1,1,3.248742e-01,4,1,0,1.200000e+00,1
31,864,5,3.874000e+01,38,1,1,1,2.471271e-01,3,1,0,1.200000e+00,1
31,865,5,1.220600e+02,47,3,3,1,3.042939e-01,3,1,0,3.100000e+00,1
31,866,5,6.607000e+01,35,2,2,1,2.578844e-01,3,1,0,2.300000e+00,1
31,867,5,1.275600e+02,20,3,3,1,2.991021e-01,2,1,0,3.200000e+00,1
31,868,5,7.039000e+01,65,2,2,1,2.771912e-01,1,1,0,2.100000e+00,1
31,869,5,9.814000e+01,64,3,3,1,1.533395e-04,2,1,0,3.100000e+00,1
31,870,5,1.031500e+02,9,3,3,1,2.804297e-01,3,1,0,3.100000e+00,1
31,871,5,1.297300e+02,34,3,3,1,3.301623e-01,3,1,0,3.200000e+00,1
31,872,5,8.750000e+00,63,1,1,1,3.872506e-01,3,1,0,1.200000e+00,1
31,873,5,4.688000e+01,33,1,1,1,1.488684e-01,1,1,0,1.200000e+00,1
31,874,5,1.297300e+02,34,3,3,1,3.580299e-01,4,1,0,3.200000e+00,1
31,875,5,1.377100e+02,7,3,3,1,3.282441e-01,1,1,0,3.200000e+00,1
31,876,5,1.026200e+02,36,3,3,1,2.335539e-01,3,1,0,3.200000e+00,1
31,877,5,9.328000e+01,15,2,2,1,2.752983e-01,2,1,0,2.100000e+00,1
31,878,5,5.917000e+01,39,2,2,1,2.692061e-01,2,1,0,2.300000e+00,1
31,879,5,6.715000e+01,45,2,2,1,2.942073e-01,2,1,0,2.300000e+00,1
31,880,5,5.917000e+01,39,2,2,1,2.478841e-01,3,1,0,2.300000e+00,1
31,881,5,6.145000e+01,40,2,2,1,4.573221e-01,1,1,0,2.100000e+00,1
31,882,5,7.039000e+01,65,2,2,1,2.510532e-01,2,1,0,2.100000e+00,1
31,883,5,6.715000e+01,45,2,2,1,3.725799e-01,3,1,0,2.300000e+00,1
31,884,5,4.430000e+00,60,1,1,1,3.580504e-01,1,1,0,1.300000e+00,1
31,885,5,1.404900e+02,56,3,3,1,2.714153e-01,1,1,0,3.200000e+00,1
31,886,5,2.410000e+00,62,1,1,1,2.731419e-01,3,1,0,1.300000e+00,1
31,887,5,5.236000e+01,4,2,2,1,2.903944e-01,3,1,0,2.100000e+00,1
31,888,5,7.947000e+01,2,2,2,1,4.602428e-01,3,1,0,2.100000e+00,1
31,889,5,1.332200e+02,72,3,3,1,9.732979e-01,2,1,0,3.100000e+00,1
31,890,5,1.191000e+01,26,1,1,1,4.230429e-01,1,1,0,1.200000e+00,1
31,891,5,1.015900e+02,37,3,3,1,6.087574e-01,3,1,0,3.200000e+00,1
31,892,5,7.039000e+01,65,2,2,1,4.742980e-01,3,1,0,2.100000e+00,1
31,893,5,2.725000e+01,16,1,0,0,2.500510e+00,2,1,0,1.300000e+00,1
31,894,5,1.242700e+02,42,3,3,1,3.098213e-01,2,1,0,3.100000e+00,1
31,895,5,9.850000e+00,59,1,1,1,1.424719e-04,2,1,0,1.200000e+00,1
31,896,5,9.850000e+00,59,1,1,1,1.397552e-04,3,1,0,1.200000e+00,1
31,897,5,5.236000e+01,4,2,2,1,1.430763e-04,4,1,0,2.100000e+00,1
31,898,5,2.423000e+01,32,1,1,1,1.394544e-04,2,1,0,1.300000e+00,1
31,899,5,4.688000e+01,33,1,1,1,1.488114e-04,2,1,0,1.200000e+00,1
31,900,5,1.404900e+02,56,3,3,1,1.451895e-04,2,1,0,3.200000e+00,1
31,901,5,8.509000e+01,8,2,3,0,5.623965e-01,2,1,0,2.300000e+00,1
31,902,5,5.917000e+01,39,2,2,1,1.448877e-04,4,1,0,2.300000e+00,1
31,903,5,8.509000e+01,8,2,2,1,1.436807e-04,3,1,0,2.300000e+00,1
31,904,5,2.410000e+00,62,1,1,1,1.409631e-04,4,1,0,1.300000e+00,1
31,905,5,9.814000e+01,64,3,3,1,1.427745e-04,3,1,0,3.100000e+00,1
31,906,5,1.392000e+02,71,3,1,0,1.122362e+00,1,1,0,3.100000e+00,1
31,907,5,1.377100e+02,7,3,3,1,2.841307e-01,2,1,0,3.200000e+00,1
31,908,5,1.377100e+02,7,3,3,1,3.413899e-01,3,1,0,3.200000e+00,1
31,909,5,6.508000e+01,66,2,2,1,2.554225e-01,1,1,0,2.300000e+00,1
31,910,5,7.039000e+01,65,2,2,1,1.448877e-04,4,1,0,2.100000e+00,1
31,911,5,1.332200e+02,72,3,3,1,1.466982e-04,3,1,0,3.100000e+00,1
31,912,5,9.814000e+01,64,3,3,1,1.476035e-04,4,1,0,3.100000e+00,1
31,913,5,1.210500e+02,41,3,1,0,1.433780e-04,1,1,0,3.100000e+00,1
31,914,5,1.987000e+01,43,1,1,1,1.488114e-04,2,1,0,1.200000e+00,1
31,915,5,1.261200e+02,53,3,3,1,1.074057e+00,1,1,0,3.100000e+00,1
31,916,5,1.102500e+02,52,3,3,1,1.315037e-01,2,1,0,3.100000e+00,1
31,917,5,4.519000e+01,19,1,1,1,3.250641e-01,3,1,0,1.300000e+00,1
31,918,5,5.614000e+01,58,2,2,1,1.987812e-01,3,1,0,2.300000e+00,1
31,919,5,1.345100e+02,11,3,3,1,1.485096e-04,2,1,0,3.200000e+00,1
31,920,5,1.242700e+02,42,3,3,1,1.512263e-04,3,1,0,3.100000e+00,1
31,921,5,2.725000e+01,16,1,1,1,5.002096e-01,3,1,0,1.300000e+00,1
31,922,5,4.430000e+00,60,1,1,1,1.222158e+00,2,1,0,1.300000e+00,1
31,923,5,7.311000e+01,51,2,2,1,1.421701e-04,3,1,0,2.300000e+00,1
31,924,5,9.850000e+00,59,1,1,1,1.451885e-04,4,1,0,1.200000e+00,1
31,925,5,1.832000e+01,12,1,1,1,1.436798e-04,2,1,0,1.300000e+00,1
31,926,5,8.509000e+01,8,2,3,0,1.548482e-04,4,1,0,2.300000e+00,1
31,927,5,9.328000e+01,15,2,2,1,1.473017e-04,3,1,0,2.100000e+00,1
31,928,5,1.242700e+02,42,3,3,1,1.439815e-04,4,1,0,3.100000e+00,1
31,929,5,4.688000e+01,33,1,1,1,1.400579e-04,3,1,0,1.200000e+00,1
31,930,5,6.097000e+01,27,2,2,1,6.440055e-01,1,1,0,2.300000e+00,1
31,931,5,8.118000e+01,5,2,2,1,1.448868e-04,1,1,0,2.300000e+00,1
31,932,5,4.430000e+00,60,1,1,1,1.511628e-01,3,1,0,1.300000e+00,1
31,933,5,1.404900e+02,56,3,3,1,3.925001e-01,3,1,0,3.200000e+00,1
31,934,5,6.097000e+01,27,2,2,1,2.904490e-01,2,1,0,2.300000e+00,1
31,935,5,1.210500e+02,41,3,3,1,1.454903e-04,2,1,0,3.100000e+00,1
31,936,5,6.145000e+01,40,2,2,1,1.457930e-04,2,1,0,2.100000e+00,1
31,937,5,3.874000e+01,38,1,1,1,1.512263e-04,4,1,0,1.200000e+00,1
31,938,5,7.947000e+01,2,2,2,1,1.509236e-04,4,1,0,2.100000e+00,1
31,939,5,8.118000e+01,5,2,2,1,1.460947e-04,2,1,0,2.300000e+00,1
31,940,5,1.191000e+01,26,1,1,1,1.473026e-04,2,1,0,1.200000e+00,1
31,941,5,1.696000e+01,22,1,1,1,5.503168e-01,4,1,0,1.200000e+00,1
31,942,5,1.345100e+02,11,3,3,1,1.448877e-04,3,1,0,3.200000e+00,1
31,943,5,1.102500e+02,52,3,3,1,1.436798e-04,3,1,0,3.100000e+00,1
31,944,5,1.345100e+02,11,3,3,1,1.433780e-04,4,1,0,3.200000e+00,1
31,945,5,1.377100e+02,7,3,3,1,1.442833e-04,4,1,0,3.200000e+00,1
31,946,5,1.005700e+02,57,3,2,0,3.916751e-01,3,1,0,3.200000e+00,1
31,947,5,1.832000e+01,12,1,1,1,1.479052e-04,3,1,0,1.300000e+00,1
31,948,5,9.599000e+01,23,2,3,0,1.439815e-04,1,1,0,2.300000e+00,1
31,949,5,1.404900e+02,56,3,3,1,1.436798e-04,4,1,0,3.200000e+00,1
31,950,5,6.508000e+01,66,2,2,1,1.460947e-04,2,1,0,2.300000e+00,1
31,951,5,5.614000e+01,58,2,2,1,1.430763e-04,4,1,0,2.300000e+00,1
31,952,5,2.725000e+01,16,1,1,1,1.460947e-04,4,1,0,1.300000e+00,1
31,953,5,1.191000e+01,26,1,1,1,1.457930e-04,3,1,0,1.200000e+00,1
31,954,5,4.430000e+00,60,1,1,1,1.448868e-04,4,1,0,1.300000e+00,1
31,955,5,1.392000e+02,71,3,3,1,8.800155e-01,2,1,0,3.100000e+00,1
31,956,5,9.431000e+01,14,2,2,1,1.702420e-04,3,1,0,2.100000e+00,1
31,957,5,2.531000e+01,13,1,1,1,1.445860e-04,2,1,0,1.300000e+00,1
31,958,5,8.118000e+01,5,2,2,1,1.485096e-04,3,1,0,2.300000e+00,1
31,959,5,8.118000e+01,5,2,2,1,1.463965e-04,4,1,0,2.300000e+00,1
31,960,5,6.145000e+01,40,2,2,1,1.566596e-04,3,1,0,2.100000e+00,1
31,961,5,1.191000e+01,26,1,1,1,1.454912e-04,4,1,0,1.200000e+00,1
31,962,5,4.144000e+01,31,1,1,1,1.442833e-04,2,1,0,1.300000e+00,1
31,963,5,1.130700e+02,21,3,3,1,1.433780e-04,3,1,0,3.100000e+00,1
31,964,5,5.437000e+01,46,2,2,1,1.448877e-04,3,1,0,2.100000e+00,1
31,965,5,6.916000e+01,24,2,2,1,3.851567e-01,2,1,0,2.300000e+00,1
31,966,5,6.097000e+01,27,2,2,1,3.065215e-01,3,1,0,2.300000e+00,1
31,967,5,1.005700e+02,57,3,3,1,6.038877e-01,4,1,0,3.200000e+00,1
31,968,5,1.102500e+02,52,3,1,0,1.149572e+00,4,1,0,3.100000e+00,1
31,969,5,1.332200e+02,72,3,3,1,2.872905e-01,4,1,0,3.100000e+00,1
31,970,5,4.688000e+01,33,1,1,1,2.804608e-01,4,1,0,1.200000e+00,1
31,971,5,1.261200e+02,53,3,3,1,2.820893e-01,2,1,0,3.100000e+00,1
31,972,5,8.750000e+00,63,1,1,1,2.996258e-01,4,1,0,1.200000e+00,1
31,973,5,2.531000e+01,13,1,1,1,2.609762e-01,3,1,0,1.300000e+00,1
31,974,5,1.987000e+01,43,1,1,1,2.867843e-01,3,1,0,1.200000e+00,1
31,975,5,1.206300e+02,1,3,2,0,2.319728e-01,3,1,0,3.200000e+00,1
31,976,5,1.130700e+02,21,3,3,1,2.896754e-01,4,1,0,3.100000e+00,1
31,977,5,1.210500e+02,41,3,3,1,2.431052e-01,3,1,0,3.100000e+00,1
31,978,5,1.832000e+01,12,1,1,1,1.466982e-04,4,1,0,1.300000e+00,1
31,979,5,6.508000e+01,66,2,2,1,3.185167e-01,3,1,0,2.300000e+00,1
31,980,5,2.423000e+01,32,1,3,0,7.200098e-01,3,1,0,1.300000e+00,1
31,981,5,6.916000e+01,24,2,2,1,2.654134e-01,3,1,0,2.300000e+00,1
31,982,5,1.392000e+02,71,3,3,1,5.871239e-01,3,1,0,3.100000e+00,1
31,983,5,1.210500e+02,41,3,3,1,3.646790e-01,4,1,0,3.100000e+00,1
31,984,5,1.206300e+02,1,3,2,0,2.778568e-01,4,1,0,3.200000e+00,1
31,985,5,6.097000e+01,27,2,2,1,9.997652e-01,4,1,0,2.300000e+00,1
31,986,5,6.508000e+01,66,2,2,1,3.295164e-01,4,1,0,2.300000e+00,1
31,987,5,4.519000e+01,19,1,1,1,2.832134e-01,4,1,0,1.300000e+00,1
31,988,5,1.392000e+02,71,3,3,1,8.925060e-01,4,1,0,3.100000e+00,1
31,989,5,9.328000e+01,15,2,2,1,2.542954e-01,4,1,0,2.100000e+00,1
31,990,5,7.311000e+01,51,2,2,1,1.482069e-04,4,1,0,2.300000e+00,1
31,991,5,6.916000e+01,24,2,2,1,3.456819e-01,4,1,0,2.300000e+00,1
31,992,5,1.031500e+02,9,3,3,1,4.433009e-01,4,1,0,3.100000e+00,1
31,993,5,1.220600e+02,47,3,3,1,3.087673e-01,4,1,0,3.100000e+00,1
31,994,5,1.261200e+02,53,3,1,0,2.940648e-01,3,1,0,3.100000e+00,1
31,995,5,9.599000e+01,23,2,3,0,3.674880e-01,2,1,0,2.300000e+00,1
31,996,5,9.599000e+01,23,2,2,1,9.727041e-02,3,1,0,2.300000e+00,1
31,997,5,6.145000e+01,40,2,2,1,3.867927e-01,4,1,0,2.100000e+00,1
31,998,5,2.423000e+01,32,1,3,0,8.119643e-01,4,1,0,1.300000e+00,1
31,999,5,9.431000e+01,14,2,2,1,2.616991e-01,4,1,0,2.100000e+00,1
31,1000,5,2.531000e+01,13,1,1,1,2.794545e-01,4,1,0,1.300000e+00,1
31,1001,5,1.261200e+02,53,3,3,1,7.847886e-01,4,1,0,3.100000e+00,1
31,1002,5,1.015900e+02,37,3,3,1,4.100650e-01,4,1,0,3.200000e+00,1
31,1003,5,8.142000e+01,55,2,2,1,3.635531e-01,4,1,0,2.100000e+00,1
31,1004,5,6.715000e+01,45,2,2,1,1.148853e+00,4,1,0,2.300000e+00,1
31,1005,5,5.437000e+01,46,2,2,1,3.666108e-01,4,1,0,2.100000e+00,1
31,1006,5,4.144000e+01,31,1,3,0,1.088341e+00,3,1,0,1.300000e+00,1
31,1007,5,6.607000e+01,35,2,2,1,4.259941e-01,4,1,0,2.300000e+00,1
31,1008,5,4.144000e+01,31,1,1,1,9.073642e-01,4,1,0,1.300000e+00,1
31,1009,5,9.599000e+01,23,2,3,0,4.052511e-01,4,1,0,2.300000e+00,1
31,1010,5,1.275600e+02,20,3,3,1,1.345641e-01,3,1,0,3.200000e+00,1
31,1011,5,1.987000e+01,43,1,1,1,5.441826e-01,4,1,0,1.200000e+00,1
31,1012,5,1.026200e+02,36,3,3,1,3.856771e-01,4,1,0,3.200000e+00,1
31,1013,5,1.275600e+02,20,3,3,1,3.148978e-01,4,1,0,3.200000e+00,1
31,1014,6,136,18,2,0,0,3.499997e+00,NaN,2,1,3,1
31,1015,6,96,22,1,0,0,3.499707e+00,NaN,2,0,2,1
31,1016,6,59,37,2,0,0,3.499936e+00,NaN,2,0,2,1
31,1017,6,41,30,2,0,0,3.499750e+00,NaN,2,1,1,1
31,1018,6,12,53,2,0,0,3.499565e+00,NaN,2,0,1,1
31,1019,6,91,26,1,1,1,8.992623e-01,NaN,2,0,2,1
31,1020,6,82,54,1,0,0,3.499978e+00,NaN,2,0,2,1
31,1021,6,15,9,2,1,0,2.424108e+00,NaN,2,0,1,1
31,1022,6,114,58,2,0,0,3.499710e+00,NaN,2,0,3,1
31,1023,6,123,32,1,0,0,3.500060e+00,NaN,2,0,3,1
31,1024,6,63,1,1,0,0,3.499697e+00,NaN,2,0,2,1
31,1025,6,138,61,1,0,0,3.499962e+00,NaN,2,1,3,1
31,1026,6,119,19,1,0,0,3.499684e+00,NaN,2,0,3,1
31,1027,6,62,36,2,0,0,3.500143e+00,NaN,2,0,2,1
31,1028,6,107,35,1,0,0,3.499888e+00,NaN,2,0,3,1
31,1029,6,51,11,2,0,0,3.499577e+00,NaN,2,0,2,1
31,1030,6,125,16,1,0,0,3.499535e+00,NaN,2,0,3,1
31,1031,6,45,40,1,0,0,3.499923e+00,NaN,2,0,1,1
31,1032,6,48,50,1,0,0,3.499780e+00,NaN,2,1,1,1
31,1033,6,77,3,2,0,0,3.499583e+00,NaN,2,1,2,1
31,1034,6,117,39,2,0,0,3.499804e+00,NaN,2,0,3,1
31,1035,6,144,31,1,0,0,3.499590e+00,NaN,2,0,3,1
31,1036,6,39,65,1,0,0,3.499929e+00,NaN,2,0,1,1
31,1037,6,141,62,2,0,0,3.500119e+00,NaN,2,0,3,1
31,1038,6,76,67,2,0,0,3.499531e+00,NaN,2,1,2,1
31,1039,6,115,45,2,0,0,3.499974e+00,NaN,2,0,3,1
31,1040,6,105,48,2,0,0,3.499694e+00,NaN,2,1,3,1
31,1041,6,130,6,1,0,0,3.499636e+00,NaN,2,1,3,1
31,1042,6,88,33,1,0,0,3.500027e+00,NaN,2,0,2,1
31,1043,6,143,60,2,0,0,3.499980e+00,NaN,2,0,3,1
31,1044,6,108,66,1,0,0,3.500089e+00,NaN,2,0,3,1
31,1045,6,37,46,2,0,0,3.500047e+00,NaN,2,0,1,1
31,1046,6,116,24,1,0,0,3.499852e+00,NaN,2,0,3,1
31,1047,6,27,42,1,0,0,3.499647e+00,NaN,2,0,1,1
31,1048,6,31,14,2,0,0,3.499688e+00,NaN,2,0,1,1
31,1049,6,28,15,1,0,0,3.499520e+00,NaN,2,0,1,1
31,1050,6,42,55,1,0,0,3.500030e+00,NaN,2,0,1,1
31,1051,6,73,34,1,0,0,3.499837e+00,NaN,2,0,2,1
31,1052,6,56,20,2,0,0,3.499770e+00,NaN,2,0,2,1
31,1053,6,128,44,1,0,0,3.499836e+00,NaN,2,1,3,1
31,1054,6,53,28,1,0,0,3.499937e+00,NaN,2,1,2,1
31,1055,6,109,8,2,0,0,3.499599e+00,NaN,2,0,3,1
31,1056,6,49,56,2,0,0,3.499766e+00,NaN,2,0,2,1
31,1057,6,85,59,2,0,0,3.500108e+00,NaN,2,0,2,1
31,1058,6,43,10,1,0,0,3.499886e+00,NaN,2,1,1,1
31,1059,6,90,69,2,0,0,3.499968e+00,NaN,2,1,2,1
31,1060,6,99,23,2,0,0,3.500093e+00,NaN,2,0,3,1
31,1061,6,118,5,2,0,0,3.499711e+00,NaN,2,0,3,1
31,1062,6,14,64,2,0,0,3.499807e+00,NaN,2,0,1,1
31,1063,6,18,29,1,0,0,3.499564e+00,NaN,2,1,1,1
31,1064,6,97,27,2,0,0,3.500087e+00,NaN,2,0,3,1
31,1065,6,7,21,2,0,0,3.499599e+00,NaN,2,0,1,1
31,1066,6,132,12,1,0,0,3.499864e+00,NaN,2,0,3,1
31,1067,6,22,72,1,0,0,3.499802e+00,NaN,2,0,1,1
31,1068,6,20,71,2,0,0,3.499902e+00,NaN,2,0,1,1
31,1069,6,5,41,1,0,0,3.500118e+00,NaN,2,0,1,1
31,1070,6,32,49,2,0,0,3.499811e+00,NaN,2,1,1,1
31,1071,6,67,17,1,0,0,3.499756e+00,NaN,2,1,2,1
31,1072,6,36,4,1,0,0,3.499718e+00,NaN,2,0,1,1
31,1073,6,69,68,2,0,0,3.499570e+00,NaN,2,1,2,1
31,1074,6,87,43,2,0,0,3.500053e+00,NaN,2,0,2,1
31,1075,6,6,47,1,0,0,3.499737e+00,NaN,2,0,1,1
31,1076,6,47,2,1,0,0,3.499945e+00,NaN,2,0,1,1
31,1077,6,57,57,2,0,0,3.500035e+00,NaN,2,0,2,1
31,1078,6,111,51,2,0,0,3.499526e+00,NaN,2,0,3,1
31,1079,6,89,70,1,0,0,3.499656e+00,NaN,2,1,2,1
31,1080,6,74,38,2,0,0,3.499840e+00,NaN,2,0,2,1
31,1081,6,25,52,1,0,0,3.499660e+00,NaN,2,0,1,1
31,1082,6,75,63,2,0,0,3.499565e+00,NaN,2,0,2,1
31,1083,6,71,7,2,0,0,3.499955e+00,NaN,2,0,2,1
31,1084,6,21,25,1,0,0,3.500050e+00,NaN,2,1,1,1
31,1085,6,131,13,1,0,0,3.499893e+00,NaN,2,0,3,1
31,1086,6,64,66,2,0,0,3.499564e+00,NaN,1,0,2,1
31,1087,6,139,71,1,0,0,3.499541e+00,NaN,1,0,3,1
31,1088,6,81,55,2,0,0,3.499771e+00,NaN,1,0,2,1
31,1089,6,83,10,1,0,0,3.500112e+00,NaN,1,1,2,1
31,1090,6,19,43,2,0,0,3.499564e+00,NaN,1,0,1,1
31,1091,6,106,68,1,0,0,3.499986e+00,NaN,1,1,3,1
31,1092,6,24,13,1,0,0,3.499777e+00,NaN,1,0,1,1
31,1093,6,133,72,1,0,0,3.500088e+00,NaN,1,0,3,1
31,1094,6,55,58,1,0,0,3.499546e+00,NaN,1,0,2,1
31,1095,6,142,29,1,0,0,3.499645e+00,NaN,1,1,3,1
31,1096,6,127,20,1,0,0,3.499737e+00,NaN,1,0,3,1
31,1097,6,30,61,1,0,0,3.500060e+00,NaN,1,1,1,1
31,1098,6,33,54,1,0,0,3.499684e+00,NaN,1,0,1,1
31,1099,6,101,37,1,0,0,3.500035e+00,NaN,1,0,3,1
31,1100,6,93,15,1,0,0,3.499855e+00,NaN,1,0,2,1
31,1101,6,98,64,1,0,0,3.499553e+00,NaN,1,0,3,1
31,1102,6,46,33,1,0,0,3.499620e+00,NaN,1,0,1,1
31,1103,6,23,32,1,0,0,3.499950e+00,NaN,1,0,1,1
31,1104,6,78,30,1,0,0,3.499968e+00,NaN,1,1,2,1
31,1105,6,103,9,2,0,0,3.499899e+00,NaN,1,0,3,1
31,1106,6,40,31,1,0,0,3.499649e+00,NaN,1,0,1,1
31,1107,6,16,22,1,0,0,3.499883e+00,NaN,1,0,1,1
31,1108,6,94,14,1,0,0,3.499769e+00,NaN,1,0,2,1
31,1109,6,34,70,2,0,0,3.500119e+00,NaN,1,1,1,1
31,1110,6,54,46,1,0,0,3.499743e+00,NaN,1,0,2,1
31,1111,6,9,59,2,0,0,3.499915e+00,NaN,1,0,1,1
31,1112,6,8,63,1,0,0,3.499808e+00,NaN,1,0,1,1
31,1113,6,61,40,1,0,0,3.499674e+00,NaN,1,0,2,1
31,1114,6,66,45,1,0,0,3.499952e+00,NaN,1,0,2,1
31,1115,6,122,47,2,0,0,3.499767e+00,NaN,1,0,3,1
31,1116,6,124,42,1,0,0,3.500058e+00,NaN,1,0,3,1
31,1117,6,120,1,2,0,0,3.499770e+00,NaN,1,0,3,1
31,1118,6,26,16,1,0,0,3.500033e+00,NaN,1,0,1,1
31,1119,6,2,69,1,0,0,3.499944e+00,NaN,1,1,1,1
31,1120,6,112,25,1,0,0,3.500048e+00,NaN,1,1,3,1
31,1121,6,126,53,1,0,0,3.500019e+00,NaN,1,0,3,1
31,1122,6,140,56,1,0,0,3.499671e+00,NaN,1,0,3,1
31,1123,6,1,62,2,0,0,3.499705e+00,NaN,1,0,1,1
31,1124,6,3,60,2,0,0,3.499958e+00,NaN,1,0,1,1
31,1125,6,137,7,1,0,0,3.499944e+00,NaN,1,0,3,1
31,1126,6,129,34,1,0,0,3.499837e+00,NaN,1,0,3,1
31,1127,6,102,36,2,0,0,3.499808e+00,NaN,1,0,3,1
31,1128,6,17,12,2,0,0,3.499942e+00,NaN,1,0,1,1
31,1129,6,10,3,1,0,0,3.499911e+00,NaN,1,1,1,1
31,1130,6,38,38,1,0,0,3.499618e+00,NaN,1,0,1,1
31,1131,6,92,49,2,2,1,1.898353e+00,NaN,1,1,2,1
31,1132,6,50,48,1,1,1,8.927263e-01,NaN,1,1,2,1
31,1133,6,44,19,2,2,1,1.663208e+00,NaN,1,0,1,1
31,1134,6,121,41,1,1,1,1.738535e+00,NaN,1,0,3,1
31,1135,6,52,4,2,2,1,9.235052e-01,NaN,1,0,2,1
31,1136,6,13,44,1,1,1,1.573112e+00,NaN,1,1,1,1
31,1137,6,100,57,1,1,1,1.668433e+00,NaN,1,0,3,1
31,1138,6,60,27,1,1,1,1.592162e+00,NaN,1,0,2,1
31,1139,6,58,39,2,2,1,1.470328e+00,NaN,1,0,2,1
31,1140,6,95,23,1,1,1,1.490231e+00,NaN,1,0,2,1
31,1141,6,65,35,1,1,1,1.133838e+00,NaN,1,0,2,1
31,1142,6,135,28,2,2,1,1.734169e+00,NaN,1,1,3,1
31,1143,6,11,26,2,2,1,1.791082e+00,NaN,1,0,1,1
31,1144,6,35,67,2,2,1,1.541953e+00,NaN,1,1,1,1
31,1145,6,4,18,1,1,1,9.428555e-01,NaN,1,1,1,1
31,1146,6,79,2,1,1,1,2.127597e+00,NaN,1,0,2,1
31,1147,6,86,50,2,2,1,1.544516e+00,NaN,1,1,2,1
31,1148,6,134,11,2,2,1,2.608954e+00,NaN,1,0,3,1
31,1149,6,104,17,2,2,1,1.599269e+00,NaN,1,1,3,1
31,1150,6,68,24,2,2,1,9.579745e-01,NaN,1,0,2,1
31,1151,6,113,21,1,1,1,1.309802e+00,NaN,1,0,3,1
31,1152,6,29,6,1,2,0,2.136058e+00,NaN,1,1,1,1
31,1153,6,110,52,2,2,1,2.472686e+00,NaN,1,0,3,1
31,1154,6,70,65,1,1,1,1.076156e+00,NaN,1,0,2,1
31,1155,6,84,8,2,2,1,9.277166e-01,NaN,1,0,2,1
31,1156,6,72,51,1,1,1,8.730579e-01,NaN,1,0,2,1
31,1157,6,80,5,2,2,1,7.802590e-01,NaN,1,0,2,1
