Subject,Trial,Cond,ImageNum,CueNum,Correct,Resp,Accuracy,RT,CueRep,ImageType,Baseline,Category,Block
32,1,1,111,NaN,NaN,1,NaN,7.760392e-01,NaN,0,0,3,1
32,2,1,36,NaN,NaN,1,NaN,4.359885e-01,NaN,1,0,1,1
32,3,1,26,NaN,NaN,1,NaN,8.916648e-01,NaN,0,0,1,1
32,4,1,80,NaN,NaN,1,NaN,3.367150e-01,NaN,2,0,2,1
32,5,1,118,NaN,NaN,1,NaN,7.560387e-01,NaN,1,0,3,1
32,6,1,77,NaN,NaN,1,NaN,1.294789e+00,NaN,1,0,2,1
32,7,1,7,NaN,NaN,1,NaN,1.027289e+00,NaN,1,0,1,1
32,8,1,103,NaN,NaN,1,NaN,6.988561e-01,NaN,2,0,3,1
32,9,1,101,NaN,NaN,2,NaN,2.919305e+00,NaN,0,0,3,1
32,10,1,127,NaN,NaN,1,NaN,9.955852e-01,NaN,2,1,3,1
32,11,1,30,NaN,NaN,1,NaN,3.725164e-01,NaN,2,0,1,1
32,12,1,105,NaN,NaN,1,NaN,3.503508e-01,NaN,0,0,3,1
32,13,1,133,NaN,NaN,2,NaN,9.931964e-01,NaN,2,0,3,1
32,14,1,75,NaN,NaN,1,NaN,4.269199e-01,NaN,1,0,2,1
32,15,1,56,NaN,NaN,1,NaN,4.503340e-01,NaN,1,0,2,1
32,16,1,108,NaN,NaN,1,NaN,6.653572e-01,NaN,0,0,3,1
32,17,1,63,NaN,NaN,1,NaN,6.152504e-01,NaN,0,0,2,1
32,18,1,58,NaN,NaN,1,NaN,5.998144e-01,NaN,0,1,2,1
32,19,1,8,NaN,NaN,2,NaN,1.192580e+00,NaN,2,0,1,1
32,20,1,67,NaN,NaN,1,NaN,6.023765e-01,NaN,0,0,2,1
32,21,1,135,NaN,NaN,1,NaN,4.659505e-01,NaN,2,0,3,1
32,22,1,4,NaN,NaN,1,NaN,6.242614e-01,NaN,2,0,1,1
32,23,1,24,NaN,NaN,1,NaN,9.202978e-01,NaN,0,0,1,1
32,24,1,101,NaN,NaN,1,NaN,4.521604e-01,NaN,2,0,3,1
32,25,1,140,NaN,NaN,1,NaN,7.470531e-01,NaN,0,0,3,1
32,26,1,2,NaN,NaN,1,NaN,6.458200e-01,NaN,0,0,1,1
32,27,1,142,NaN,NaN,1,NaN,6.761919e-01,NaN,2,1,3,1
32,28,1,1,NaN,NaN,1,NaN,5.866770e-01,NaN,0,0,1,1
32,29,1,120,NaN,NaN,1,NaN,4.277497e-01,NaN,2,0,3,1
32,30,1,36,NaN,NaN,1,NaN,5.950260e-01,NaN,0,0,1,1
32,31,1,132,NaN,NaN,1,NaN,6.756694e-01,NaN,1,1,3,1
32,32,1,111,NaN,NaN,1,NaN,5.779446e-01,NaN,1,0,3,1
32,33,1,16,NaN,NaN,1,NaN,5.793325e-01,NaN,2,1,1,1
32,34,1,39,NaN,NaN,2,NaN,8.045547e-01,NaN,1,0,1,1
32,35,1,51,NaN,NaN,1,NaN,6.141390e-01,NaN,1,0,2,1
32,36,1,4,NaN,NaN,1,NaN,6.694399e-01,NaN,0,0,1,1
32,37,1,125,NaN,NaN,1,NaN,6.750919e-01,NaN,0,0,3,1
32,38,1,43,NaN,NaN,1,NaN,6.735854e-01,NaN,1,0,1,1
32,39,1,106,NaN,NaN,1,NaN,8.317506e-01,NaN,0,0,3,1
32,40,1,20,NaN,NaN,1,NaN,1.598959e+00,NaN,1,0,1,1
32,41,1,62,NaN,NaN,1,NaN,5.196685e-01,NaN,0,0,2,1
32,42,1,18,NaN,NaN,1,NaN,6.915225e-01,NaN,1,1,1,1
32,43,1,95,NaN,NaN,1,NaN,4.168431e-01,NaN,0,0,2,1
32,44,1,48,NaN,NaN,1,NaN,5.698274e-01,NaN,1,1,1,1
32,45,1,10,NaN,NaN,1,NaN,4.997132e-01,NaN,0,1,1,1
32,46,1,139,NaN,NaN,1,NaN,6.647574e-01,NaN,0,0,3,1
32,47,1,12,NaN,NaN,2,NaN,1.527530e+00,NaN,1,0,1,1
32,48,1,81,NaN,NaN,1,NaN,5.470717e-01,NaN,2,1,2,1
32,49,1,48,NaN,NaN,1,NaN,9.740160e-01,NaN,0,1,1,1
32,50,1,22,NaN,NaN,1,NaN,4.718135e-01,NaN,0,0,1,1
32,51,1,33,NaN,NaN,1,NaN,6.140947e-01,NaN,0,0,1,1
32,52,1,38,NaN,NaN,1,NaN,5.658548e-01,NaN,0,0,1,1
32,53,1,75,NaN,NaN,1,NaN,6.403696e-01,NaN,0,0,2,1
32,54,1,131,NaN,NaN,2,NaN,8.392927e-01,NaN,0,1,3,1
32,55,1,114,NaN,NaN,1,NaN,5.105546e-01,NaN,0,0,3,1
32,56,1,109,NaN,NaN,1,NaN,5.243914e-01,NaN,1,0,3,1
32,57,1,15,NaN,NaN,1,NaN,4.795576e-01,NaN,1,0,1,1
32,58,1,96,NaN,NaN,1,NaN,3.649377e-01,NaN,1,0,2,1
32,59,1,27,NaN,NaN,1,NaN,8.470272e-01,NaN,1,0,1,1
32,60,1,59,NaN,NaN,1,NaN,3.334219e-01,NaN,1,0,2,1
32,61,1,57,NaN,NaN,1,NaN,2.899651e-01,NaN,0,0,2,1
32,62,1,91,NaN,NaN,1,NaN,8.463142e-01,NaN,0,0,2,1
32,63,1,130,NaN,NaN,2,NaN,6.289065e-01,NaN,1,0,3,1
32,64,1,74,NaN,NaN,1,NaN,9.564738e-01,NaN,1,0,2,1
32,65,1,63,NaN,NaN,1,NaN,3.991998e-01,NaN,1,0,2,1
32,66,1,136,NaN,NaN,2,NaN,2.551676e+00,NaN,0,0,3,1
32,67,1,32,NaN,NaN,2,NaN,3.306233e+00,NaN,1,1,1,1
32,68,1,96,NaN,NaN,1,NaN,7.033636e-01,NaN,0,0,2,1
32,69,1,86,NaN,NaN,1,NaN,7.564999e-01,NaN,2,0,2,1
32,70,1,19,NaN,NaN,2,NaN,1.134820e+00,NaN,0,0,1,1
32,71,1,138,NaN,NaN,1,NaN,6.261319e-01,NaN,1,1,3,1
32,72,1,1,NaN,NaN,1,NaN,1.338164e+00,NaN,2,0,1,1
32,73,1,83,NaN,NaN,1,NaN,7.095142e-01,NaN,0,0,2,1
32,74,1,85,NaN,NaN,1,NaN,6.982162e-01,NaN,1,0,2,1
32,75,1,60,NaN,NaN,1,NaN,9.908605e-01,NaN,0,0,2,1
32,76,1,129,NaN,NaN,1,NaN,5.923531e-01,NaN,0,0,3,1
32,77,1,141,NaN,NaN,1,NaN,6.257652e-01,NaN,1,0,3,1
32,78,1,65,NaN,NaN,1,NaN,7.947771e-01,NaN,0,1,2,1
32,79,1,52,NaN,NaN,1,NaN,1.228138e+00,NaN,0,0,2,1
32,80,1,45,NaN,NaN,2,NaN,1.042370e+00,NaN,0,1,1,1
32,81,1,22,NaN,NaN,1,NaN,4.898574e-01,NaN,1,0,1,1
32,82,1,9,NaN,NaN,1,NaN,7.112616e-01,NaN,2,0,1,1
32,83,1,23,NaN,NaN,1,NaN,6.752036e-01,NaN,2,0,1,1
32,84,1,53,NaN,NaN,1,NaN,7.451548e-01,NaN,0,0,2,1
32,85,1,100,NaN,NaN,1,NaN,7.088318e-01,NaN,0,0,3,1
32,86,1,64,NaN,NaN,1,NaN,6.254769e-01,NaN,2,0,2,1
32,87,1,88,NaN,NaN,1,NaN,1.409638e+00,NaN,0,0,2,1
32,88,1,21,NaN,NaN,1,NaN,3.701518e-01,NaN,0,0,1,1
32,89,1,137,NaN,NaN,1,NaN,5.400888e-01,NaN,0,1,3,1
32,90,1,65,NaN,NaN,1,NaN,5.356439e-01,NaN,2,1,2,1
32,91,1,3,NaN,NaN,2,NaN,1.306981e-04,NaN,0,0,1,1
32,92,1,74,NaN,NaN,1,NaN,3.082949e-01,NaN,0,0,2,1
32,93,1,135,NaN,NaN,1,NaN,2.985271e+00,NaN,0,0,3,1
32,94,1,31,NaN,NaN,1,NaN,1.714832e+00,NaN,0,0,1,1
32,95,1,17,NaN,NaN,1,NaN,3.750788e-01,NaN,0,0,1,1
32,96,1,51,NaN,NaN,1,NaN,5.291098e-01,NaN,0,0,2,1
32,97,1,72,NaN,NaN,1,NaN,7.251923e-01,NaN,2,0,2,1
32,98,1,15,NaN,NaN,1,NaN,8.415348e-01,NaN,0,0,1,1
32,99,1,41,NaN,NaN,1,NaN,2.376814e+00,NaN,1,0,1,1
32,100,1,115,NaN,NaN,2,NaN,1.234566e+00,NaN,0,1,3,1
32,101,1,138,NaN,NaN,1,NaN,7.219372e-01,NaN,0,1,3,1
32,102,1,72,NaN,NaN,1,NaN,1.134111e+00,NaN,0,0,2,1
32,103,1,25,NaN,NaN,1,NaN,7.295147e-01,NaN,1,0,1,1
32,104,1,62,NaN,NaN,1,NaN,1.325129e+00,NaN,1,0,2,1
32,105,1,40,NaN,NaN,1,NaN,7.850360e-01,NaN,0,1,1,1
32,106,1,30,NaN,NaN,1,NaN,5.232444e-01,NaN,0,0,1,1
32,107,1,38,NaN,NaN,1,NaN,9.509111e-01,NaN,2,0,1,1
32,108,1,117,NaN,NaN,2,NaN,9.700851e-01,NaN,0,1,3,1
32,109,1,70,NaN,NaN,1,NaN,5.958189e-01,NaN,0,0,2,1
32,110,1,88,NaN,NaN,1,NaN,1.181352e+00,NaN,1,0,2,1
32,111,1,100,NaN,NaN,1,NaN,4.867783e-01,NaN,2,0,3,1
32,112,1,105,NaN,NaN,2,NaN,3.347554e+00,NaN,1,0,3,1
32,113,1,12,NaN,NaN,1,NaN,1.286560e+00,NaN,0,0,1,1
32,114,1,6,NaN,NaN,1,NaN,7.238639e-01,NaN,1,0,1,1
32,115,1,11,NaN,NaN,1,NaN,9.610014e-01,NaN,0,1,1,1
32,116,1,42,NaN,NaN,1,NaN,1.571656e+00,NaN,0,0,1,1
32,117,1,77,NaN,NaN,1,NaN,8.054219e-01,NaN,0,0,2,1
32,118,1,53,NaN,NaN,1,NaN,3.422345e-01,NaN,1,0,2,1
32,119,1,11,NaN,NaN,1,NaN,6.813890e-01,NaN,2,1,1,1
32,120,1,89,NaN,NaN,1,NaN,8.709384e-01,NaN,1,0,2,1
32,121,1,93,NaN,NaN,1,NaN,8.770326e-01,NaN,0,0,2,1
32,122,1,18,NaN,NaN,1,NaN,6.749781e-01,NaN,0,1,1,1
32,123,1,16,NaN,NaN,1,NaN,6.169891e-01,NaN,0,1,1,1
32,124,1,52,NaN,NaN,1,NaN,5.699255e-01,NaN,2,0,2,1
32,125,1,42,NaN,NaN,1,NaN,7.400808e-01,NaN,1,0,1,1
32,126,1,59,NaN,NaN,1,NaN,3.833221e-01,NaN,0,0,2,1
32,127,1,121,NaN,NaN,1,NaN,6.648151e-01,NaN,2,0,3,1
32,128,1,80,NaN,NaN,1,NaN,3.428506e-01,NaN,0,0,2,1
32,129,1,66,NaN,NaN,1,NaN,7.459330e-01,NaN,2,0,2,1
32,130,1,115,NaN,NaN,1,NaN,7.566237e-01,NaN,1,1,3,1
32,131,1,91,NaN,NaN,1,NaN,5.434019e-01,NaN,1,0,2,1
32,132,1,13,NaN,NaN,1,NaN,7.306928e-01,NaN,0,1,1,1
32,133,1,41,NaN,NaN,1,NaN,7.821229e-01,NaN,0,0,1,1
32,134,1,125,NaN,NaN,1,NaN,3.199273e-01,NaN,1,0,3,1
32,135,1,5,NaN,NaN,1,NaN,4.995077e-01,NaN,0,0,1,1
32,136,1,106,NaN,NaN,1,NaN,7.921794e-01,NaN,2,0,3,1
32,137,1,23,NaN,NaN,1,NaN,3.461298e-01,NaN,0,0,1,1
32,138,1,128,NaN,NaN,2,NaN,6.845179e-01,NaN,0,0,3,1
32,139,1,122,NaN,NaN,2,NaN,1.073623e+00,NaN,0,0,3,1
32,140,1,78,NaN,NaN,1,NaN,8.806424e-01,NaN,2,1,2,1
32,141,1,54,NaN,NaN,1,NaN,5.417417e-01,NaN,0,0,2,1
32,142,1,90,NaN,NaN,1,NaN,4.012976e-01,NaN,0,1,2,1
32,143,1,143,NaN,NaN,2,NaN,1.146075e+00,NaN,0,1,3,1
32,144,1,55,NaN,NaN,1,NaN,7.250867e-01,NaN,0,0,2,1
32,145,1,20,NaN,NaN,2,NaN,8.813617e-01,NaN,0,0,1,1
32,146,1,144,NaN,NaN,1,NaN,6.466957e-01,NaN,0,1,3,1
32,147,1,19,NaN,NaN,1,NaN,9.976423e-01,NaN,2,0,1,1
32,148,1,32,NaN,NaN,1,NaN,5.828025e-01,NaN,0,1,1,1
32,149,1,82,NaN,NaN,1,NaN,3.840749e-01,NaN,1,1,2,1
32,150,1,137,NaN,NaN,1,NaN,6.419000e-01,NaN,2,1,3,1
32,151,1,81,NaN,NaN,1,NaN,6.492046e-01,NaN,0,1,2,1
32,152,1,83,NaN,NaN,1,NaN,6.476290e-01,NaN,2,0,2,1
32,153,1,86,NaN,NaN,1,NaN,4.702403e-01,NaN,0,0,2,1
32,154,1,113,NaN,NaN,1,NaN,3.644342e-01,NaN,0,0,3,1
32,155,1,37,NaN,NaN,2,NaN,1.182391e+00,NaN,1,0,1,1
32,156,1,66,NaN,NaN,1,NaN,3.279962e-01,NaN,0,0,2,1
32,157,1,50,NaN,NaN,1,NaN,9.230913e-01,NaN,2,0,2,1
32,158,1,116,NaN,NaN,1,NaN,6.231313e-01,NaN,1,0,3,1
32,159,1,79,NaN,NaN,1,NaN,6.631320e-01,NaN,2,1,2,1
32,160,1,123,NaN,NaN,2,NaN,8.133812e-01,NaN,0,0,3,1
32,161,1,69,NaN,NaN,1,NaN,6.135945e-01,NaN,1,0,2,1
32,162,1,144,NaN,NaN,1,NaN,6.371408e-01,NaN,1,1,3,1
32,163,1,110,NaN,NaN,2,NaN,6.136878e-01,NaN,0,0,3,1
32,164,1,84,NaN,NaN,1,NaN,6.376467e-01,NaN,0,1,2,1
32,165,1,60,NaN,NaN,1,NaN,9.886748e-01,NaN,2,0,2,1
32,166,1,34,NaN,NaN,1,NaN,4.541710e-01,NaN,0,0,1,1
32,167,1,67,NaN,NaN,1,NaN,2.695480e-01,NaN,1,0,2,1
32,168,1,124,NaN,NaN,2,NaN,7.552913e-01,NaN,0,0,3,1
32,169,1,2,NaN,NaN,1,NaN,3.668393e-01,NaN,2,0,1,1
32,170,1,50,NaN,NaN,1,NaN,3.692097e-01,NaN,0,0,2,1
32,171,1,87,NaN,NaN,1,NaN,3.793336e-01,NaN,0,0,2,1
32,172,1,114,NaN,NaN,1,NaN,4.286878e-01,NaN,1,0,3,1
32,173,1,57,NaN,NaN,1,NaN,3.640065e-01,NaN,1,0,2,1
32,174,1,82,NaN,NaN,1,NaN,3.100800e-01,NaN,0,1,2,1
32,175,1,49,NaN,NaN,1,NaN,2.825672e-01,NaN,1,0,2,1
32,176,1,37,NaN,NaN,2,NaN,3.679278e-01,NaN,0,0,1,1
32,177,1,89,NaN,NaN,1,NaN,6.980496e-01,NaN,0,0,2,1
32,178,1,126,NaN,NaN,2,NaN,8.868700e-01,NaN,2,0,3,1
32,179,1,84,NaN,NaN,1,NaN,7.320693e-01,NaN,2,1,2,1
32,180,1,134,NaN,NaN,2,NaN,6.554860e-01,NaN,2,0,3,1
32,181,1,87,NaN,NaN,1,NaN,3.421376e-01,NaN,1,0,2,1
32,182,1,118,NaN,NaN,1,NaN,8.255546e-01,NaN,0,0,3,1
32,183,1,90,NaN,NaN,1,NaN,3.374596e-01,NaN,1,1,2,1
32,184,1,76,NaN,NaN,1,NaN,9.890171e-01,NaN,1,1,2,1
32,185,1,130,NaN,NaN,2,NaN,1.086411e+00,NaN,0,0,3,1
32,186,1,43,NaN,NaN,1,NaN,3.715674e-01,NaN,0,0,1,1
32,187,1,116,NaN,NaN,1,NaN,4.536687e-01,NaN,0,0,3,1
32,188,1,124,NaN,NaN,1,NaN,6.124484e-01,NaN,2,0,3,1
32,189,1,47,NaN,NaN,1,NaN,3.323546e-01,NaN,1,0,1,1
32,190,1,127,NaN,NaN,1,NaN,7.518041e-01,NaN,0,1,3,1
32,191,1,6,NaN,NaN,2,NaN,1.802581e+00,NaN,0,0,1,1
32,192,1,97,NaN,NaN,1,NaN,7.870176e-01,NaN,0,1,3,1
32,193,1,44,NaN,NaN,1,NaN,3.725466e-01,NaN,2,1,1,1
32,194,1,70,NaN,NaN,1,NaN,4.955333e-01,NaN,2,0,2,1
32,195,1,68,NaN,NaN,1,NaN,3.159602e-01,NaN,0,0,2,1
32,196,1,14,NaN,NaN,1,NaN,6.318848e-01,NaN,0,1,1,1
32,197,1,26,NaN,NaN,1,NaN,3.277409e-01,NaN,2,0,1,1
32,198,1,5,NaN,NaN,1,NaN,3.395188e-01,NaN,1,0,1,1
32,199,1,94,NaN,NaN,1,NaN,3.588643e-01,NaN,0,1,2,1
32,200,1,39,NaN,NaN,2,NaN,3.055369e-01,NaN,0,0,1,1
32,201,1,7,NaN,NaN,1,NaN,3.984584e-01,NaN,0,0,1,1
32,202,1,98,NaN,NaN,2,NaN,3.031508e-01,NaN,2,0,3,1
32,203,1,129,NaN,NaN,1,NaN,2.995885e-01,NaN,2,0,3,1
32,204,1,25,NaN,NaN,1,NaN,4.165860e-01,NaN,0,0,1,1
32,205,1,102,NaN,NaN,1,NaN,4.725868e-01,NaN,0,0,3,1
32,206,1,141,NaN,NaN,1,NaN,3.907267e-01,NaN,0,0,3,1
32,207,1,92,NaN,NaN,1,NaN,4.957552e-01,NaN,2,1,2,1
32,208,1,29,NaN,NaN,1,NaN,5.166093e-01,NaN,2,0,1,1
32,209,1,113,NaN,NaN,1,NaN,9.686879e-01,NaN,2,0,3,1
32,210,1,29,NaN,NaN,1,NaN,6.188173e-01,NaN,0,0,1,1
32,211,1,110,NaN,NaN,1,NaN,4.107655e-01,NaN,2,0,3,1
32,212,1,108,NaN,NaN,1,NaN,3.476327e-01,NaN,1,0,3,1
32,213,1,136,NaN,NaN,1,NaN,4.786548e-01,NaN,1,0,3,1
32,214,1,46,NaN,NaN,2,NaN,5.321651e-01,NaN,2,0,1,1
32,215,1,102,NaN,NaN,1,NaN,5.833540e-01,NaN,2,0,3,1
32,216,1,139,NaN,NaN,1,NaN,3.527239e-01,NaN,2,0,3,1
32,217,1,119,NaN,NaN,1,NaN,3.315269e-01,NaN,0,0,3,1
32,218,1,76,NaN,NaN,1,NaN,3.509210e-01,NaN,0,1,2,1
32,219,1,56,NaN,NaN,1,NaN,3.218664e-01,NaN,0,0,2,1
32,220,1,107,NaN,NaN,1,NaN,6.855436e-01,NaN,0,0,3,1
32,221,1,126,NaN,NaN,2,NaN,2.907800e+00,NaN,0,0,3,1
32,222,1,117,NaN,NaN,2,NaN,7.125843e-01,NaN,1,1,3,1
32,223,1,31,NaN,NaN,1,NaN,4.364316e-01,NaN,1,0,1,1
32,224,1,92,NaN,NaN,1,NaN,3.401023e-01,NaN,0,1,2,1
32,225,1,33,NaN,NaN,1,NaN,3.431247e-01,NaN,2,0,1,1
32,226,1,119,NaN,NaN,1,NaN,3.218951e-01,NaN,1,0,3,1
32,227,1,112,NaN,NaN,1,NaN,3.898390e-01,NaN,2,0,3,1
32,228,1,71,NaN,NaN,1,NaN,3.513490e-01,NaN,1,1,2,1
32,229,1,3,NaN,NaN,1,NaN,3.462294e-01,NaN,2,0,1,1
32,230,1,14,NaN,NaN,1,NaN,6.759634e-01,NaN,1,1,1,1
32,231,1,8,NaN,NaN,1,NaN,5.309765e-01,NaN,0,0,1,1
32,232,1,68,NaN,NaN,1,NaN,1.142168e+00,NaN,2,0,2,1
32,233,1,28,NaN,NaN,2,NaN,3.137422e-01,NaN,1,1,1,1
32,234,1,97,NaN,NaN,1,NaN,4.216591e-01,NaN,1,1,3,1
32,235,1,21,NaN,NaN,1,NaN,3.497230e-01,NaN,1,0,1,1
32,236,1,61,NaN,NaN,1,NaN,5.524732e-01,NaN,2,1,2,1
32,237,1,49,NaN,NaN,1,NaN,3.955815e-01,NaN,0,0,2,1
32,238,1,17,NaN,NaN,1,NaN,5.239444e-01,NaN,2,0,1,1
32,239,1,45,NaN,NaN,1,NaN,3.764968e-01,NaN,1,1,1,1
32,240,1,40,NaN,NaN,1,NaN,5.947184e-01,NaN,2,1,1,1
32,241,1,71,NaN,NaN,1,NaN,5.557666e-01,NaN,0,1,2,1
32,242,1,61,NaN,NaN,1,NaN,6.306846e-01,NaN,0,1,2,1
32,243,1,103,NaN,NaN,1,NaN,3.020225e-01,NaN,0,0,3,1
32,244,1,54,NaN,NaN,1,NaN,2.283400e+00,NaN,2,0,2,1
32,245,1,10,NaN,NaN,1,NaN,5.603857e-01,NaN,2,1,1,1
32,246,1,58,NaN,NaN,1,NaN,5.952940e-01,NaN,2,1,2,1
32,247,1,85,NaN,NaN,1,NaN,3.010935e-01,NaN,0,0,2,1
32,248,1,69,NaN,NaN,1,NaN,5.860579e-01,NaN,0,0,2,1
32,249,1,64,NaN,NaN,1,NaN,3.878145e-01,NaN,0,0,2,1
32,250,1,107,NaN,NaN,1,NaN,5.968331e-01,NaN,1,0,3,1
32,251,1,128,NaN,NaN,1,NaN,8.376978e-01,NaN,1,0,3,1
32,252,1,34,NaN,NaN,1,NaN,3.090305e-01,NaN,2,0,1,1
32,253,1,27,NaN,NaN,1,NaN,3.542518e-01,NaN,0,0,1,1
32,254,1,47,NaN,NaN,1,NaN,3.572166e-01,NaN,0,0,1,1
32,255,1,131,NaN,NaN,2,NaN,5.351769e+00,NaN,1,1,3,1
32,256,1,94,NaN,NaN,1,NaN,3.464455e-01,NaN,2,1,2,1
32,257,1,132,NaN,NaN,1,NaN,3.895860e-01,NaN,0,1,3,1
32,258,1,35,NaN,NaN,2,NaN,4.864928e-01,NaN,0,0,1,1
32,259,1,35,NaN,NaN,2,NaN,6.761795e-01,NaN,2,0,1,1
32,260,1,28,NaN,NaN,1,NaN,3.859355e-01,NaN,0,1,1,1
32,261,1,44,NaN,NaN,1,NaN,6.593384e-01,NaN,0,1,1,1
32,262,1,140,NaN,NaN,1,NaN,3.143145e-01,NaN,2,0,3,1
32,263,1,79,NaN,NaN,1,NaN,4.626930e-01,NaN,0,1,2,1
32,264,1,112,NaN,NaN,1,NaN,6.769166e-01,NaN,0,0,3,1
32,265,1,9,NaN,NaN,1,NaN,3.786906e-01,NaN,0,0,1,1
32,266,1,24,NaN,NaN,1,NaN,3.241607e-01,NaN,2,0,1,1
32,267,1,123,NaN,NaN,2,NaN,2.592248e+00,NaN,1,0,3,1
32,268,1,121,NaN,NaN,1,NaN,3.454869e-01,NaN,0,0,3,1
32,269,1,109,NaN,NaN,1,NaN,6.604208e-01,NaN,0,0,3,1
32,270,1,73,NaN,NaN,1,NaN,3.789970e-01,NaN,0,0,2,1
32,271,1,104,NaN,NaN,2,NaN,1.724603e+00,NaN,0,0,3,1
32,272,1,95,NaN,NaN,1,NaN,3.856645e-01,NaN,2,0,2,1
32,273,1,143,NaN,NaN,2,NaN,1.450743e+00,NaN,1,1,3,1
32,274,1,120,NaN,NaN,2,NaN,4.848846e+00,NaN,0,0,3,1
32,275,1,142,NaN,NaN,1,NaN,3.686410e-01,NaN,0,1,3,1
32,276,1,55,NaN,NaN,1,NaN,9.631288e-01,NaN,2,0,2,1
32,277,1,122,NaN,NaN,2,NaN,6.771351e-01,NaN,2,0,3,1
32,278,1,73,NaN,NaN,1,NaN,3.229980e-01,NaN,1,0,2,1
32,279,1,99,NaN,NaN,2,NaN,9.827457e-01,NaN,1,0,3,1
32,280,1,46,NaN,NaN,2,NaN,6.802221e-01,NaN,0,0,1,1
32,281,1,93,NaN,NaN,1,NaN,3.495376e-01,NaN,2,0,2,1
32,282,1,133,NaN,NaN,2,NaN,9.130369e-01,NaN,0,0,3,1
32,283,1,104,NaN,NaN,1,NaN,4.682333e-01,NaN,2,0,3,1
32,284,1,78,NaN,NaN,1,NaN,2.826004e-01,NaN,0,1,2,1
32,285,1,99,NaN,NaN,2,NaN,1.039745e+00,NaN,0,0,3,1
32,286,1,98,NaN,NaN,1,NaN,6.632986e-01,NaN,0,0,3,1
32,287,1,134,NaN,NaN,2,NaN,4.372949e-01,NaN,0,0,3,1
32,288,1,13,NaN,NaN,1,NaN,3.808615e-01,NaN,2,1,1,1
32,360,2,91,3,1,1,1,2.099301e+00,NaN,1,0,2,1
32,361,2,71,29,2,2,1,1.004603e+00,NaN,1,1,2,1
32,362,2,109,70,1,1,1,1.378112e+00,NaN,1,0,3,1
32,363,2,82,56,2,2,1,9.202326e-01,NaN,1,1,2,1
32,364,2,73,9,2,1,0,1.536683e+00,NaN,1,0,2,1
32,365,2,20,51,2,0,0,3.500035e+00,NaN,1,0,1,1
32,366,2,141,2,2,2,1,1.722175e+00,NaN,1,0,3,1
32,367,2,14,52,1,1,1,1.203257e+00,NaN,1,1,1,1
32,368,2,18,23,2,2,1,1.200408e+00,NaN,1,1,1,1
32,369,2,25,15,2,2,1,1.661852e+00,NaN,1,0,1,1
32,370,2,12,63,2,2,1,2.248539e+00,NaN,1,0,1,1
32,371,2,51,28,2,2,1,9.242933e-01,NaN,1,0,2,1
32,372,2,62,71,2,1,0,1.380725e+00,NaN,1,0,2,1
32,373,2,132,13,1,1,1,1.258923e+00,NaN,1,1,3,1
32,374,2,111,53,1,1,1,1.710659e+00,NaN,1,0,3,1
32,375,2,96,4,2,2,1,9.037724e-01,NaN,1,0,2,1
32,376,2,53,58,1,1,1,1.329421e+00,NaN,1,0,2,1
32,377,2,47,45,2,2,1,1.745386e+00,NaN,1,0,1,1
32,378,2,43,39,2,2,1,2.128924e+00,NaN,1,0,1,1
32,379,2,90,18,2,1,0,1.240798e+00,NaN,1,1,2,1
32,380,2,136,5,1,1,1,1.124869e+00,NaN,1,0,3,1
32,381,2,99,1,2,2,1,1.573975e+00,NaN,1,0,3,1
32,382,2,114,50,1,1,1,1.188713e+00,NaN,1,0,3,1
32,383,2,74,66,1,1,1,2.490454e+00,NaN,1,0,2,1
32,384,3,14,52,1,1,1,7.867704e-01,NaN,1,1,1,1
32,385,3,20,51,2,2,1,3.272737e+00,NaN,1,0,1,1
32,386,3,73,9,2,2,1,1.787563e+00,NaN,1,0,2,1
32,387,3,114,50,1,1,1,1.402033e+00,NaN,1,0,3,1
32,388,3,12,63,2,2,1,1.558962e+00,NaN,1,0,1,1
32,389,3,71,29,2,2,1,8.066308e-01,NaN,1,1,2,1
32,390,3,25,15,1,1,1,1.204425e+00,NaN,1,0,1,1
32,391,3,51,28,1,1,1,1.001675e+00,NaN,1,0,2,1
32,392,3,43,39,1,1,1,1.558776e+00,NaN,1,0,1,1
32,393,3,91,3,2,2,1,7.745466e-01,NaN,1,0,2,1
32,394,3,74,66,2,2,1,1.181017e+00,NaN,1,0,2,1
32,395,3,132,13,1,1,1,8.354669e-01,NaN,1,1,3,1
32,396,3,62,71,1,1,1,7.832702e-01,NaN,1,0,2,1
32,397,3,99,1,1,1,1,1.205387e+00,NaN,1,0,3,1
32,398,3,111,53,1,1,1,1.810728e+00,NaN,1,0,3,1
32,399,3,82,56,2,2,1,7.123027e-01,NaN,1,1,2,1
32,400,3,18,23,1,1,1,1.912978e+00,NaN,1,1,1,1
32,401,3,90,18,1,2,0,1.481956e+00,NaN,1,1,2,1
32,402,3,53,58,1,1,1,7.158928e-01,NaN,1,0,2,1
32,403,3,96,4,1,1,1,5.965020e-01,NaN,1,0,2,1
32,404,3,141,2,1,1,1,3.097809e+00,NaN,1,0,3,1
32,405,3,136,5,1,1,1,6.433286e-01,NaN,1,0,3,1
32,406,3,47,45,2,2,1,8.873503e-01,NaN,1,0,1,1
32,407,3,109,70,2,2,1,1.377890e+00,NaN,1,0,3,1
32,432,2,119,64,2,2,1,8.446191e-01,NaN,1,0,3,2
32,433,2,36,32,1,1,1,1.232392e+00,NaN,1,0,1,2
32,434,2,85,47,1,1,1,9.005644e-01,NaN,1,0,2,2
32,435,2,7,22,2,2,1,1.437647e+00,NaN,1,0,1,2
32,436,2,144,12,2,2,1,8.176656e-01,NaN,1,1,3,2
32,437,2,89,55,1,1,1,2.326485e+00,NaN,1,0,2,2
32,438,2,107,25,1,1,1,1.511095e+00,NaN,1,0,3,2
32,439,2,59,7,2,2,1,1.072702e+00,NaN,1,0,2,2
32,440,2,108,38,2,2,1,1.083680e+00,NaN,1,0,3,2
32,441,2,31,19,1,1,1,1.501302e+00,NaN,1,0,1,2
32,442,2,48,8,1,1,1,1.631258e+00,NaN,1,1,1,2
32,443,2,22,54,1,1,1,3.202937e+00,NaN,1,0,1,2
32,444,2,115,68,1,1,1,1.384430e+00,NaN,1,1,3,2
32,445,2,27,62,2,2,1,1.510508e+00,NaN,1,0,1,2
32,446,2,87,42,1,1,1,8.561030e-01,NaN,1,0,2,2
32,447,2,37,60,1,0,0,3.499768e+00,NaN,1,0,1,2
32,448,2,41,11,1,1,1,1.037133e+00,NaN,1,0,1,2
32,449,2,143,44,2,2,1,8.408940e-01,NaN,1,1,3,2
32,450,2,28,24,1,1,1,1.573133e+00,NaN,1,1,1,2
32,451,2,49,57,2,1,0,1.043792e+00,NaN,1,0,2,2
32,452,2,123,30,1,1,1,1.711646e+00,NaN,1,0,3,2
32,453,2,57,21,1,1,1,1.840845e+00,NaN,1,0,2,2
32,454,2,39,26,2,2,1,1.741089e+00,NaN,1,0,1,2
32,455,2,45,37,2,2,1,1.516807e+00,NaN,1,1,1,2
32,456,3,123,30,1,1,1,7.788062e-01,NaN,1,0,3,2
32,457,3,59,7,2,2,1,1.305298e+00,NaN,1,0,2,2
32,458,3,85,47,1,1,1,6.104173e-01,NaN,1,0,2,2
32,459,3,37,60,2,2,1,1.376027e+00,NaN,1,0,1,2
32,460,3,28,24,2,2,1,9.425512e-01,NaN,1,1,1,2
32,461,3,22,54,2,2,1,8.630198e-01,NaN,1,0,1,2
32,462,3,31,19,1,1,1,1.217504e+00,NaN,1,0,1,2
32,463,3,36,32,2,2,1,9.822887e-01,NaN,1,0,1,2
32,464,3,115,68,2,2,1,2.180593e+00,NaN,1,1,3,2
32,465,3,107,25,2,1,0,1.210985e+00,NaN,1,0,3,2
32,466,3,57,21,1,1,1,1.096026e+00,NaN,1,0,2,2
32,467,3,143,44,1,1,1,6.333394e-01,NaN,1,1,3,2
32,468,3,27,62,2,2,1,1.061668e+00,NaN,1,0,1,2
32,469,3,108,38,2,1,0,7.280716e-01,NaN,1,0,3,2
32,470,3,41,11,1,1,1,6.483338e-01,NaN,1,0,1,2
32,471,3,48,8,1,1,1,1.180044e+00,NaN,1,1,1,2
32,472,3,49,57,2,2,1,4.661135e-01,NaN,1,0,2,2
32,473,3,87,42,2,2,1,5.085561e-01,NaN,1,0,2,2
32,474,3,7,22,2,2,1,1.534084e+00,NaN,1,0,1,2
32,475,3,144,12,2,2,1,1.054187e+00,NaN,1,1,3,2
32,476,3,39,26,2,2,1,1.353976e+00,NaN,1,0,1,2
32,477,3,119,64,1,1,1,1.160905e+00,NaN,1,0,3,2
32,478,3,45,37,2,2,1,6.484125e-01,NaN,1,1,1,2
32,479,3,89,55,1,1,1,1.411896e+00,NaN,1,0,2,2
32,504,2,63,72,1,1,1,1.142096e+00,NaN,1,0,2,3
32,505,2,125,16,2,2,1,8.140975e-01,NaN,1,0,3,3
32,506,2,6,43,2,2,1,1.738801e+00,NaN,1,0,1,3
32,507,2,76,48,1,1,1,1.083237e+00,NaN,1,1,2,3
32,508,2,32,27,1,2,0,2.037674e+00,NaN,1,1,1,3
32,509,2,69,14,2,2,1,1.193400e+00,NaN,1,0,2,3
32,510,2,42,69,2,1,0,1.982543e+00,NaN,1,0,1,3
32,511,2,118,41,2,2,1,1.557213e+00,NaN,1,0,3,3
32,512,2,128,33,1,1,1,1.636025e+00,NaN,1,0,3,3
32,513,2,75,10,1,1,1,1.048473e+00,NaN,1,0,2,3
32,514,2,67,67,2,2,1,9.236428e-01,NaN,1,0,2,3
32,515,2,105,49,2,2,1,1.196432e+00,NaN,1,0,3,3
32,516,2,131,34,1,1,1,1.145769e+00,NaN,1,1,3,3
32,517,2,77,6,1,1,1,1.265236e+00,NaN,1,0,2,3
32,518,2,21,36,2,2,1,1.340049e+00,NaN,1,0,1,3
32,519,2,130,17,2,2,1,1.987911e+00,NaN,1,0,3,3
32,520,2,15,31,1,1,1,1.578527e+00,NaN,1,0,1,3
32,521,2,56,61,2,2,1,9.523614e-01,NaN,1,0,2,3
32,522,2,88,46,1,1,1,9.759068e-01,NaN,1,0,2,3
32,523,2,138,40,1,1,1,1.302504e+00,NaN,1,1,3,3
32,524,2,116,35,2,2,1,2.367828e+00,NaN,1,0,3,3
32,525,2,117,59,2,1,0,1.022987e+00,NaN,1,1,3,3
32,526,2,5,20,2,2,1,1.156028e+00,NaN,1,0,1,3
32,527,2,97,65,1,1,1,1.434882e+00,NaN,1,1,3,3
32,528,3,128,33,1,1,1,8.424799e-01,NaN,1,0,3,3
32,529,3,15,31,2,2,1,1.247048e+00,NaN,1,0,1,3
32,530,3,105,49,1,1,1,1.186144e+00,NaN,1,0,3,3
32,531,3,42,69,2,2,1,7.599895e-01,NaN,1,0,1,3
32,532,3,88,46,1,1,1,7.275274e-01,NaN,1,0,2,3
32,533,3,77,6,1,1,1,5.760828e-01,NaN,1,0,2,3
32,534,3,125,16,2,2,1,9.668303e-01,NaN,1,0,3,3
32,535,3,75,10,1,1,1,6.936880e-01,NaN,1,0,2,3
32,536,3,32,27,2,2,1,9.918553e-01,NaN,1,1,1,3
32,537,3,138,40,1,1,1,1.197891e+00,NaN,1,1,3,3
32,538,3,5,20,1,1,1,1.035685e+00,NaN,1,0,1,3
32,539,3,117,59,2,2,1,1.247813e+00,NaN,1,1,3,3
32,540,3,97,65,1,1,1,1.035269e+00,NaN,1,1,3,3
32,541,3,21,36,1,1,1,1.015379e+00,NaN,1,0,1,3
32,542,3,6,43,1,1,1,2.699795e+00,NaN,1,0,1,3
32,543,3,56,61,1,1,1,7.891012e-01,NaN,1,0,2,3
32,544,3,67,67,1,1,1,7.394013e-01,NaN,1,0,2,3
32,545,3,131,34,2,2,1,7.234151e-01,NaN,1,1,3,3
32,546,3,130,17,2,2,1,1.100012e+00,NaN,1,0,3,3
32,547,3,69,14,2,2,1,9.174369e-01,NaN,1,0,2,3
32,548,3,116,35,1,1,1,1.478514e+00,NaN,1,0,3,3
32,549,3,118,41,2,2,1,9.686707e-01,NaN,1,0,3,3
32,550,3,76,48,2,2,1,8.633235e-01,NaN,1,1,2,3
32,551,3,63,72,2,2,1,1.249786e+00,NaN,1,0,2,3
32,576,4,110,28,1,1,1,1.005047e+00,NaN,2,0,3,1
32,577,4,64,45,1,1,1,1.066615e+00,NaN,2,0,2,1
32,578,4,139,32,2,1,0,2.989278e+00,NaN,2,0,3,1
32,579,4,98,6,1,1,1,9.957446e-01,NaN,2,0,3,1
32,580,4,55,22,1,1,1,8.248640e-01,NaN,2,0,2,1
32,581,4,122,43,1,1,1,2.573719e+00,NaN,2,0,3,1
32,582,4,33,16,2,2,1,1.396381e+00,NaN,2,0,1,1
32,583,4,17,46,1,1,1,1.969786e+00,NaN,2,0,1,1
32,584,4,129,60,1,1,1,1.128850e+00,NaN,2,0,3,1
32,585,4,16,29,1,1,1,1.137095e+00,NaN,2,1,1,1
32,586,4,50,54,1,1,1,1.288909e+00,NaN,2,0,2,1
32,587,4,137,27,1,1,1,9.792718e-01,NaN,2,1,3,1
32,588,4,68,11,2,2,1,6.411879e-01,NaN,2,0,2,1
32,589,4,26,1,1,1,1,1.877305e+00,NaN,2,0,1,1
32,590,4,102,10,2,2,1,1.704086e+00,NaN,2,0,3,1
32,591,4,106,21,1,1,1,1.553525e+00,NaN,2,0,3,1
32,592,4,60,15,1,1,1,1.552671e+00,NaN,2,0,2,1
32,593,4,113,47,1,1,1,1.320596e+00,NaN,2,0,3,1
32,594,4,140,36,1,1,1,9.770565e-01,NaN,2,0,3,1
32,595,4,84,68,1,1,1,1.023662e+00,NaN,2,1,2,1
32,596,4,34,38,1,2,0,1.788352e+00,NaN,2,0,1,1
32,597,4,120,9,2,2,1,1.058556e+00,NaN,2,0,3,1
32,598,4,72,17,1,1,1,8.063462e-01,NaN,2,0,2,1
32,599,4,58,24,1,1,1,7.793411e-01,NaN,2,1,2,1
32,624,4,9,4,1,1,1,1.200908e+00,NaN,2,0,1,2
32,625,4,126,19,2,2,1,1.678417e+00,NaN,2,0,3,2
32,626,4,100,66,2,2,1,1.160863e+00,NaN,2,0,3,2
32,627,4,101,3,1,1,1,7.596228e-01,NaN,2,0,3,2
32,628,4,121,55,1,1,1,1.127011e+00,NaN,2,0,3,2
32,629,4,134,20,1,1,1,2.295477e+00,NaN,2,0,3,2
32,630,4,10,56,1,1,1,1.129432e+00,NaN,2,1,1,2
32,631,4,103,7,1,1,1,1.360979e+00,NaN,2,0,3,2
32,632,4,8,61,1,1,1,1.224684e+00,NaN,2,0,1,2
32,633,4,40,34,1,1,1,1.277644e+00,NaN,2,1,1,2
32,634,4,54,31,2,1,0,2.272036e+00,NaN,2,0,2,2
32,635,4,44,12,2,1,0,1.843051e+00,NaN,2,1,1,2
32,636,4,142,37,2,2,1,1.550741e+00,NaN,2,1,3,2
32,637,4,127,8,2,2,1,1.110325e+00,NaN,2,1,3,2
32,638,4,92,40,2,2,1,1.959881e+00,NaN,2,1,2,2
32,639,4,83,41,2,2,1,1.878960e+00,NaN,2,0,2,2
32,640,4,11,18,1,1,1,1.161111e+00,NaN,2,1,1,2
32,641,4,104,57,1,1,1,1.032704e+00,NaN,2,0,3,2
32,642,4,19,14,1,1,1,1.388792e+00,NaN,2,0,1,2
32,643,4,80,35,2,2,1,7.071937e-01,NaN,2,0,2,2
32,644,4,65,23,2,2,1,2.532579e+00,NaN,2,1,2,2
32,645,4,24,25,2,2,1,1.652313e+00,NaN,2,0,1,2
32,646,4,78,44,2,1,0,2.439753e+00,NaN,2,1,2,2
32,647,4,79,59,1,1,1,1.132195e+00,NaN,2,1,2,2
32,672,4,81,13,2,1,0,1.104942e+00,NaN,2,1,2,3
32,673,4,124,39,2,2,1,1.178272e+00,NaN,2,0,3,3
32,674,4,1,72,2,2,1,8.088451e-01,NaN,2,0,1,3
32,675,4,70,51,1,1,1,1.246069e+00,NaN,2,0,2,3
32,676,4,94,65,2,2,1,1.665452e+00,NaN,2,1,2,3
32,677,4,30,5,1,1,1,1.236504e+00,NaN,2,0,1,3
32,678,4,133,62,1,1,1,1.296341e+00,NaN,2,0,3,3
32,679,4,13,48,1,1,1,1.185340e+00,NaN,2,1,1,3
32,680,4,52,26,2,2,1,2.647831e+00,NaN,2,0,2,3
32,681,4,35,70,2,2,1,1.499301e+00,NaN,2,0,1,3
32,682,4,135,63,1,1,1,1.228630e+00,NaN,2,0,3,3
32,683,4,38,33,1,1,1,1.744578e+00,NaN,2,0,1,3
32,684,4,61,52,2,2,1,1.792648e+00,NaN,2,1,2,3
32,685,4,66,69,1,1,1,1.246490e+00,NaN,2,0,2,3
32,686,4,23,49,2,2,1,1.697460e+00,NaN,2,0,1,3
32,687,4,86,53,2,2,1,1.235010e+00,NaN,2,0,2,3
32,688,4,46,30,2,2,1,1.143085e+00,NaN,2,0,1,3
32,689,4,93,2,1,1,1,8.714108e-01,NaN,2,0,2,3
32,690,4,112,71,2,2,1,8.098841e-01,NaN,2,0,3,3
32,691,4,4,42,2,2,1,8.076574e-01,NaN,2,0,1,3
32,692,4,3,58,1,1,1,1.284793e+00,NaN,2,0,1,3
32,693,4,29,50,2,2,1,1.271128e+00,NaN,2,0,1,3
32,694,4,2,67,2,1,0,1.465740e+00,NaN,2,0,1,3
32,695,4,95,64,2,1,0,1.556350e+00,NaN,2,0,2,3
32,696,5,4.266000e+01,69,1,4,0,1.926768e-01,1,1,0,1.200000e+00,1
32,697,5,7.220000e+00,43,1,1,1,7.152010e-01,1,1,0,1.300000e+00,1
32,698,5,1.168000e+02,35,3,2,0,4.205652e-01,1,1,0,3.200000e+00,1
32,699,5,9.201000e+01,3,2,2,1,3.583267e-01,1,1,0,2.300000e+00,1
32,700,5,6.702000e+01,67,2,2,1,6.233233e-01,1,1,0,2.100000e+00,1
32,701,5,6.003000e+01,7,2,2,1,3.294221e-01,1,1,0,2.300000e+00,1
32,702,5,6.301000e+01,72,2,2,1,5.864361e-01,1,1,0,2.100000e+00,1
32,703,5,2.833000e+01,62,1,1,1,6.036361e-01,1,1,0,1.300000e+00,1
32,704,5,9.609000e+01,4,2,0,0,2.500320e+00,1,1,0,2.100000e+00,1
32,705,5,2.250000e+01,54,1,1,1,3.431334e-01,1,1,0,1.200000e+00,1
32,706,5,6.312000e+01,71,2,2,1,3.213149e-01,1,1,0,2.300000e+00,1
32,707,5,7.550000e+00,22,1,1,1,3.386269e-01,1,1,0,1.200000e+00,1
32,708,5,3.739000e+01,32,1,1,1,3.401358e-01,1,1,0,1.300000e+00,1
32,709,5,1.093500e+02,70,3,1,0,1.573380e+00,1,1,0,3.100000e+00,1
32,710,5,1.307200e+02,17,3,3,1,4.236111e-01,1,1,0,3.200000e+00,1
32,711,5,8.817000e+01,46,2,2,1,3.290294e-01,1,1,0,2.100000e+00,1
32,712,5,4.764000e+01,45,1,1,1,2.669624e-01,1,1,0,1.200000e+00,1
32,713,5,2.250000e+01,54,1,1,1,2.997539e-01,2,1,0,1.200000e+00,1
32,714,5,1.335000e+01,63,1,1,1,2.934662e-01,1,1,0,1.300000e+00,1
32,715,5,4.424000e+01,39,1,4,0,2.955833e-01,1,1,0,1.300000e+00,1
32,716,5,6.312000e+01,71,2,2,1,3.290264e-01,2,1,0,2.300000e+00,1
32,717,5,2.560000e+01,15,1,1,1,3.062653e-01,1,1,0,1.200000e+00,1
32,718,5,8.613000e+01,47,2,4,0,1.027573e+00,1,1,0,2.300000e+00,1
32,719,5,4.168000e+01,11,1,1,1,3.177242e-01,1,1,0,1.200000e+00,1
32,720,5,1.199500e+02,64,3,3,1,3.671886e-01,1,1,0,3.200000e+00,1
32,721,5,2.240000e+01,36,1,1,1,6.727593e-01,1,1,0,1.300000e+00,1
32,722,5,1.188300e+02,41,3,3,1,9.299531e-01,1,1,0,3.200000e+00,1
32,723,5,1.363000e+02,5,3,3,1,3.715602e-01,1,1,0,3.100000e+00,1
32,724,5,6.919000e+01,14,2,2,1,2.932636e-01,1,1,0,2.100000e+00,1
32,725,5,7.602000e+01,10,2,2,1,3.828190e-01,1,1,0,2.300000e+00,1
32,726,5,1.335000e+01,63,1,3,0,5.525399e-01,2,1,0,1.300000e+00,1
32,727,5,1.253300e+02,16,3,3,1,1.193701e+00,1,1,0,3.100000e+00,1
32,728,5,7.798000e+01,6,2,2,1,1.843836e+00,1,1,0,2.300000e+00,1
32,729,5,5.210000e+01,28,2,2,1,3.660319e-01,1,1,0,2.300000e+00,1
32,730,5,9.609000e+01,4,2,4,0,4.473874e-01,2,1,0,2.100000e+00,1
32,731,5,1.253300e+02,16,3,3,1,3.210532e-01,2,1,0,3.100000e+00,1
32,732,5,3.226000e+01,19,1,3,0,4.502298e-01,1,1,0,1.300000e+00,1
32,733,5,5.806000e+01,21,2,2,1,2.755454e-01,1,1,0,2.300000e+00,1
32,734,5,1.363000e+02,5,3,1,0,5.176621e-01,2,1,0,3.100000e+00,1
32,735,5,1.199500e+02,64,3,3,1,3.110899e-01,2,1,0,3.200000e+00,1
32,736,5,9.609000e+01,4,2,2,1,6.565623e-01,3,1,0,2.100000e+00,1
32,737,5,5.608000e+01,61,2,2,1,3.378828e-01,1,1,0,2.100000e+00,1
32,738,5,4.764000e+01,45,1,1,1,6.916448e-01,2,1,0,1.200000e+00,1
32,739,5,3.952000e+01,26,1,1,1,3.248743e-01,1,1,0,1.200000e+00,1
32,740,5,1.419300e+02,2,3,3,1,3.111488e-01,1,1,0,3.200000e+00,1
32,741,5,8.817000e+01,46,2,2,1,4.805718e-01,2,1,0,2.100000e+00,1
32,742,5,7.602000e+01,10,2,1,0,8.338197e-01,2,1,0,2.300000e+00,1
32,743,5,5.303000e+01,58,2,2,1,3.389447e-01,1,1,0,2.100000e+00,1
32,744,5,7.798000e+01,6,2,2,1,5.805728e-01,2,1,0,2.300000e+00,1
32,745,5,1.419300e+02,2,3,3,1,3.102188e-01,2,1,0,3.200000e+00,1
32,746,5,7.550000e+00,22,1,1,1,3.202829e-01,2,1,0,1.200000e+00,1
32,747,5,1.093500e+02,70,3,1,0,4.892984e-01,2,1,0,3.100000e+00,1
32,748,5,1.363000e+02,5,3,3,1,5.789159e-01,3,1,0,3.100000e+00,1
32,749,5,5.210000e+01,28,2,2,1,2.842759e-01,2,1,0,2.300000e+00,1
32,750,5,6.702000e+01,67,2,2,1,9.016743e-01,2,1,0,2.100000e+00,1
32,751,5,5.303000e+01,58,2,2,1,3.914384e-01,2,1,0,2.100000e+00,1
32,752,5,1.118600e+02,53,3,3,1,5.524807e-01,1,1,0,3.200000e+00,1
32,753,5,5.806000e+01,21,2,2,1,5.622707e-01,2,1,0,2.300000e+00,1
32,754,5,6.702000e+01,67,2,2,1,3.311831e-01,3,1,0,2.100000e+00,1
32,755,5,2.250000e+01,54,1,1,1,3.090431e-01,3,1,0,1.200000e+00,1
32,756,5,1.093500e+02,70,3,3,1,3.669082e-01,3,1,0,3.100000e+00,1
32,757,5,5.608000e+01,61,2,2,1,3.123055e-01,2,1,0,2.100000e+00,1
32,758,5,4.168000e+01,11,1,1,1,3.617158e-01,2,1,0,1.200000e+00,1
32,759,5,1.083400e+02,38,3,3,1,9.470855e-01,1,1,0,3.100000e+00,1
32,760,5,3.829000e+01,60,1,1,1,7.727461e-01,1,1,0,1.300000e+00,1
32,761,5,1.072400e+02,25,3,3,1,3.662040e-01,1,1,0,3.100000e+00,1
32,762,5,75,66,2,2,1,2.956256e-01,1,1,0,2.300000e+00,1
32,763,5,5.210000e+01,28,2,2,1,2.888422e-01,3,1,0,2.300000e+00,1
32,764,5,9.201000e+01,3,2,2,1,3.301777e-01,2,1,0,2.300000e+00,1
32,765,5,3.226000e+01,19,1,1,1,4.198009e-01,2,1,0,1.300000e+00,1
32,766,5,1.283800e+02,33,3,3,1,6.290806e-01,1,1,0,3.100000e+00,1
32,767,5,4.168000e+01,11,1,1,1,1.278410e+00,3,1,0,1.200000e+00,1
32,768,5,1.072400e+02,25,3,3,1,9.278372e-01,2,1,0,3.100000e+00,1
32,769,5,1.168000e+02,35,3,3,1,3.614566e-01,2,1,0,3.200000e+00,1
32,770,5,7.420000e+01,9,2,2,1,9.225619e-01,1,1,0,2.300000e+00,1
32,771,5,1.554000e+01,31,1,1,1,9.321977e-01,1,1,0,1.200000e+00,1
32,772,5,8.704000e+01,42,2,2,1,8.934626e-01,1,1,0,2.100000e+00,1
32,773,5,6.301000e+01,72,2,2,1,3.998810e-01,2,1,0,2.100000e+00,1
32,774,5,8.817000e+01,46,2,2,1,5.691857e-01,3,1,0,2.100000e+00,1
32,775,5,6.312000e+01,71,2,2,1,3.466961e-01,3,1,0,2.300000e+00,1
32,776,5,3.739000e+01,32,1,1,1,2.920019e-01,2,1,0,1.300000e+00,1
32,777,5,8.704000e+01,42,2,2,1,3.580297e-01,2,1,0,2.100000e+00,1
32,778,5,2.240000e+01,36,1,1,1,3.036133e-01,2,1,0,1.300000e+00,1
32,779,5,1.554000e+01,31,1,1,1,1.616777e+00,2,1,0,1.200000e+00,1
32,780,5,1.052300e+02,49,3,3,1,3.072481e-01,1,1,0,3.100000e+00,1
32,781,5,8.817000e+01,46,2,2,1,3.006651e-01,4,1,0,2.100000e+00,1
32,782,5,4.764000e+01,45,1,1,1,4.696701e-01,3,1,0,1.200000e+00,1
32,783,5,6.312000e+01,71,2,2,1,2.875717e-01,4,1,0,2.300000e+00,1
32,784,5,9.021000e+01,55,2,2,1,3.689441e-01,1,1,0,2.300000e+00,1
32,785,5,9.201000e+01,3,2,2,1,7.139912e-01,3,1,0,2.300000e+00,1
32,786,5,7.798000e+01,6,2,2,1,4.437595e-01,3,1,0,2.300000e+00,1
32,787,5,9.926000e+01,1,3,1,0,6.534503e-01,1,1,0,3.100000e+00,1
32,788,5,1.234600e+02,30,3,3,1,4.153013e-01,1,1,0,3.100000e+00,1
32,789,5,3.829000e+01,60,1,1,1,1.128809e+00,2,1,0,1.300000e+00,1
32,790,5,4.266000e+01,69,1,1,1,2.822213e-01,2,1,0,1.200000e+00,1
32,791,5,1.253300e+02,16,3,3,1,3.231073e-01,3,1,0,3.100000e+00,1
32,792,5,3.226000e+01,19,1,1,1,3.004997e-01,3,1,0,1.300000e+00,1
32,793,5,3.829000e+01,60,1,1,1,3.022906e-01,3,1,0,1.300000e+00,1
32,794,5,1.253300e+02,16,3,3,1,3.356573e-01,4,1,0,3.100000e+00,1
32,795,5,5.303000e+01,58,2,2,1,6.008377e-01,3,1,0,2.100000e+00,1
32,796,5,1.335000e+01,63,1,1,1,2.744829e-01,3,1,0,1.300000e+00,1
32,797,5,75,66,2,2,1,3.156677e-01,2,1,0,2.300000e+00,1
32,798,5,4.424000e+01,39,1,1,1,2.770603e-01,2,1,0,1.300000e+00,1
32,799,5,1.083400e+02,38,3,3,1,2.793293e-01,2,1,0,3.100000e+00,1
32,800,5,1.199500e+02,64,3,3,1,3.046679e-01,3,1,0,3.200000e+00,1
32,801,5,8.613000e+01,47,2,2,1,6.901011e-01,2,1,0,2.300000e+00,1
32,802,5,1.083400e+02,38,3,3,1,3.477073e-01,3,1,0,3.100000e+00,1
32,803,5,1.142900e+02,50,3,3,1,3.088702e-01,1,1,0,3.100000e+00,1
32,804,5,1.118600e+02,53,3,3,1,4.708615e-01,2,1,0,3.200000e+00,1
32,805,5,8.613000e+01,47,2,2,1,3.045946e-01,3,1,0,2.300000e+00,1
32,806,5,7.220000e+00,43,1,0,0,2.500077e+00,2,1,0,1.300000e+00,1
32,807,5,6.919000e+01,14,2,2,1,9.399946e-01,2,1,0,2.100000e+00,1
32,808,5,3.739000e+01,32,1,1,1,3.251523e-01,3,1,0,1.300000e+00,1
32,809,5,5.806000e+01,21,2,2,1,3.195183e-01,3,1,0,2.300000e+00,1
32,810,5,4.266000e+01,69,1,1,1,2.968553e-01,3,1,0,1.200000e+00,1
32,811,5,3.226000e+01,19,1,1,1,4.983039e-01,4,1,0,1.300000e+00,1
32,812,5,1.419300e+02,2,3,3,1,2.995848e-01,3,1,0,3.200000e+00,1
32,813,5,1.283800e+02,33,3,3,1,2.934846e-01,2,1,0,3.100000e+00,1
32,814,5,1.052300e+02,49,3,3,1,3.667784e-01,2,1,0,3.100000e+00,1
32,815,5,6.301000e+01,72,2,2,1,2.724017e-01,3,1,0,2.100000e+00,1
32,816,5,5.004000e+01,57,2,2,1,3.131555e-01,1,1,0,2.300000e+00,1
32,817,5,1.168000e+02,35,3,3,1,3.467534e-01,3,1,0,3.200000e+00,1
32,818,5,2.560000e+01,15,1,4,0,5.723922e-01,2,1,0,1.200000e+00,1
32,819,5,2.833000e+01,62,1,1,1,3.256624e-01,2,1,0,1.300000e+00,1
32,820,5,6.003000e+01,7,2,2,1,2.557145e-01,2,1,0,2.300000e+00,1
32,821,5,3.829000e+01,60,1,1,1,2.891709e-01,4,1,0,1.300000e+00,1
32,822,5,7.420000e+01,9,2,2,1,3.547269e-01,2,1,0,2.300000e+00,1
32,823,5,1.199500e+02,64,3,3,1,3.642803e-01,4,1,0,3.200000e+00,1
32,824,5,6.003000e+01,7,2,2,1,3.412348e-01,3,1,0,2.300000e+00,1
32,825,5,1.188300e+02,41,3,3,1,3.346914e-01,2,1,0,3.200000e+00,1
32,826,5,6.919000e+01,14,2,2,1,6.322280e-01,3,1,0,2.100000e+00,1
32,827,5,9.926000e+01,1,3,3,1,3.057132e-01,2,1,0,3.100000e+00,1
32,828,5,7.602000e+01,10,2,2,1,5.710294e-01,3,1,0,2.300000e+00,1
32,829,5,3.952000e+01,26,1,1,1,3.803031e-01,2,1,0,1.200000e+00,1
32,830,5,1.554000e+01,31,1,1,1,3.497320e-01,3,1,0,1.200000e+00,1
32,831,5,2.833000e+01,62,1,1,1,6.396105e-01,3,1,0,1.300000e+00,1
32,832,5,7.420000e+01,9,2,2,1,5.448423e-01,3,1,0,2.300000e+00,1
32,833,5,7.798000e+01,6,2,2,1,3.220692e-01,4,1,0,2.300000e+00,1
32,834,5,1.283800e+02,33,3,3,1,2.594034e-01,3,1,0,3.100000e+00,1
32,835,5,2.560000e+01,15,1,1,1,3.095753e-01,3,1,0,1.200000e+00,1
32,836,5,1.142900e+02,50,3,3,1,4.395364e-01,2,1,0,3.100000e+00,1
32,837,5,2.240000e+01,36,1,1,1,4.091600e-01,3,1,0,1.300000e+00,1
32,838,5,1.363000e+02,5,3,3,1,3.151359e-01,4,1,0,3.100000e+00,1
32,839,5,1.052300e+02,49,3,3,1,3.007738e-01,3,1,0,3.100000e+00,1
32,840,5,1.234600e+02,30,3,3,1,5.261297e-01,2,1,0,3.100000e+00,1
32,841,5,7.550000e+00,22,1,1,1,3.441099e-01,3,1,0,1.200000e+00,1
32,842,5,8.704000e+01,42,2,2,1,2.581914e-01,3,1,0,2.100000e+00,1
32,843,5,1.142900e+02,50,3,3,1,3.237278e-01,3,1,0,3.100000e+00,1
32,844,5,8.704000e+01,42,2,2,1,2.528609e-01,4,1,0,2.100000e+00,1
32,845,5,9.021000e+01,55,2,2,1,2.947526e-01,2,1,0,2.300000e+00,1
32,846,5,1.307200e+02,17,3,3,1,3.838172e-01,2,1,0,3.200000e+00,1
32,847,5,5.004000e+01,57,2,2,1,4.415171e-01,2,1,0,2.300000e+00,1
32,848,5,1.307200e+02,17,3,3,1,7.630886e-01,3,1,0,3.200000e+00,1
32,849,5,7.420000e+01,9,2,2,1,2.680231e-01,4,1,0,2.300000e+00,1
32,850,5,6.340000e+00,20,1,1,1,3.014279e-01,1,1,0,1.300000e+00,1
32,851,5,5.210000e+01,28,2,2,1,3.592247e-01,4,1,0,2.300000e+00,1
32,852,5,2.560000e+01,15,1,1,1,2.967451e-01,4,1,0,1.200000e+00,1
32,853,5,8.613000e+01,47,2,3,0,7.066168e-01,4,1,0,2.300000e+00,1
32,854,5,1.052300e+02,49,3,0,0,2.500432e+00,4,1,0,3.100000e+00,1
32,855,5,6.301000e+01,72,2,2,1,2.781998e-01,4,1,0,2.100000e+00,1
32,856,5,2.240000e+01,36,1,1,1,3.195401e-01,4,1,0,1.300000e+00,1
32,857,5,2.833000e+01,62,1,1,1,2.969377e-01,4,1,0,1.300000e+00,1
32,858,5,9.021000e+01,55,2,2,1,3.461739e-01,3,1,0,2.300000e+00,1
32,859,5,5.608000e+01,61,2,2,1,5.156331e-01,3,1,0,2.100000e+00,1
32,860,5,9.021000e+01,55,2,2,1,2.689148e-01,4,1,0,2.300000e+00,1
32,861,5,6.003000e+01,7,2,2,1,2.624037e-01,4,1,0,2.300000e+00,1
32,862,5,2.070000e+01,51,1,4,0,1.072107e+00,1,1,0,1.200000e+00,1
32,863,5,1.118600e+02,53,3,3,1,3.052221e-01,3,1,0,3.200000e+00,1
32,864,5,4.424000e+01,39,1,1,1,2.828983e-01,3,1,0,1.300000e+00,1
32,865,5,1.283800e+02,33,3,3,1,3.324019e-01,4,1,0,3.100000e+00,1
32,866,5,4.266000e+01,69,1,1,1,2.939120e-01,4,1,0,1.200000e+00,1
32,867,5,6.919000e+01,14,2,2,1,2.877414e-01,4,1,0,2.100000e+00,1
32,868,5,1.093500e+02,70,3,3,1,2.730334e-01,4,1,0,3.100000e+00,1
32,869,5,1.554000e+01,31,1,1,1,3.068339e-01,4,1,0,1.200000e+00,1
32,870,5,7.602000e+01,10,2,2,1,2.921791e-01,4,1,0,2.300000e+00,1
32,871,5,7.550000e+00,22,1,1,1,5.500403e-01,4,1,0,1.200000e+00,1
32,872,5,1.234600e+02,30,3,3,1,3.352999e-01,3,1,0,3.100000e+00,1
32,873,5,2.250000e+01,54,1,1,1,2.650318e-01,4,1,0,1.200000e+00,1
32,874,5,1.168000e+02,35,3,3,1,3.221311e-01,4,1,0,3.200000e+00,1
32,875,5,1.072400e+02,25,3,3,1,3.798162e-01,3,1,0,3.100000e+00,1
32,876,5,5.608000e+01,61,2,2,1,3.650926e-01,4,1,0,2.100000e+00,1
32,877,5,7.220000e+00,43,1,1,1,2.624170e-01,3,1,0,1.300000e+00,1
32,878,5,1.419300e+02,2,3,3,1,2.561794e-01,4,1,0,3.200000e+00,1
32,879,5,7.220000e+00,43,1,1,1,2.735755e-01,4,1,0,1.300000e+00,1
32,880,5,1.234600e+02,30,3,3,1,3.067370e-01,4,1,0,3.100000e+00,1
32,881,5,2.070000e+01,51,1,1,1,3.162545e-01,2,1,0,1.200000e+00,1
32,882,5,1.072400e+02,25,3,3,1,3.256560e-01,4,1,0,3.100000e+00,1
32,883,5,1.083400e+02,38,3,3,1,3.435255e-01,4,1,0,3.100000e+00,1
32,884,5,9.201000e+01,3,2,2,1,3.137459e-01,4,1,0,2.300000e+00,1
32,885,5,9.926000e+01,1,3,1,0,5.551339e-01,3,1,0,3.100000e+00,1
32,886,5,2.070000e+01,51,1,1,1,3.405635e-01,3,1,0,1.200000e+00,1
32,887,5,1.307200e+02,17,3,3,1,2.783839e-01,4,1,0,3.200000e+00,1
32,888,5,1.188300e+02,41,3,3,1,3.033552e-01,3,1,0,3.200000e+00,1
32,889,5,1.118600e+02,53,3,3,1,3.447513e-01,4,1,0,3.200000e+00,1
32,890,5,6.340000e+00,20,1,1,1,3.065170e-01,2,1,0,1.300000e+00,1
32,891,5,4.168000e+01,11,1,1,1,3.238350e-01,4,1,0,1.200000e+00,1
32,892,5,6.340000e+00,20,1,1,1,3.092994e-01,3,1,0,1.300000e+00,1
32,893,5,6.340000e+00,20,1,1,1,3.195482e-01,4,1,0,1.300000e+00,1
32,894,5,3.739000e+01,32,1,1,1,4.164957e-01,4,1,0,1.300000e+00,1
32,895,5,1.142900e+02,50,3,3,1,3.219313e-01,4,1,0,3.100000e+00,1
32,896,5,5.004000e+01,57,2,2,1,4.196165e-01,3,1,0,2.300000e+00,1
32,897,5,1.188300e+02,41,3,3,1,3.647476e-01,4,1,0,3.200000e+00,1
32,898,5,4.764000e+01,45,1,1,1,9.983643e-01,4,1,0,1.200000e+00,1
32,899,5,75,66,2,2,1,2.637994e-01,3,1,0,2.300000e+00,1
32,900,5,9.926000e+01,1,3,3,1,7.050144e-01,4,1,0,3.100000e+00,1
32,901,5,5.303000e+01,58,2,2,1,4.902939e-01,4,1,0,2.100000e+00,1
32,902,5,5.806000e+01,21,2,2,1,3.722010e-01,4,1,0,2.300000e+00,1
32,903,5,1.335000e+01,63,1,1,1,2.933237e-01,4,1,0,1.300000e+00,1
32,904,5,3.952000e+01,26,1,1,1,3.596536e-01,3,1,0,1.200000e+00,1
32,905,5,6.702000e+01,67,2,2,1,4.337205e-01,4,1,0,2.100000e+00,1
32,906,5,2.070000e+01,51,1,1,1,4.511680e-01,4,1,0,1.200000e+00,1
32,907,5,4.424000e+01,39,1,1,1,3.321472e-01,4,1,0,1.300000e+00,1
32,908,5,9.609000e+01,4,2,2,1,5.575919e-01,4,1,0,2.100000e+00,1
32,909,5,75,66,2,2,1,3.271477e-01,4,1,0,2.300000e+00,1
32,910,5,3.952000e+01,26,1,1,1,1.865397e+00,4,1,0,1.200000e+00,1
32,911,5,5.004000e+01,57,2,2,1,3.315061e-01,4,1,0,2.300000e+00,1
32,912,6,86,53,1,1,1,1.012595e+00,NaN,2,0,2,1
32,913,6,38,33,2,1,0,1.179181e+00,NaN,2,0,1,1
32,914,6,9,4,1,1,1,1.161601e+00,NaN,2,0,1,1
32,915,6,58,24,1,2,0,1.569768e+00,NaN,2,1,2,1
32,916,6,13,48,1,1,1,8.573068e-01,NaN,2,1,1,1
32,917,6,122,43,1,1,1,1.933199e+00,NaN,2,0,3,1
32,918,6,98,6,2,2,1,1.309711e+00,NaN,2,0,3,1
32,919,6,120,9,2,2,1,1.215906e+00,NaN,2,0,3,1
32,920,6,134,20,2,2,1,1.357108e+00,NaN,2,0,3,1
32,921,6,106,21,1,1,1,1.005332e+00,NaN,2,0,3,1
32,922,6,68,11,2,2,1,6.514817e-01,NaN,2,0,2,1
32,923,6,4,42,2,2,1,9.113864e-01,NaN,2,0,1,1
32,924,6,66,69,1,1,1,9.052149e-01,NaN,2,0,2,1
32,925,6,92,40,2,2,1,7.232572e-01,NaN,2,1,2,1
32,926,6,135,63,2,2,1,9.086384e-01,NaN,2,0,3,1
32,927,6,52,26,1,1,1,9.426662e-01,NaN,2,0,2,1
32,928,6,80,35,2,2,1,7.755085e-01,NaN,2,0,2,1
32,929,6,110,28,2,2,1,1.158682e+00,NaN,2,0,3,1
32,930,6,129,60,1,1,1,1.398823e+00,NaN,2,0,3,1
32,931,6,70,51,1,1,1,1.036990e+00,NaN,2,0,2,1
32,932,6,16,29,2,2,1,1.001353e+00,NaN,2,1,1,1
32,933,6,23,49,1,1,1,1.351697e+00,NaN,2,0,1,1
32,934,6,83,41,1,1,1,2.071488e+00,NaN,2,0,2,1
32,935,6,24,25,2,2,1,1.210733e+00,NaN,2,0,1,1
32,936,6,127,8,2,2,1,1.241218e+00,NaN,2,1,3,1
32,937,6,54,31,2,2,1,9.258801e-01,NaN,2,0,2,1
32,938,6,113,47,1,1,1,1.199083e+00,NaN,2,0,3,1
32,939,6,142,37,1,1,1,1.148876e+00,NaN,2,1,3,1
32,940,6,104,57,2,2,1,2.405173e+00,NaN,2,0,3,1
32,941,6,17,46,2,1,0,1.483011e+00,NaN,2,0,1,1
32,942,6,30,5,1,1,1,1.709806e+00,NaN,2,0,1,1
32,943,6,79,59,1,1,1,1.103665e+00,NaN,2,1,2,1
32,944,6,60,15,2,1,0,1.841796e+00,NaN,2,0,2,1
32,945,6,64,45,2,2,1,8.544788e-01,NaN,2,0,2,1
32,946,6,126,19,1,2,0,2.266622e+00,NaN,2,0,3,1
32,947,6,140,36,2,2,1,1.486124e+00,NaN,2,0,3,1
32,948,6,11,18,1,1,1,9.446041e-01,NaN,2,1,1,1
32,949,6,101,3,1,1,1,1.217601e+00,NaN,2,0,3,1
32,950,6,3,58,2,1,0,2.662876e+00,NaN,2,0,1,1
32,951,6,103,7,2,2,1,2.786076e+00,NaN,2,0,3,1
32,952,6,100,66,1,1,1,1.496803e+00,NaN,2,0,3,1
32,953,6,2,67,2,2,1,1.187024e+00,NaN,2,0,1,1
32,954,6,102,10,1,1,1,1.353613e+00,NaN,2,0,3,1
32,955,6,137,27,2,2,1,2.505815e+00,NaN,2,1,3,1
32,956,6,29,50,2,2,1,1.051891e+00,NaN,2,0,1,1
32,957,6,94,65,1,2,0,2.231561e+00,NaN,2,1,2,1
32,958,6,133,62,2,2,1,1.492386e+00,NaN,2,0,3,1
32,959,6,46,30,1,1,1,1.743085e+00,NaN,2,0,1,1
32,960,6,81,13,1,1,1,1.775773e+00,NaN,2,1,2,1
32,961,6,78,44,2,2,1,9.913887e-01,NaN,2,1,2,1
32,962,6,93,2,1,1,1,7.981010e-01,NaN,2,0,2,1
32,963,6,35,70,1,1,1,1.244400e+00,NaN,2,0,1,1
32,964,6,112,71,1,1,1,1.376544e+00,NaN,2,0,3,1
32,965,6,44,12,2,1,0,1.655855e+00,NaN,2,1,1,1
32,966,6,139,32,1,1,1,1.380202e+00,NaN,2,0,3,1
32,967,6,1,72,1,1,1,1.379033e+00,NaN,2,0,1,1
32,968,6,65,23,2,2,1,1.385199e+00,NaN,2,1,2,1
32,969,6,26,1,1,1,1,1.256239e+00,NaN,2,0,1,1
32,970,6,95,64,1,1,1,2.371971e+00,NaN,2,0,2,1
32,971,6,34,38,1,1,1,1.523467e+00,NaN,2,0,1,1
32,972,6,50,54,2,2,1,1.332651e+00,NaN,2,0,2,1
32,973,6,124,39,2,2,1,1.437445e+00,NaN,2,0,3,1
32,974,6,8,61,1,1,1,2.090288e+00,NaN,2,0,1,1
32,975,6,121,55,2,2,1,1.293195e+00,NaN,2,0,3,1
32,976,6,33,16,1,1,1,1.431586e+00,NaN,2,0,1,1
32,977,6,19,14,2,2,1,2.164178e+00,NaN,2,0,1,1
32,978,6,10,56,2,2,1,2.123573e+00,NaN,2,1,1,1
32,979,6,84,68,1,1,1,8.528987e-01,NaN,2,1,2,1
32,980,6,61,52,2,2,1,9.930971e-01,NaN,2,1,2,1
32,981,6,40,34,2,2,1,3.336236e+00,NaN,2,1,1,1
32,982,6,55,22,1,1,1,2.248399e+00,NaN,2,0,2,1
32,983,6,72,17,1,1,1,8.128047e-01,NaN,2,0,2,1
32,984,6,118,41,2,2,1,2.121757e+00,NaN,1,0,3,1
32,985,6,7,22,2,2,1,1.307276e+00,NaN,1,0,1,1
32,986,6,91,3,2,2,1,1.197564e+00,NaN,1,0,2,1
32,987,6,97,65,1,1,1,1.131302e+00,NaN,1,1,3,1
32,988,6,115,68,2,2,1,1.404122e+00,NaN,1,1,3,1
32,989,6,141,2,1,1,1,2.738036e+00,NaN,1,0,3,1
32,990,6,73,9,1,1,1,1.466668e+00,NaN,1,0,2,1
32,991,6,56,61,2,2,1,8.621442e-01,NaN,1,0,2,1
32,992,6,47,45,2,2,1,2.585774e+00,NaN,1,0,1,1
32,993,6,41,11,1,1,1,8.320926e-01,NaN,1,0,1,1
32,994,6,128,33,2,2,1,1.236984e+00,NaN,1,0,3,1
32,995,6,109,70,1,1,1,3.089643e+00,NaN,1,0,3,1
32,996,6,57,21,1,1,1,2.932617e+00,NaN,1,0,2,1
32,997,6,28,24,2,2,1,1.229279e+00,NaN,1,1,1,1
32,998,6,62,71,2,2,1,1.321654e+00,NaN,1,0,2,1
32,999,6,32,27,2,2,1,1.075118e+00,NaN,1,1,1,1
32,1000,6,108,38,1,1,1,1.966674e+00,NaN,1,0,3,1
32,1001,6,20,51,1,1,1,1.549930e+00,NaN,1,0,1,1
32,1002,6,69,14,2,2,1,8.303035e-01,NaN,1,0,2,1
32,1003,6,105,49,1,1,1,2.330884e+00,NaN,1,0,3,1
32,1004,6,116,35,2,2,1,1.915562e+00,NaN,1,0,3,1
32,1005,6,136,5,2,1,0,2.500506e+00,NaN,1,0,3,1
32,1006,6,131,34,2,2,1,1.078703e+00,NaN,1,1,3,1
32,1007,6,138,40,1,1,1,1.169433e+00,NaN,1,1,3,1
32,1008,6,125,16,2,2,1,1.608964e+00,NaN,1,0,3,1
32,1009,6,74,66,2,2,1,1.375807e+00,NaN,1,0,2,1
32,1010,6,123,30,1,1,1,1.590707e+00,NaN,1,0,3,1
32,1011,6,37,60,2,2,1,2.476678e+00,NaN,1,0,1,1
32,1012,6,25,15,2,2,1,1.632328e+00,NaN,1,0,1,1
32,1013,6,107,25,1,2,0,2.092967e+00,NaN,1,0,3,1
32,1014,6,21,36,1,1,1,1.215594e+00,NaN,1,0,1,1
32,1015,6,36,32,2,2,1,1.173214e+00,NaN,1,0,1,1
32,1016,6,99,1,1,1,1,2.276195e+00,NaN,1,0,3,1
32,1017,6,117,59,2,2,1,2.607681e+00,NaN,1,1,3,1
32,1018,6,59,7,2,2,1,1.197724e+00,NaN,1,0,2,1
32,1019,6,76,48,1,1,1,8.358641e-01,NaN,1,1,2,1
32,1020,6,49,57,2,2,1,1.000536e+00,NaN,1,0,2,1
32,1021,6,43,39,1,1,1,1.510617e+00,NaN,1,0,1,1
32,1022,6,22,54,2,2,1,1.784613e+00,NaN,1,0,1,1
32,1023,6,63,72,1,1,1,1.631396e+00,NaN,1,0,2,1
32,1024,6,53,58,1,1,1,7.320342e-01,NaN,1,0,2,1
32,1025,6,51,28,2,2,1,1.196698e+00,NaN,1,0,2,1
32,1026,6,14,52,2,1,0,1.522677e+00,NaN,1,1,1,1
32,1027,6,88,46,2,2,1,1.427970e+00,NaN,1,0,2,1
32,1028,6,67,67,2,2,1,7.616403e-01,NaN,1,0,2,1
32,1029,6,132,13,1,1,1,1.481588e+00,NaN,1,1,3,1
32,1030,6,130,17,1,1,1,1.748005e+00,NaN,1,0,3,1
32,1031,6,75,10,2,2,1,8.680138e-01,NaN,1,0,2,1
32,1032,6,119,64,2,2,1,1.015345e+00,NaN,1,0,3,1
32,1033,6,42,69,1,1,1,1.580633e+00,NaN,1,0,1,1
32,1034,6,71,29,1,1,1,2.563404e+00,NaN,1,1,2,1
32,1035,6,27,62,2,2,1,1.851129e+00,NaN,1,0,1,1
32,1036,6,6,43,1,1,1,2.407009e+00,NaN,1,0,1,1
32,1037,6,87,42,1,1,1,7.493827e-01,NaN,1,0,2,1
32,1038,6,114,50,1,1,1,2.228949e+00,NaN,1,0,3,1
32,1039,6,31,19,1,1,1,1.434063e+00,NaN,1,0,1,1
32,1040,6,85,47,2,2,1,7.584248e-01,NaN,1,0,2,1
32,1041,6,5,20,2,2,1,8.709124e-01,NaN,1,0,1,1
32,1042,6,90,18,2,1,0,6.657767e-01,NaN,1,1,2,1
32,1043,6,77,6,2,2,1,7.496203e-01,NaN,1,0,2,1
32,1044,6,96,4,1,1,1,7.016612e-01,NaN,1,0,2,1
32,1045,6,111,53,2,0,0,3.499578e+00,NaN,1,0,3,1
32,1046,6,143,44,1,1,1,9.214783e-01,NaN,1,1,3,1
32,1047,6,15,31,1,1,1,1.018774e+00,NaN,1,0,1,1
32,1048,6,18,23,2,2,1,9.518565e-01,NaN,1,1,1,1
32,1049,6,45,37,1,1,1,1.856112e+00,NaN,1,1,1,1
32,1050,6,89,55,1,1,1,9.963459e-01,NaN,1,0,2,1
32,1051,6,48,8,2,2,1,1.025966e+00,NaN,1,1,1,1
32,1052,6,144,12,2,2,1,9.520068e-01,NaN,1,1,3,1
32,1053,6,39,26,2,1,0,1.807502e+00,NaN,1,0,1,1
32,1054,6,12,63,2,2,1,1.717365e+00,NaN,1,0,1,1
32,1055,6,82,56,1,1,1,9.828758e-01,NaN,1,1,2,1
