Subject,Trial,Cond,ImageNum,CueNum,Correct,Resp,Accuracy,RT,CueRep,ImageType,Baseline,Category,Block
24,1,1,83,NaN,NaN,1,NaN,2.348240e+00,NaN,1,0,2,1
24,2,1,37,NaN,NaN,1,NaN,1.556390e+00,NaN,2,0,1,1
24,3,1,137,NaN,NaN,1,NaN,1.201568e-01,NaN,1,1,3,1
24,4,1,111,NaN,NaN,1,NaN,8.056141e-01,NaN,0,1,3,1
24,5,1,78,NaN,NaN,1,NaN,3.164726e-02,NaN,2,0,2,1
24,6,1,113,NaN,NaN,1,NaN,9.605480e-01,NaN,2,0,3,1
24,7,1,140,NaN,NaN,1,NaN,2.068468e+00,NaN,1,1,3,1
24,8,1,116,NaN,NaN,1,NaN,2.787600e+00,NaN,2,0,3,1
24,9,1,14,NaN,NaN,1,NaN,1.085923e+00,NaN,0,0,1,1
24,10,1,99,NaN,NaN,2,NaN,8.445560e-01,NaN,1,0,3,1
24,11,1,66,NaN,NaN,1,NaN,1.061055e+00,NaN,0,0,2,1
24,12,1,26,NaN,NaN,1,NaN,2.082652e-02,NaN,1,0,1,1
24,13,1,56,NaN,NaN,1,NaN,8.542168e-01,NaN,0,0,2,1
24,14,1,97,NaN,NaN,1,NaN,1.021596e+00,NaN,0,0,3,1
24,15,1,52,NaN,NaN,1,NaN,1.286944e+00,NaN,0,1,2,1
24,16,1,134,NaN,NaN,1,NaN,1.309236e+00,NaN,0,0,3,1
24,17,1,43,NaN,NaN,1,NaN,1.059643e+00,NaN,0,0,1,1
24,18,1,100,NaN,NaN,1,NaN,1.395314e+00,NaN,0,0,3,1
24,19,1,93,NaN,NaN,1,NaN,7.571036e-01,NaN,2,0,2,1
24,20,1,8,NaN,NaN,1,NaN,6.970466e-01,NaN,0,1,1,1
24,21,1,53,NaN,NaN,1,NaN,3.516638e-01,NaN,1,1,2,1
24,22,1,45,NaN,NaN,1,NaN,2.674878e-01,NaN,0,0,1,1
24,23,1,124,NaN,NaN,1,NaN,1.051645e+00,NaN,0,0,3,1
24,24,1,95,NaN,NaN,1,NaN,1.059362e+00,NaN,1,0,2,1
24,25,1,34,NaN,NaN,1,NaN,5.076596e-01,NaN,2,0,1,1
24,26,1,5,NaN,NaN,1,NaN,1.692907e-01,NaN,0,0,1,1
24,27,1,28,NaN,NaN,1,NaN,3.730340e-01,NaN,2,1,1,1
24,28,1,125,NaN,NaN,1,NaN,5.285389e-01,NaN,1,0,3,1
24,29,1,33,NaN,NaN,1,NaN,1.273775e-04,NaN,1,1,1,1
24,30,1,72,NaN,NaN,1,NaN,7.927065e-01,NaN,0,0,2,1
24,31,1,100,NaN,NaN,1,NaN,1.623495e-01,NaN,2,0,3,1
24,32,1,62,NaN,NaN,1,NaN,9.977486e-01,NaN,0,0,2,1
24,33,1,124,NaN,NaN,1,NaN,6.562505e-01,NaN,2,0,3,1
24,34,1,109,NaN,NaN,1,NaN,9.614161e-02,NaN,0,0,3,1
24,35,1,61,NaN,NaN,1,NaN,8.220606e-01,NaN,0,0,2,1
24,36,1,91,NaN,NaN,2,NaN,2.263048e+00,NaN,1,0,2,1
24,37,1,119,NaN,NaN,1,NaN,3.825646e-01,NaN,0,0,3,1
24,38,1,47,NaN,NaN,1,NaN,3.778260e-01,NaN,0,1,1,1
24,39,1,13,NaN,NaN,1,NaN,1.365168e+00,NaN,2,1,1,1
24,40,1,121,NaN,NaN,1,NaN,1.261702e-04,NaN,0,0,3,1
24,41,1,97,NaN,NaN,1,NaN,2.834843e+00,NaN,1,0,3,1
24,42,1,59,NaN,NaN,1,NaN,1.155935e-02,NaN,0,0,2,1
24,43,1,44,NaN,NaN,1,NaN,1.189030e+00,NaN,1,0,1,1
24,44,1,75,NaN,NaN,1,NaN,7.594072e-01,NaN,2,1,2,1
24,45,1,38,NaN,NaN,1,NaN,5.871057e-01,NaN,2,0,1,1
24,46,1,102,NaN,NaN,1,NaN,5.339180e-01,NaN,0,0,3,1
24,47,1,91,NaN,NaN,1,NaN,4.190969e-01,NaN,0,0,2,1
24,48,1,69,NaN,NaN,1,NaN,6.284725e-01,NaN,2,0,2,1
24,49,1,51,NaN,NaN,1,NaN,1.228498e-04,NaN,2,0,2,1
24,50,1,67,NaN,NaN,1,NaN,5.195404e-01,NaN,2,0,2,1
24,51,1,83,NaN,NaN,1,NaN,7.011589e-01,NaN,0,0,2,1
24,52,1,129,NaN,NaN,2,NaN,1.123781e+00,NaN,2,0,3,1
24,53,1,110,NaN,NaN,2,NaN,2.487905e-02,NaN,2,0,3,1
24,54,1,88,NaN,NaN,1,NaN,5.621856e-01,NaN,2,0,2,1
24,55,1,131,NaN,NaN,1,NaN,5.256059e-01,NaN,1,1,3,1
24,56,1,120,NaN,NaN,1,NaN,6.352178e-01,NaN,1,0,3,1
24,57,1,93,NaN,NaN,1,NaN,4.356469e-01,NaN,0,0,2,1
24,58,1,25,NaN,NaN,1,NaN,6.046551e-01,NaN,0,1,1,1
24,59,1,57,NaN,NaN,1,NaN,7.588567e-01,NaN,2,1,2,1
24,60,1,65,NaN,NaN,1,NaN,4.347031e-01,NaN,0,0,2,1
24,61,1,115,NaN,NaN,2,NaN,1.231518e-04,NaN,1,0,3,1
24,62,1,41,NaN,NaN,1,NaN,4.536096e-01,NaN,1,0,1,1
24,63,1,26,NaN,NaN,1,NaN,1.179223e-01,NaN,0,0,1,1
24,64,1,98,NaN,NaN,1,NaN,2.999220e-01,NaN,0,1,3,1
24,65,1,128,NaN,NaN,1,NaN,2.336175e-01,NaN,2,0,3,1
24,66,1,52,NaN,NaN,1,NaN,1.082399e+00,NaN,2,1,2,1
24,67,1,72,NaN,NaN,1,NaN,5.297704e-01,NaN,1,0,2,1
24,68,1,71,NaN,NaN,1,NaN,1.078642e+00,NaN,0,0,2,1
24,69,1,22,NaN,NaN,1,NaN,1.240573e-04,NaN,0,1,1,1
24,70,1,85,NaN,NaN,1,NaN,6.959150e-01,NaN,0,0,2,1
24,71,1,51,NaN,NaN,1,NaN,8.858079e-01,NaN,0,0,2,1
24,72,1,55,NaN,NaN,1,NaN,7.009428e-01,NaN,2,0,2,1
24,73,1,144,NaN,NaN,1,NaN,4.508869e-01,NaN,0,0,3,1
24,74,1,68,NaN,NaN,0,NaN,9.995554e+00,NaN,0,1,2,1
24,75,1,47,NaN,NaN,0,NaN,9.995142e+00,NaN,2,1,1,1
24,76,1,35,NaN,NaN,0,NaN,9.995101e+00,NaN,1,0,1,1
24,77,1,58,NaN,NaN,0,NaN,9.995630e+00,NaN,1,0,2,1
24,78,1,76,NaN,NaN,0,NaN,9.995409e+00,NaN,0,0,2,1
24,79,1,17,NaN,NaN,2,NaN,7.080187e+00,NaN,0,0,1,1
24,80,1,122,NaN,NaN,2,NaN,1.222463e-04,NaN,2,0,3,1
24,81,1,1,NaN,NaN,1,NaN,1.441208e+00,NaN,1,0,1,1
24,82,1,76,NaN,NaN,1,NaN,1.081833e+00,NaN,2,0,2,1
24,83,1,70,NaN,NaN,1,NaN,3.447595e-01,NaN,1,0,2,1
24,84,1,46,NaN,NaN,2,NaN,4.850374e-01,NaN,1,0,1,1
24,85,1,109,NaN,NaN,1,NaN,4.599190e-01,NaN,1,0,3,1
24,86,1,112,NaN,NaN,1,NaN,5.240058e-01,NaN,0,1,3,1
24,87,1,46,NaN,NaN,2,NaN,4.573183e-01,NaN,0,0,1,1
24,88,1,25,NaN,NaN,1,NaN,4.973906e-01,NaN,1,1,1,1
24,89,1,48,NaN,NaN,1,NaN,3.673608e-01,NaN,1,0,1,1
24,90,1,140,NaN,NaN,1,NaN,3.632694e-01,NaN,0,1,3,1
24,91,1,5,NaN,NaN,1,NaN,4.145014e-01,NaN,1,0,1,1
24,92,1,42,NaN,NaN,2,NaN,1.123895e-01,NaN,0,1,1,1
24,93,1,132,NaN,NaN,2,NaN,1.525826e+00,NaN,2,1,3,1
24,94,1,143,NaN,NaN,1,NaN,1.115201e+00,NaN,0,0,3,1
24,95,1,132,NaN,NaN,1,NaN,1.124329e-01,NaN,0,1,3,1
24,96,1,58,NaN,NaN,1,NaN,6.380470e-01,NaN,0,0,2,1
24,97,1,27,NaN,NaN,1,NaN,4.309801e-01,NaN,2,0,1,1
24,98,1,111,NaN,NaN,1,NaN,3.994669e-01,NaN,1,1,3,1
24,99,1,81,NaN,NaN,1,NaN,3.778698e-01,NaN,0,1,2,1
24,100,1,119,NaN,NaN,1,NaN,1.407467e-01,NaN,1,0,3,1
24,101,1,18,NaN,NaN,2,NaN,1.153115e+00,NaN,0,1,1,1
24,102,1,142,NaN,NaN,1,NaN,3.495171e-01,NaN,2,1,3,1
24,103,1,68,NaN,NaN,1,NaN,3.378083e-01,NaN,1,1,2,1
24,104,1,114,NaN,NaN,1,NaN,6.393947e-01,NaN,2,0,3,1
24,105,1,113,NaN,NaN,1,NaN,2.711525e-01,NaN,0,0,3,1
24,106,1,55,NaN,NaN,1,NaN,2.703988e-01,NaN,0,0,2,1
24,107,1,94,NaN,NaN,1,NaN,3.492654e-01,NaN,1,0,2,1
24,108,1,106,NaN,NaN,1,NaN,6.574017e-01,NaN,0,0,3,1
24,109,1,49,NaN,NaN,1,NaN,4.737002e-01,NaN,0,0,2,1
24,110,1,84,NaN,NaN,1,NaN,4.329119e-01,NaN,0,0,2,1
24,111,1,3,NaN,NaN,2,NaN,1.561648e+00,NaN,0,1,1,1
24,112,1,66,NaN,NaN,1,NaN,8.055523e-01,NaN,2,0,2,1
24,113,1,1,NaN,NaN,1,NaN,3.354872e-01,NaN,0,0,1,1
24,114,1,31,NaN,NaN,1,NaN,2.116361e+00,NaN,0,0,1,1
24,115,1,12,NaN,NaN,1,NaN,1.292033e-01,NaN,0,0,1,1
24,116,1,61,NaN,NaN,1,NaN,3.425325e-01,NaN,2,0,2,1
24,117,1,110,NaN,NaN,2,NaN,1.231516e-04,NaN,0,0,3,1
24,118,1,20,NaN,NaN,1,NaN,1.725514e+00,NaN,0,0,1,1
24,119,1,18,NaN,NaN,2,NaN,3.464072e-01,NaN,2,1,1,1
24,120,1,134,NaN,NaN,1,NaN,2.198865e+00,NaN,1,0,3,1
24,121,1,73,NaN,NaN,1,NaN,3.686298e-01,NaN,0,1,2,1
24,122,1,3,NaN,NaN,2,NaN,6.686137e-01,NaN,2,1,1,1
24,123,1,123,NaN,NaN,1,NaN,4.040377e-01,NaN,1,0,3,1
24,124,1,59,NaN,NaN,1,NaN,1.374033e+00,NaN,2,0,2,1
24,125,1,122,NaN,NaN,2,NaN,1.009178e+00,NaN,0,0,3,1
24,126,1,80,NaN,NaN,1,NaN,1.178526e+00,NaN,0,1,2,1
24,127,1,39,NaN,NaN,2,NaN,1.448842e-04,NaN,2,0,1,1
24,128,1,40,NaN,NaN,2,NaN,1.303728e+00,NaN,1,0,1,1
24,129,1,107,NaN,NaN,1,NaN,2.936322e-01,NaN,1,0,3,1
24,130,1,101,NaN,NaN,1,NaN,9.959855e-01,NaN,0,0,3,1
24,131,1,23,NaN,NaN,1,NaN,1.182081e+00,NaN,1,1,1,1
24,132,1,42,NaN,NaN,2,NaN,3.054288e-01,NaN,1,1,1,1
24,133,1,105,NaN,NaN,2,NaN,1.334143e-04,NaN,0,0,3,1
24,134,1,129,NaN,NaN,2,NaN,3.133467e-01,NaN,0,0,3,1
24,135,1,94,NaN,NaN,1,NaN,8.148164e-01,NaN,0,0,2,1
24,136,1,4,NaN,NaN,1,NaN,1.120791e+00,NaN,2,0,1,1
24,137,1,62,NaN,NaN,1,NaN,2.856319e-01,NaN,2,0,2,1
24,138,1,7,NaN,NaN,1,NaN,3.890210e-01,NaN,2,0,1,1
24,139,1,86,NaN,NaN,1,NaN,7.512967e-01,NaN,0,1,2,1
24,140,1,92,NaN,NaN,1,NaN,5.395930e-01,NaN,0,0,2,1
24,141,1,126,NaN,NaN,1,NaN,8.799805e-01,NaN,0,1,3,1
24,142,1,12,NaN,NaN,1,NaN,4.470608e-01,NaN,2,0,1,1
24,143,1,136,NaN,NaN,1,NaN,1.031342e+00,NaN,1,1,3,1
24,144,1,30,NaN,NaN,1,NaN,1.264717e-04,NaN,1,0,1,1
24,145,1,82,NaN,NaN,1,NaN,6.832286e-01,NaN,0,0,2,1
24,146,1,85,NaN,NaN,1,NaN,8.011417e-01,NaN,1,0,2,1
24,147,1,9,NaN,NaN,1,NaN,1.675310e+00,NaN,0,0,1,1
24,148,1,75,NaN,NaN,1,NaN,5.065666e-01,NaN,0,1,2,1
24,149,1,71,NaN,NaN,1,NaN,3.683774e-01,NaN,2,0,2,1
24,150,1,82,NaN,NaN,1,NaN,5.085497e-01,NaN,1,0,2,1
24,151,1,10,NaN,NaN,1,NaN,2.742313e-01,NaN,0,0,1,1
24,152,1,138,NaN,NaN,1,NaN,1.295604e-01,NaN,1,0,3,1
24,153,1,30,NaN,NaN,1,NaN,1.654309e+00,NaN,0,0,1,1
24,154,1,31,NaN,NaN,1,NaN,4.780244e-01,NaN,2,0,1,1
24,155,1,108,NaN,NaN,2,NaN,1.303959e-04,NaN,0,0,3,1
24,156,1,32,NaN,NaN,2,NaN,2.795573e-01,NaN,1,0,1,1
24,157,1,118,NaN,NaN,1,NaN,2.382357e-01,NaN,0,0,3,1
24,158,1,17,NaN,NaN,1,NaN,3.112858e-01,NaN,2,0,1,1
24,159,1,139,NaN,NaN,1,NaN,5.649616e-01,NaN,1,1,3,1
24,160,1,102,NaN,NaN,1,NaN,1.605940e-01,NaN,2,0,3,1
24,161,1,32,NaN,NaN,1,NaN,2.845139e-01,NaN,0,0,1,1
24,162,1,21,NaN,NaN,2,NaN,6.914444e-01,NaN,2,1,1,1
24,163,1,63,NaN,NaN,1,NaN,2.900666e-01,NaN,2,0,2,1
24,164,1,115,NaN,NaN,2,NaN,5.848189e-01,NaN,0,0,3,1
24,165,1,64,NaN,NaN,1,NaN,7.394231e-01,NaN,1,0,2,1
24,166,1,7,NaN,NaN,1,NaN,4.082925e-01,NaN,0,0,1,1
24,167,1,77,NaN,NaN,1,NaN,3.620638e-01,NaN,2,1,2,1
24,168,1,117,NaN,NaN,2,NaN,1.231516e-04,NaN,2,0,3,1
24,169,1,104,NaN,NaN,1,NaN,1.240571e-04,NaN,0,1,3,1
24,170,1,95,NaN,NaN,1,NaN,9.460810e-01,NaN,0,0,2,1
24,171,1,125,NaN,NaN,1,NaN,1.905377e-01,NaN,0,0,3,1
24,172,1,43,NaN,NaN,2,NaN,4.414369e-01,NaN,2,0,1,1
24,173,1,70,NaN,NaN,1,NaN,2.659515e-01,NaN,0,0,2,1
24,174,1,60,NaN,NaN,1,NaN,1.270755e-04,NaN,1,0,2,1
24,175,1,136,NaN,NaN,1,NaN,3.075601e-01,NaN,0,1,3,1
24,176,1,96,NaN,NaN,1,NaN,3.454987e-01,NaN,0,0,2,1
24,177,1,50,NaN,NaN,1,NaN,4.150579e-01,NaN,1,1,2,1
24,178,1,77,NaN,NaN,1,NaN,6.361146e-02,NaN,0,1,2,1
24,179,1,11,NaN,NaN,1,NaN,3.033367e-01,NaN,0,0,1,1
24,180,1,19,NaN,NaN,2,NaN,2.611150e-01,NaN,1,0,1,1
24,181,1,64,NaN,NaN,1,NaN,1.648596e-01,NaN,0,0,2,1
24,182,1,45,NaN,NaN,2,NaN,2.564585e-01,NaN,2,0,1,1
24,183,1,53,NaN,NaN,1,NaN,2.805220e-01,NaN,0,1,2,1
24,184,1,41,NaN,NaN,2,NaN,3.032139e-01,NaN,0,0,1,1
24,185,1,141,NaN,NaN,1,NaN,2.534060e-01,NaN,0,0,3,1
24,186,1,49,NaN,NaN,1,NaN,7.730514e-02,NaN,1,0,2,1
24,187,1,56,NaN,NaN,1,NaN,1.964571e-01,NaN,2,0,2,1
24,188,1,144,NaN,NaN,1,NaN,2.310866e-01,NaN,2,0,3,1
24,189,1,137,NaN,NaN,1,NaN,1.460917e-04,NaN,0,1,3,1
24,190,1,6,NaN,NaN,1,NaN,2.424500e-01,NaN,1,0,1,1
24,191,1,37,NaN,NaN,2,NaN,2.668594e-01,NaN,0,0,1,1
24,192,1,4,NaN,NaN,1,NaN,2.823560e-01,NaN,0,0,1,1
24,193,1,21,NaN,NaN,1,NaN,2.412683e-01,NaN,0,1,1,1
24,194,1,89,NaN,NaN,1,NaN,2.179993e-01,NaN,0,0,2,1
24,195,1,81,NaN,NaN,1,NaN,5.980462e-02,NaN,2,1,2,1
24,196,1,69,NaN,NaN,1,NaN,2.758148e-01,NaN,0,0,2,1
24,197,1,107,NaN,NaN,1,NaN,3.549418e-01,NaN,0,0,3,1
24,198,1,87,NaN,NaN,1,NaN,3.509454e-01,NaN,0,1,2,1
24,199,1,116,NaN,NaN,1,NaN,3.231503e-01,NaN,0,0,3,1
24,200,1,139,NaN,NaN,1,NaN,4.039405e-02,NaN,0,1,3,1
24,201,1,130,NaN,NaN,2,NaN,2.893756e-01,NaN,0,0,3,1
24,202,1,79,NaN,NaN,1,NaN,2.473882e-01,NaN,0,0,2,1
24,203,1,103,NaN,NaN,1,NaN,3.039724e-01,NaN,1,0,3,1
24,204,1,15,NaN,NaN,2,NaN,4.298032e-01,NaN,2,0,1,1
24,205,1,108,NaN,NaN,1,NaN,2.789938e-01,NaN,2,0,3,1
24,206,1,15,NaN,NaN,1,NaN,2.537462e-01,NaN,0,0,1,1
24,207,1,63,NaN,NaN,1,NaN,2.776165e-01,NaN,0,0,2,1
24,208,1,98,NaN,NaN,1,NaN,2.450238e-01,NaN,2,1,3,1
24,209,1,73,NaN,NaN,1,NaN,1.575644e-01,NaN,1,1,2,1
24,210,1,123,NaN,NaN,1,NaN,2.336468e-01,NaN,0,0,3,1
24,211,1,120,NaN,NaN,1,NaN,1.543531e-01,NaN,0,0,3,1
24,212,1,40,NaN,NaN,1,NaN,3.021807e-01,NaN,0,0,1,1
24,213,1,38,NaN,NaN,1,NaN,2.124786e-01,NaN,0,0,1,1
24,214,1,106,NaN,NaN,1,NaN,2.379263e-01,NaN,2,0,3,1
24,215,1,50,NaN,NaN,1,NaN,1.989986e-01,NaN,0,1,2,1
24,216,1,99,NaN,NaN,1,NaN,2.889651e-01,NaN,0,0,3,1
24,217,1,10,NaN,NaN,1,NaN,2.876077e-01,NaN,2,0,1,1
24,218,1,128,NaN,NaN,1,NaN,2.702165e-01,NaN,0,0,3,1
24,219,1,48,NaN,NaN,1,NaN,3.095173e-01,NaN,0,0,1,1
24,220,1,135,NaN,NaN,1,NaN,4.034714e-01,NaN,0,0,3,1
24,221,1,27,NaN,NaN,1,NaN,5.336497e-01,NaN,0,0,1,1
24,222,1,36,NaN,NaN,2,NaN,3.465518e-01,NaN,0,0,1,1
24,223,1,104,NaN,NaN,1,NaN,2.549786e-01,NaN,1,1,3,1
24,224,1,89,NaN,NaN,1,NaN,3.348337e-01,NaN,1,0,2,1
24,225,1,36,NaN,NaN,1,NaN,7.233211e-01,NaN,1,0,1,1
24,226,1,142,NaN,NaN,1,NaN,2.808480e-01,NaN,0,1,3,1
24,227,1,39,NaN,NaN,2,NaN,6.716354e-01,NaN,0,0,1,1
24,228,1,34,NaN,NaN,1,NaN,3.107832e-01,NaN,0,0,1,1
24,229,1,121,NaN,NaN,1,NaN,3.890274e-01,NaN,2,0,3,1
24,230,1,35,NaN,NaN,2,NaN,5.354067e-01,NaN,0,0,1,1
24,231,1,101,NaN,NaN,1,NaN,9.564091e-01,NaN,1,0,3,1
24,232,1,112,NaN,NaN,1,NaN,1.072149e+00,NaN,1,1,3,1
24,233,1,79,NaN,NaN,1,NaN,3.834964e-01,NaN,1,0,2,1
24,234,1,23,NaN,NaN,2,NaN,1.074340e+00,NaN,0,1,1,1
24,235,1,19,NaN,NaN,1,NaN,1.369471e+00,NaN,0,0,1,1
24,236,1,86,NaN,NaN,1,NaN,3.009256e-01,NaN,2,1,2,1
24,237,1,29,NaN,NaN,1,NaN,3.634351e-01,NaN,0,0,1,1
24,238,1,135,NaN,NaN,1,NaN,3.109106e-01,NaN,2,0,3,1
24,239,1,57,NaN,NaN,1,NaN,2.526686e-01,NaN,0,1,2,1
24,240,1,78,NaN,NaN,1,NaN,3.015344e-01,NaN,0,0,2,1
24,241,1,114,NaN,NaN,1,NaN,3.069293e-01,NaN,0,0,3,1
24,242,1,20,NaN,NaN,1,NaN,4.968959e-01,NaN,1,0,1,1
24,243,1,96,NaN,NaN,1,NaN,2.390781e-01,NaN,2,0,2,1
24,244,1,24,NaN,NaN,1,NaN,2.396293e-01,NaN,1,0,1,1
24,245,1,2,NaN,NaN,1,NaN,3.283812e-01,NaN,1,0,1,1
24,246,1,80,NaN,NaN,1,NaN,1.249628e-04,NaN,1,1,2,1
24,247,1,74,NaN,NaN,1,NaN,1.036158e-01,NaN,0,0,2,1
24,248,1,130,NaN,NaN,2,NaN,4.537315e-01,NaN,1,0,3,1
24,249,1,126,NaN,NaN,1,NaN,2.778637e-01,NaN,1,1,3,1
24,250,1,87,NaN,NaN,1,NaN,1.567835e-01,NaN,2,1,2,1
24,251,1,54,NaN,NaN,1,NaN,2.246715e-01,NaN,0,0,2,1
24,252,1,133,NaN,NaN,1,NaN,2.341032e-01,NaN,2,0,3,1
24,253,1,33,NaN,NaN,1,NaN,2.352813e-01,NaN,0,1,1,1
24,254,1,127,NaN,NaN,1,NaN,2.359999e-01,NaN,2,0,3,1
24,255,1,2,NaN,NaN,1,NaN,1.412876e-01,NaN,0,0,1,1
24,256,1,44,NaN,NaN,1,NaN,3.135094e-01,NaN,0,0,1,1
24,257,1,6,NaN,NaN,1,NaN,2.791489e-01,NaN,0,0,1,1
24,258,1,88,NaN,NaN,1,NaN,6.143460e-01,NaN,0,0,2,1
24,259,1,143,NaN,NaN,1,NaN,6.077985e-01,NaN,1,0,3,1
24,260,1,90,NaN,NaN,1,NaN,2.176162e-01,NaN,1,0,2,1
24,261,1,92,NaN,NaN,1,NaN,2.994967e-01,NaN,1,0,2,1
24,262,1,67,NaN,NaN,1,NaN,2.734999e-01,NaN,0,0,2,1
24,263,1,16,NaN,NaN,1,NaN,8.427438e-04,NaN,0,0,1,1
24,264,1,74,NaN,NaN,1,NaN,9.871958e-01,NaN,2,0,2,1
24,265,1,13,NaN,NaN,1,NaN,2.696173e-01,NaN,0,1,1,1
24,266,1,65,NaN,NaN,1,NaN,2.530341e-01,NaN,1,0,2,1
24,267,1,138,NaN,NaN,1,NaN,3.893283e-01,NaN,0,0,3,1
24,268,1,117,NaN,NaN,1,NaN,3.358316e-01,NaN,0,0,3,1
24,269,1,8,NaN,NaN,1,NaN,3.327845e-01,NaN,2,1,1,1
24,270,1,16,NaN,NaN,1,NaN,3.773811e-01,NaN,1,0,1,1
24,271,1,29,NaN,NaN,1,NaN,1.088217e-01,NaN,1,0,1,1
24,272,1,22,NaN,NaN,2,NaN,4.109973e-01,NaN,2,1,1,1
24,273,1,127,NaN,NaN,1,NaN,1.564361e-01,NaN,0,0,3,1
24,274,1,60,NaN,NaN,1,NaN,8.874104e-02,NaN,0,0,2,1
24,275,1,118,NaN,NaN,1,NaN,4.392962e-01,NaN,2,0,3,1
24,276,1,14,NaN,NaN,1,NaN,2.397615e-01,NaN,2,0,1,1
24,277,1,131,NaN,NaN,2,NaN,5.368227e-01,NaN,0,1,3,1
24,278,1,141,NaN,NaN,1,NaN,4.450104e-01,NaN,2,0,3,1
24,279,1,103,NaN,NaN,1,NaN,2.452840e-01,NaN,0,0,3,1
24,280,1,54,NaN,NaN,1,NaN,3.015613e-01,NaN,1,0,2,1
24,281,1,133,NaN,NaN,1,NaN,2.603185e-01,NaN,0,0,3,1
24,282,1,11,NaN,NaN,1,NaN,4.839637e-01,NaN,1,0,1,1
24,283,1,84,NaN,NaN,1,NaN,3.387573e-01,NaN,1,0,2,1
24,284,1,9,NaN,NaN,1,NaN,4.477755e-01,NaN,2,0,1,1
24,285,1,105,NaN,NaN,1,NaN,1.994562e-01,NaN,2,0,3,1
24,286,1,28,NaN,NaN,1,NaN,3.222991e-01,NaN,0,1,1,1
24,287,1,90,NaN,NaN,1,NaN,2.233823e-01,NaN,0,0,2,1
24,288,1,24,NaN,NaN,1,NaN,4.968892e-01,NaN,0,0,1,1
24,354,2,25,35,1,1,1,2.688609e+00,NaN,1,1,1,1
24,355,2,138,15,2,2,1,8.273172e-01,NaN,1,0,3,1
24,356,2,97,3,1,1,1,1.144312e+00,NaN,1,0,3,1
24,357,2,85,1,1,1,1,9.761496e-01,NaN,1,0,2,1
24,358,2,2,9,1,1,1,8.387069e-01,NaN,1,0,1,1
24,359,2,99,26,1,1,1,1.050467e+00,NaN,1,0,3,1
24,360,2,107,37,2,1,0,1.590242e+00,NaN,1,0,3,1
24,361,2,92,7,1,1,1,1.020119e+00,NaN,1,0,2,1
24,362,2,111,6,2,2,1,1.280456e+00,NaN,1,1,3,1
24,363,2,115,48,2,2,1,1.946915e+00,NaN,1,0,3,1
24,364,2,126,16,2,2,1,1.522642e+00,NaN,1,1,3,1
24,365,2,64,72,1,1,1,8.511157e-01,NaN,1,0,2,1
24,366,2,46,33,1,1,1,1.582790e+00,NaN,1,0,1,1
24,367,2,143,4,2,2,1,1.252951e+00,NaN,1,0,3,1
24,368,2,53,56,2,2,1,1.224188e+00,NaN,1,1,2,1
24,369,2,36,45,2,2,1,1.604253e+00,NaN,1,0,1,1
24,370,2,101,29,2,1,0,1.169684e+00,NaN,1,0,3,1
24,371,2,90,41,1,2,0,2.896686e+00,NaN,1,0,2,1
24,372,2,60,52,2,1,0,1.769578e+00,NaN,1,0,2,1
24,373,2,35,67,2,1,0,1.384213e+00,NaN,1,0,1,1
24,374,2,30,30,2,2,1,1.350725e+00,NaN,1,0,1,1
24,375,2,54,42,1,1,1,9.180866e-01,NaN,1,0,2,1
24,376,2,120,34,2,2,1,8.792507e-01,NaN,1,0,3,1
24,377,2,82,12,1,1,1,1.385547e+00,NaN,1,0,2,1
24,378,3,53,56,2,2,1,7.664625e-01,NaN,1,1,2,1
24,379,3,99,26,2,2,1,1.389258e+00,NaN,1,0,3,1
24,380,3,115,48,1,1,1,1.843546e+00,NaN,1,0,3,1
24,381,3,54,42,2,2,1,7.189996e-01,NaN,1,0,2,1
24,382,3,2,9,1,1,1,7.523692e-01,NaN,1,0,1,1
24,383,3,126,16,2,2,1,1.351759e+00,NaN,1,1,3,1
24,384,3,85,1,2,2,1,7.672077e-01,NaN,1,0,2,1
24,385,3,46,33,2,2,1,9.195367e-01,NaN,1,0,1,1
24,386,3,138,15,2,2,1,9.513346e-01,NaN,1,0,3,1
24,387,3,92,7,2,2,1,1.399029e+00,NaN,1,0,2,1
24,388,3,35,67,1,2,0,1.020237e+00,NaN,1,0,1,1
24,389,3,90,41,1,1,1,1.001105e+00,NaN,1,0,2,1
24,390,3,143,4,2,2,1,1.150423e+00,NaN,1,0,3,1
24,391,3,111,6,2,2,1,9.024566e-01,NaN,1,1,3,1
24,392,3,107,37,1,1,1,1.791959e+00,NaN,1,0,3,1
24,393,3,120,34,1,1,1,1.278255e+00,NaN,1,0,3,1
24,394,3,82,12,2,2,1,1.224391e+00,NaN,1,0,2,1
24,395,3,101,29,1,1,1,1.125093e+00,NaN,1,0,3,1
24,396,3,60,52,2,2,1,9.814328e-01,NaN,1,0,2,1
24,397,3,36,45,1,1,1,1.235787e+00,NaN,1,0,1,1
24,398,3,30,30,2,2,1,9.273318e-01,NaN,1,0,1,1
24,399,3,25,35,1,1,1,1.071664e+00,NaN,1,1,1,1
24,400,3,97,3,2,2,1,8.903651e-01,NaN,1,0,3,1
24,401,3,64,72,1,1,1,8.924690e-01,NaN,1,0,2,1
24,426,2,112,36,1,1,1,1.033956e+00,NaN,1,1,3,2
24,427,2,94,22,2,2,1,1.102369e+00,NaN,1,0,2,2
24,428,2,68,62,1,1,1,8.316112e-01,NaN,1,1,2,2
24,429,2,73,46,2,2,1,1.611406e+00,NaN,1,1,2,2
24,430,2,49,63,2,2,1,1.192309e+00,NaN,1,0,2,2
24,431,2,70,53,2,2,1,8.941376e-01,NaN,1,0,2,2
24,432,2,140,47,2,2,1,7.681785e-01,NaN,1,1,3,2
24,433,2,16,19,1,1,1,1.039368e+00,NaN,1,0,1,2
24,434,2,5,13,1,1,1,1.018999e+00,NaN,1,0,1,2
24,435,2,6,24,2,2,1,1.039902e+00,NaN,1,0,1,2
24,436,2,33,27,2,2,1,9.393397e-01,NaN,1,1,1,2
24,437,2,24,65,1,1,1,9.717808e-01,NaN,1,0,1,2
24,438,2,137,5,2,1,0,1.242113e+00,NaN,1,1,3,2
24,439,2,11,57,1,1,1,1.422033e+00,NaN,1,0,1,2
24,440,2,42,51,2,2,1,2.114407e+00,NaN,1,1,1,2
24,441,2,32,68,2,2,1,1.275025e+00,NaN,1,0,1,2
24,442,2,65,40,2,1,0,1.780892e+00,NaN,1,0,2,2
24,443,2,19,31,1,1,1,1.395071e+00,NaN,1,0,1,2
24,444,2,20,61,1,1,1,1.113363e+00,NaN,1,0,1,2
24,445,2,125,50,2,2,1,1.185839e+00,NaN,1,0,3,2
24,446,2,89,69,1,1,1,1.199756e+00,NaN,1,0,2,2
24,447,2,40,54,2,2,1,9.330514e-01,NaN,1,0,1,2
24,448,2,119,44,2,2,1,1.389185e+00,NaN,1,0,3,2
24,449,2,50,58,2,2,1,1.475120e+00,NaN,1,1,2,2
24,450,3,42,51,2,1,0,2.147694e+00,NaN,1,1,1,2
24,451,3,73,46,1,1,1,1.315264e+00,NaN,1,1,2,2
24,452,3,33,27,2,2,1,9.960090e-01,NaN,1,1,1,2
24,453,3,24,65,1,1,1,1.120998e+00,NaN,1,0,1,2
24,454,3,94,22,1,1,1,1.097787e+00,NaN,1,0,2,2
24,455,3,49,63,2,2,1,5.950200e-01,NaN,1,0,2,2
24,456,3,89,69,2,2,1,9.764071e-01,NaN,1,0,2,2
24,457,3,16,19,1,1,1,1.254883e+00,NaN,1,0,1,2
24,458,3,119,44,1,1,1,8.114509e-01,NaN,1,0,3,2
24,459,3,50,58,2,2,1,1.223044e+00,NaN,1,1,2,2
24,460,3,70,53,1,2,0,7.796110e-01,NaN,1,0,2,2
24,461,3,68,62,1,1,1,6.177952e-01,NaN,1,1,2,2
24,462,3,137,5,1,1,1,2.334299e+00,NaN,1,1,3,2
24,463,3,32,68,1,1,1,7.264747e-01,NaN,1,0,1,2
24,464,3,112,36,2,2,1,8.710880e-01,NaN,1,1,3,2
24,465,3,11,57,1,1,1,8.332988e-01,NaN,1,0,1,2
24,466,3,6,24,2,2,1,1.085531e+00,NaN,1,0,1,2
24,467,3,19,31,2,2,1,1.015386e+00,NaN,1,0,1,2
24,468,3,65,40,1,1,1,5.484735e-01,NaN,1,0,2,2
24,469,3,5,13,2,2,1,9.157884e-01,NaN,1,0,1,2
24,470,3,40,54,1,1,1,7.161046e-01,NaN,1,0,1,2
24,471,3,125,50,2,2,1,1.022859e+00,NaN,1,0,3,2
24,472,3,140,47,2,2,1,1.243576e+00,NaN,1,1,3,2
24,473,3,20,61,2,2,1,7.663176e-01,NaN,1,0,1,2
24,498,2,29,60,2,2,1,9.698417e-01,NaN,1,0,1,3
24,499,2,58,11,1,1,1,1.016402e+00,NaN,1,0,2,3
24,500,2,26,18,1,1,1,1.269168e+00,NaN,1,0,1,3
24,501,2,123,49,2,2,1,1.063810e+00,NaN,1,0,3,3
24,502,2,134,38,2,2,1,1.154282e+00,NaN,1,0,3,3
24,503,2,23,21,2,2,1,9.538432e-01,NaN,1,1,1,3
24,504,2,72,17,2,2,1,6.645608e-01,NaN,1,0,2,3
24,505,2,1,43,1,2,0,1.779853e+00,NaN,1,0,1,3
24,506,2,109,28,2,2,1,1.041822e+00,NaN,1,0,3,3
24,507,2,91,66,2,2,1,7.097345e-01,NaN,1,0,2,3
24,508,2,95,25,1,2,0,7.108773e-01,NaN,1,0,2,3
24,509,2,139,70,1,1,1,1.024332e+00,NaN,1,1,3,3
24,510,2,131,20,1,1,1,9.489002e-01,NaN,1,1,3,3
24,511,2,136,59,2,2,1,9.726905e-01,NaN,1,1,3,3
24,512,2,80,14,1,1,1,6.914474e-01,NaN,1,1,2,3
24,513,2,48,2,1,1,1,8.933392e-01,NaN,1,0,1,3
24,514,2,104,10,2,2,1,1.015114e+00,NaN,1,1,3,3
24,515,2,41,39,2,2,1,1.308116e+00,NaN,1,0,1,3
24,516,2,103,23,2,2,1,1.109227e+00,NaN,1,0,3,3
24,517,2,44,8,1,1,1,1.854537e+00,NaN,1,0,1,3
24,518,2,130,64,1,1,1,1.817439e+00,NaN,1,0,3,3
24,519,2,84,55,2,1,0,9.017542e-01,NaN,1,0,2,3
24,520,2,79,71,1,1,1,1.367276e+00,NaN,1,0,2,3
24,521,2,83,32,2,2,1,9.100145e-01,NaN,1,0,2,3
24,522,3,109,28,1,1,1,7.149567e-01,NaN,1,0,3,3
24,523,3,131,20,2,2,1,8.438026e-01,NaN,1,1,3,3
24,524,3,29,60,2,2,1,8.157171e-01,NaN,1,0,1,3
24,525,3,104,10,2,2,1,9.967075e-01,NaN,1,1,3,3
24,526,3,72,17,2,2,1,5.225087e-01,NaN,1,0,2,3
24,527,3,44,8,1,1,1,1.778316e+00,NaN,1,0,1,3
24,528,3,139,70,1,1,1,1.329007e+00,NaN,1,1,3,3
24,529,3,79,71,2,2,1,1.049099e+00,NaN,1,0,2,3
24,530,3,83,32,2,2,1,6.204544e-01,NaN,1,0,2,3
24,531,3,123,49,2,2,1,1.577115e+00,NaN,1,0,3,3
24,532,3,26,18,2,2,1,1.135723e+00,NaN,1,0,1,3
24,533,3,84,55,1,1,1,1.024359e+00,NaN,1,0,2,3
24,534,3,103,23,1,1,1,8.523236e-01,NaN,1,0,3,3
24,535,3,136,59,1,2,0,8.640182e-01,NaN,1,1,3,3
24,536,3,134,38,1,1,1,8.987714e-01,NaN,1,0,3,3
24,537,3,1,43,1,2,0,1.804450e+00,NaN,1,0,1,3
24,538,3,130,64,2,2,1,1.641846e+00,NaN,1,0,3,3
24,539,3,58,11,2,2,1,9.261787e-01,NaN,1,0,2,3
24,540,3,41,39,2,2,1,1.374980e+00,NaN,1,0,1,3
24,541,3,23,21,2,2,1,8.292949e-01,NaN,1,1,1,3
24,542,3,91,66,1,1,1,1.201225e+00,NaN,1,0,2,3
24,543,3,48,2,1,1,1,7.987581e-01,NaN,1,0,1,3
24,544,3,95,25,2,2,1,1.396228e+00,NaN,1,0,2,3
24,545,3,80,14,2,2,1,8.336402e-01,NaN,1,1,2,3
24,570,4,55,65,2,2,1,9.607762e-01,NaN,2,0,2,1
24,571,4,106,72,1,1,1,1.408310e+00,NaN,2,0,3,1
24,572,4,141,68,2,2,1,1.029674e+00,NaN,2,0,3,1
24,573,4,121,60,1,1,1,1.161522e+00,NaN,2,0,3,1
24,574,4,45,3,1,1,1,1.224572e+00,NaN,2,0,1,1
24,575,4,132,35,2,2,1,1.340983e+00,NaN,2,1,3,1
24,576,4,13,62,1,1,1,8.523710e-01,NaN,2,1,1,1
24,577,4,66,61,1,1,1,8.640384e-01,NaN,2,0,2,1
24,578,4,57,21,2,2,1,6.586610e-01,NaN,2,1,2,1
24,579,4,100,25,1,1,1,1.790422e+00,NaN,2,0,3,1
24,580,4,117,40,2,2,1,1.740362e+00,NaN,2,0,3,1
24,581,4,96,15,1,1,1,5.879523e-01,NaN,2,0,2,1
24,582,4,59,30,2,2,1,1.409569e+00,NaN,2,0,2,1
24,583,4,18,14,1,1,1,8.068822e-01,NaN,2,1,1,1
24,584,4,102,63,2,1,0,8.038466e-01,NaN,2,0,3,1
24,585,4,27,28,2,2,1,7.457054e-01,NaN,2,0,1,1
24,586,4,12,66,1,1,1,8.264775e-01,NaN,2,0,1,1
24,587,4,37,26,2,2,1,1.037469e+00,NaN,2,0,1,1
24,588,4,122,9,2,2,1,8.737599e-01,NaN,2,0,3,1
24,589,4,76,48,1,1,1,1.035934e+00,NaN,2,0,2,1
24,590,4,144,33,2,2,1,1.200172e+00,NaN,2,0,3,1
24,591,4,31,37,1,1,1,1.989707e+00,NaN,2,0,1,1
24,592,4,56,2,2,2,1,7.236483e-01,NaN,2,0,2,1
24,593,4,86,20,1,1,1,1.035873e+00,NaN,2,1,2,1
24,618,4,78,29,1,1,1,8.074822e-01,NaN,2,0,2,2
24,619,4,105,52,2,2,1,9.568969e-01,NaN,2,0,3,2
24,620,4,114,53,1,1,1,1.076409e+00,NaN,2,0,3,2
24,621,4,116,22,2,2,1,9.108964e-01,NaN,2,0,3,2
24,622,4,129,54,1,1,1,1.000397e+00,NaN,2,0,3,2
24,623,4,15,12,2,2,1,7.899017e-01,NaN,2,0,1,2
24,624,4,93,38,2,2,1,7.876883e-01,NaN,2,0,2,2
24,625,4,7,69,2,2,1,1.001298e+00,NaN,2,0,1,2
24,626,4,38,4,2,2,1,1.014380e+00,NaN,2,0,1,2
24,627,4,69,8,1,1,1,1.179134e+00,NaN,2,0,2,2
24,628,4,127,19,1,2,0,8.013790e-01,NaN,2,0,3,2
24,629,4,88,34,1,1,1,8.952236e-01,NaN,2,0,2,2
24,630,4,108,7,2,2,1,9.527575e-01,NaN,2,0,3,2
24,631,4,21,70,2,2,1,1.255919e+00,NaN,2,1,1,2
24,632,4,74,44,2,2,1,9.146800e-01,NaN,2,0,2,2
24,633,4,87,59,2,2,1,9.078693e-01,NaN,2,1,2,2
24,634,4,17,71,2,2,1,1.109722e+00,NaN,2,0,1,2
24,635,4,43,64,2,2,1,1.189483e+00,NaN,2,0,1,2
24,636,4,75,36,2,2,1,6.036810e-01,NaN,2,1,2,2
24,637,4,61,18,2,1,0,1.017010e+00,NaN,2,0,2,2
24,638,4,62,43,2,2,1,7.101568e-01,NaN,2,0,2,2
24,639,4,10,17,1,2,0,9.826610e-01,NaN,2,0,1,2
24,640,4,142,51,1,1,1,1.300854e+00,NaN,2,1,3,2
24,641,4,47,6,2,2,1,1.133956e+00,NaN,2,1,1,2
24,666,4,71,50,1,1,1,1.397824e+00,NaN,2,0,2,3
24,667,4,135,45,1,1,1,7.325837e-01,NaN,2,0,3,3
24,668,4,133,24,1,1,1,1.252072e+00,NaN,2,0,3,3
24,669,4,124,39,2,2,1,8.798634e-01,NaN,2,0,3,3
24,670,4,34,49,1,1,1,1.499089e+00,NaN,2,0,1,3
24,671,4,63,67,1,1,1,9.472606e-01,NaN,2,0,2,3
24,672,4,3,46,1,2,0,1.411113e+00,NaN,2,1,1,3
24,673,4,113,1,2,2,1,9.364326e-01,NaN,2,0,3,3
24,674,4,9,32,1,1,1,1.032819e+00,NaN,2,0,1,3
24,675,4,4,55,2,1,0,1.492953e+00,NaN,2,0,1,3
24,676,4,81,10,2,2,1,1.247178e+00,NaN,2,1,2,3
24,677,4,128,31,2,2,1,1.387709e+00,NaN,2,0,3,3
24,678,4,110,41,2,1,0,1.400317e+00,NaN,2,0,3,3
24,679,4,8,56,2,2,1,1.470097e+00,NaN,2,1,1,3
24,680,4,52,27,2,1,0,1.032536e+00,NaN,2,1,2,3
24,681,4,14,11,2,2,1,1.101228e+00,NaN,2,0,1,3
24,682,4,39,23,2,2,1,1.470269e+00,NaN,2,0,1,3
24,683,4,22,16,1,2,0,1.401174e+00,NaN,2,1,1,3
24,684,4,51,57,2,2,1,9.662260e-01,NaN,2,0,2,3
24,685,4,67,13,2,2,1,8.613228e-01,NaN,2,0,2,3
24,686,4,98,58,1,2,0,1.424259e+00,NaN,2,1,3,3
24,687,4,118,42,1,2,0,1.269284e+00,NaN,2,0,3,3
24,688,4,28,5,2,2,1,1.295938e+00,NaN,2,1,1,3
24,689,4,77,47,1,1,1,1.073588e+00,NaN,2,1,2,3
24,690,5,4.224000e+01,39,1,1,1,2.213756e+00,1,1,0,1.300000e+00,1
24,691,5,1.033900e+02,23,3,0,0,2.500354e+00,1,1,0,3.100000e+00,1
24,692,5,9.308000e+01,7,2,2,1,5.306189e-01,1,1,0,2.300000e+00,1
24,693,5,1.208800e+02,34,3,3,1,1.099665e+00,1,1,0,3.200000e+00,1
24,694,5,1.033900e+02,23,3,1,0,1.493417e+00,2,1,0,3.100000e+00,1
24,695,5,8.613000e+01,1,2,1,0,4.000627e-01,1,1,0,2.300000e+00,1
24,696,5,5.518000e+01,42,2,1,0,7.925048e-01,1,1,0,2.300000e+00,1
24,697,5,7.330000e+00,24,1,3,0,8.906806e-01,1,1,0,1.300000e+00,1
24,698,5,1.620000e+00,43,1,2,0,1.267462e+00,1,1,0,1.200000e+00,1
24,699,5,4.744000e+01,33,1,3,0,1.349368e+00,1,1,0,1.300000e+00,1
24,700,5,4.469000e+01,8,1,2,0,6.869687e-01,1,1,0,1.200000e+00,1
24,701,5,6.506000e+01,72,2,1,0,1.432232e+00,1,1,0,2.300000e+00,1
24,702,5,96,25,2,2,1,2.898870e-01,1,1,0,2.300000e+00,1
24,703,5,1.304300e+02,64,3,1,0,6.275492e-01,1,1,0,3.100000e+00,1
24,704,5,2.066000e+01,61,1,2,0,3.014502e-01,1,1,0,1.200000e+00,1
24,705,5,1.033900e+02,23,3,1,0,8.789836e-01,3,1,0,3.100000e+00,1
24,706,5,1.433800e+02,4,3,1,0,5.043462e-01,1,1,0,3.100000e+00,1
24,707,5,1.233400e+02,49,3,3,1,2.900807e-01,1,1,0,3.100000e+00,1
24,708,5,1.304300e+02,64,3,3,1,3.476759e-01,2,1,0,3.100000e+00,1
24,709,5,9.112000e+01,66,2,2,1,2.769023e-01,1,1,0,2.100000e+00,1
24,710,5,1.073100e+02,37,3,1,0,3.508908e-01,1,1,0,3.100000e+00,1
24,711,5,3.735000e+01,45,1,3,0,4.882568e-01,1,1,0,1.300000e+00,1
24,712,5,1.092700e+02,28,3,3,1,1.001791e+00,1,1,0,3.100000e+00,1
24,713,5,4.224000e+01,39,1,1,1,2.757888e-01,2,1,0,1.300000e+00,1
24,714,5,6.105000e+01,52,2,3,0,4.133993e-01,1,1,0,2.300000e+00,1
24,715,5,8.404000e+01,55,2,2,1,3.347603e-01,1,1,0,2.100000e+00,1
24,716,5,2.455000e+01,65,1,1,1,3.365708e-01,1,1,0,1.200000e+00,1
24,717,5,8.404000e+01,55,2,1,0,2.900297e-01,2,1,0,2.100000e+00,1
24,718,5,8.907000e+01,69,2,2,1,2.673882e-01,1,1,0,2.100000e+00,1
24,719,5,4.856000e+01,2,1,1,1,3.573880e-01,1,1,0,1.200000e+00,1
24,720,5,1.349300e+02,38,3,2,0,3.508522e-01,1,1,0,3.200000e+00,1
24,721,5,3.220000e+00,9,1,1,1,2.886090e-01,1,1,0,1.300000e+00,1
24,722,5,4.856000e+01,2,1,1,1,3.781456e-01,2,1,0,1.200000e+00,1
24,723,5,8.613000e+01,1,2,2,1,2.836035e-01,2,1,0,2.300000e+00,1
24,724,5,5.518000e+01,42,2,2,1,2.694975e-01,2,1,0,2.300000e+00,1
24,725,5,8.907000e+01,69,2,2,1,2.953135e-01,2,1,0,2.100000e+00,1
24,726,5,3.341000e+01,68,1,3,0,3.685688e-01,1,1,0,1.300000e+00,1
24,727,5,6.105000e+01,52,2,3,0,2.662352e-01,2,1,0,2.300000e+00,1
24,728,5,3.220000e+00,9,1,1,1,4.517173e-01,2,1,0,1.300000e+00,1
24,729,5,6.105000e+01,52,2,1,0,4.295150e-01,3,1,0,2.300000e+00,1
24,730,5,2.028000e+01,31,1,1,1,3.029519e-01,1,1,0,1.300000e+00,1
24,731,5,6.617000e+01,40,2,2,1,3.687212e-01,1,1,0,2.300000e+00,1
24,732,5,8.613000e+01,1,2,2,1,2.662123e-01,3,1,0,2.300000e+00,1
24,733,5,1.349300e+02,38,3,3,1,2.917608e-01,2,1,0,3.200000e+00,1
24,734,5,9.937000e+01,26,3,1,0,2.855890e-01,1,1,0,3.100000e+00,1
24,735,5,2.066000e+01,61,1,2,0,3.191017e-01,2,1,0,1.200000e+00,1
24,736,5,1.033900e+02,23,3,3,1,1.241404e+00,4,1,0,3.100000e+00,1
24,737,5,5.002000e+01,63,2,2,1,3.464652e-01,1,1,0,2.300000e+00,1
24,738,5,5.814000e+01,11,2,2,1,2.921945e-01,1,1,0,2.100000e+00,1
24,739,5,7.917000e+01,71,2,1,0,2.696880e-01,1,1,0,2.100000e+00,1
24,740,5,6.617000e+01,40,2,2,1,3.920539e-02,2,1,0,2.300000e+00,1
24,741,5,9.937000e+01,26,3,2,0,2.727272e-01,2,1,0,3.100000e+00,1
24,742,5,9.516000e+01,22,2,2,1,5.701968e-01,1,1,0,2.300000e+00,1
24,743,5,4.856000e+01,2,1,1,1,4.114727e-01,3,1,0,1.200000e+00,1
24,744,5,3.735000e+01,45,1,3,0,4.053329e-01,2,1,0,1.300000e+00,1
24,745,5,1.073100e+02,37,3,1,0,3.107775e-01,2,1,0,3.100000e+00,1
24,746,5,5.670000e+00,13,1,1,1,8.644526e-01,1,1,0,1.200000e+00,1
24,747,5,7.330000e+00,24,1,2,0,2.658132e-01,2,1,0,1.300000e+00,1
24,748,5,7.210000e+01,17,2,1,0,8.194304e-01,1,1,0,2.100000e+00,1
24,749,5,3.341000e+01,68,1,1,1,6.129065e-01,2,1,0,1.300000e+00,1
24,750,5,8.215000e+01,12,2,1,0,3.830539e-01,1,1,0,2.100000e+00,1
24,751,5,1.151000e+01,57,1,2,0,6.720492e-01,1,1,0,1.200000e+00,1
24,752,5,5.814000e+01,11,2,2,1,4.979529e-01,2,1,0,2.100000e+00,1
24,753,5,5.814000e+01,11,2,2,1,1.409603e-04,3,1,0,2.100000e+00,1
24,754,5,5.002000e+01,63,2,2,1,1.436770e-04,2,1,0,2.300000e+00,1
24,755,5,6.105000e+01,52,2,3,0,1.645042e-04,4,1,0,2.300000e+00,1
24,756,5,1.151000e+01,57,1,1,1,1.463934e-04,2,1,0,1.200000e+00,1
24,757,5,8.404000e+01,55,2,1,0,1.469972e-04,3,1,0,2.100000e+00,1
24,758,5,3.220000e+00,9,1,1,1,1.466954e-04,3,1,0,1.300000e+00,1
24,759,5,1.197400e+02,44,3,3,1,4.620974e-01,1,1,0,3.200000e+00,1
24,760,5,1.157600e+02,48,3,2,0,1.111128e+00,1,1,0,3.200000e+00,1
24,761,5,2.661000e+01,18,1,1,1,2.650728e-01,1,1,0,1.200000e+00,1
24,762,5,9.745000e+01,3,3,3,1,3.145701e-01,1,1,0,3.100000e+00,1
24,763,5,1.727000e+01,19,1,1,1,3.080081e-01,1,1,0,1.300000e+00,1
24,764,5,5.002000e+01,63,2,2,1,1.451862e-04,3,1,0,2.300000e+00,1
24,765,5,7.210000e+01,17,2,3,0,5.513259e-01,2,1,0,2.100000e+00,1
24,766,5,1.073100e+02,37,3,3,1,2.333851e-01,3,1,0,3.100000e+00,1
24,767,5,1.389600e+02,15,3,3,1,6.830924e-01,1,1,0,3.200000e+00,1
24,768,5,1.151000e+01,57,1,1,1,1.699373e-04,3,1,0,1.200000e+00,1
24,769,5,1.208800e+02,34,3,3,1,2.939434e-01,2,1,0,3.200000e+00,1
24,770,5,4.129000e+01,54,1,1,1,3.036965e-01,1,1,0,1.300000e+00,1
24,771,5,1.620000e+00,43,1,3,0,5.851207e-01,2,1,0,1.200000e+00,1
24,772,5,1.433800e+02,4,3,1,0,2.831830e-01,2,1,0,3.100000e+00,1
24,773,5,1.257100e+02,50,3,3,1,1.457897e-04,1,1,0,3.200000e+00,1
24,774,5,9.308000e+01,7,2,2,1,1.466952e-04,2,1,0,2.300000e+00,1
24,775,5,1.349300e+02,38,3,3,1,1.463934e-04,3,1,0,3.200000e+00,1
24,776,5,8.907000e+01,69,2,2,1,1.424698e-04,3,1,0,2.100000e+00,1
24,777,5,96,25,2,2,1,1.533360e-04,2,1,0,2.300000e+00,1
24,778,5,1.727000e+01,19,1,1,1,1.454882e-04,2,1,0,1.300000e+00,1
24,779,5,8.215000e+01,12,2,1,0,1.457897e-04,2,1,0,2.100000e+00,1
24,780,5,1.157600e+02,48,3,3,1,3.526288e-01,2,1,0,3.200000e+00,1
24,781,5,96,25,2,2,1,1.433752e-04,3,1,0,2.300000e+00,1
24,782,5,3.021000e+01,60,1,2,0,1.433750e-04,1,1,0,1.300000e+00,1
24,783,5,1.073100e+02,37,3,3,1,3.901798e-01,4,1,0,3.100000e+00,1
24,784,5,1.208800e+02,34,3,3,1,1.427715e-04,3,1,0,3.200000e+00,1
24,785,5,1.151000e+01,57,1,1,1,1.605803e-04,4,1,0,1.200000e+00,1
24,786,5,9.745000e+01,3,3,3,1,1.421678e-04,2,1,0,3.100000e+00,1
24,787,5,8.309000e+01,32,2,2,1,8.768018e-01,1,1,0,2.100000e+00,1
24,788,5,6.617000e+01,40,2,2,1,5.474937e-02,3,1,0,2.300000e+00,1
24,789,5,1.017800e+02,29,3,3,1,1.466954e-04,1,1,0,3.200000e+00,1
24,790,5,5.814000e+01,11,2,1,0,1.697099e-01,4,1,0,2.100000e+00,1
24,791,5,1.257100e+02,50,3,3,1,1.436770e-04,2,1,0,3.200000e+00,1
24,792,5,1.017800e+02,29,3,3,1,1.439787e-04,2,1,0,3.200000e+00,1
24,793,5,9.308000e+01,7,2,2,1,1.451862e-04,3,1,0,2.300000e+00,1
24,794,5,2.455000e+01,65,1,1,1,1.488081e-04,2,1,0,1.200000e+00,1
24,795,5,4.856000e+01,2,1,1,1,1.460917e-04,4,1,0,1.200000e+00,1
24,796,5,8.215000e+01,12,2,2,1,3.886522e-01,3,1,0,2.100000e+00,1
24,797,5,1.620000e+00,43,1,1,1,2.859606e-01,3,1,0,1.200000e+00,1
24,798,5,8.215000e+01,12,2,2,1,2.477283e-01,4,1,0,2.100000e+00,1
24,799,5,6.506000e+01,72,2,2,1,5.846843e-01,2,1,0,2.300000e+00,1
24,800,5,2.455000e+01,65,1,1,1,1.412623e-04,3,1,0,1.200000e+00,1
24,801,5,2.066000e+01,61,1,1,1,2.923675e-01,3,1,0,1.200000e+00,1
24,802,5,9.110000e+01,41,2,2,1,8.781782e-01,1,1,0,2.300000e+00,1
24,803,5,2.028000e+01,31,1,1,1,1.914420e-01,2,1,0,1.300000e+00,1
24,804,5,6.617000e+01,40,2,2,1,1.469972e-04,4,1,0,2.300000e+00,1
24,805,5,4.224000e+01,39,1,1,1,1.409606e-04,3,1,0,1.300000e+00,1
24,806,5,1.017800e+02,29,3,3,1,1.394511e-04,3,1,0,3.200000e+00,1
24,807,5,1.233400e+02,49,3,3,1,5.186629e-01,2,1,0,3.100000e+00,1
24,808,5,8.404000e+01,55,2,1,0,4.081645e-01,4,1,0,2.100000e+00,1
24,809,5,9.937000e+01,26,3,1,0,3.139773e-01,3,1,0,3.100000e+00,1
24,810,5,9.112000e+01,66,2,2,1,5.637476e-01,2,1,0,2.100000e+00,1
24,811,5,9.110000e+01,41,2,2,1,8.500182e-02,2,1,0,2.300000e+00,1
24,812,5,5.518000e+01,42,2,2,1,2.949959e-01,3,1,0,2.300000e+00,1
24,813,5,3.021000e+01,60,1,1,1,9.844071e-01,2,1,0,1.300000e+00,1
24,814,5,7.210000e+01,17,2,3,0,4.751062e-01,3,1,0,2.100000e+00,1
24,815,5,4.744000e+01,33,1,2,0,1.011878e+00,2,1,0,1.300000e+00,1
24,816,5,8.309000e+01,32,2,2,1,1.605800e-04,2,1,0,2.100000e+00,1
24,817,5,3.735000e+01,45,1,1,1,3.191946e-01,3,1,0,1.300000e+00,1
24,818,5,3.563000e+01,67,1,2,0,1.024859e+00,1,1,0,1.200000e+00,1
24,819,5,7.210000e+01,17,2,0,0,2.500253e+00,4,1,0,2.100000e+00,1
24,820,5,1.389600e+02,15,3,2,0,8.922749e-01,2,1,0,3.200000e+00,1
24,821,5,4.224000e+01,39,1,1,1,2.940977e-01,4,1,0,1.300000e+00,1
24,822,5,2.066000e+01,61,1,1,1,2.879760e-01,4,1,0,1.200000e+00,1
24,823,5,7.114000e+01,53,2,2,1,2.733656e-01,1,1,0,2.300000e+00,1
24,824,5,9.112000e+01,66,2,2,1,3.070391e-01,3,1,0,2.100000e+00,1
24,825,5,9.516000e+01,22,2,2,1,3.724478e-01,2,1,0,2.300000e+00,1
24,826,5,1.092700e+02,28,3,3,1,3.258059e-01,2,1,0,3.100000e+00,1
24,827,5,1.389600e+02,15,3,3,1,3.436342e-01,3,1,0,3.200000e+00,1
24,828,5,1.233400e+02,49,3,3,1,2.977285e-01,3,1,0,3.100000e+00,1
24,829,5,1.433800e+02,4,3,1,0,4.907008e-01,3,1,0,3.100000e+00,1
24,830,5,6.506000e+01,72,2,2,1,2.762781e-01,3,1,0,2.300000e+00,1
24,831,5,3.563000e+01,67,1,2,0,2.777879e-01,2,1,0,1.200000e+00,1
24,832,5,1.389600e+02,15,3,3,1,3.037868e-01,4,1,0,3.200000e+00,1
24,833,5,1.257100e+02,50,3,3,1,1.611838e-04,3,1,0,3.200000e+00,1
24,834,5,5.670000e+00,13,1,1,1,3.545208e-01,2,1,0,1.200000e+00,1
24,835,5,1.349300e+02,38,3,3,1,2.841317e-01,4,1,0,3.200000e+00,1
24,836,5,1.197400e+02,44,3,1,0,9.337429e-01,2,1,0,3.200000e+00,1
24,837,5,1.157600e+02,48,3,1,0,3.676424e-01,3,1,0,3.200000e+00,1
24,838,5,7.114000e+01,53,2,2,1,4.135572e-02,2,1,0,2.300000e+00,1
24,839,5,7.330000e+00,24,1,1,1,1.412623e-04,3,1,0,1.300000e+00,1
24,840,5,1.727000e+01,19,1,1,1,1.469972e-04,3,1,0,1.300000e+00,1
24,841,5,6.506000e+01,72,2,2,1,1.445825e-04,4,1,0,2.300000e+00,1
24,842,5,4.744000e+01,33,1,1,1,2.878390e-01,3,1,0,1.300000e+00,1
24,843,5,4.469000e+01,8,1,2,0,2.338140e-01,2,1,0,1.200000e+00,1
24,844,5,1.197400e+02,44,3,1,0,4.113226e-01,3,1,0,3.200000e+00,1
24,845,5,8.309000e+01,32,2,2,1,1.403568e-04,3,1,0,2.100000e+00,1
24,846,5,1.092700e+02,28,3,3,1,2.145450e-01,3,1,0,3.100000e+00,1
24,847,5,3.341000e+01,68,1,1,1,3.359387e-01,3,1,0,1.300000e+00,1
24,848,5,9.110000e+01,41,2,2,1,2.818362e-01,3,1,0,2.300000e+00,1
24,849,5,9.745000e+01,3,3,3,1,2.669786e-01,3,1,0,3.100000e+00,1
24,850,5,1.620000e+00,43,1,1,1,2.689995e-01,4,1,0,1.200000e+00,1
24,851,5,96,25,2,2,1,1.451862e-04,4,1,0,2.300000e+00,1
24,852,5,4.129000e+01,54,1,3,0,3.848701e-01,2,1,0,1.300000e+00,1
24,853,5,9.937000e+01,26,3,3,1,2.587278e-01,4,1,0,3.100000e+00,1
24,854,5,3.021000e+01,60,1,1,1,2.920635e-01,3,1,0,1.300000e+00,1
24,855,5,8.613000e+01,1,2,2,1,1.454882e-04,4,1,0,2.300000e+00,1
24,856,5,5.670000e+00,13,1,1,1,1.463934e-04,3,1,0,1.200000e+00,1
24,857,5,2.028000e+01,31,1,1,1,1.391494e-04,3,1,0,1.300000e+00,1
24,858,5,9.516000e+01,22,2,2,1,1.400548e-04,3,1,0,2.300000e+00,1
24,859,5,3.059000e+01,30,1,1,1,5.009931e-01,1,1,0,1.200000e+00,1
24,860,5,3.021000e+01,60,1,1,1,2.631999e-01,4,1,0,1.300000e+00,1
24,861,5,9.112000e+01,66,2,2,1,2.406359e-01,4,1,0,2.100000e+00,1
24,862,5,7.114000e+01,53,2,2,1,2.257144e-01,3,1,0,2.300000e+00,1
24,863,5,3.563000e+01,67,1,1,1,2.756309e-01,3,1,0,1.200000e+00,1
24,864,5,9.308000e+01,7,2,2,1,3.172487e-01,4,1,0,2.300000e+00,1
24,865,5,1.017800e+02,29,3,3,1,2.956377e-01,4,1,0,3.200000e+00,1
24,866,5,4.744000e+01,33,1,1,1,2.890143e-01,4,1,0,1.300000e+00,1
24,867,5,3.059000e+01,30,1,1,1,3.140672e-01,2,1,0,1.200000e+00,1
24,868,5,7.330000e+00,24,1,1,1,2.355937e-01,4,1,0,1.300000e+00,1
24,869,5,4.469000e+01,8,1,1,1,2.857728e-01,3,1,0,1.200000e+00,1
24,870,5,1.208800e+02,34,3,3,1,7.030137e-01,4,1,0,3.200000e+00,1
24,871,5,1.257100e+02,50,3,3,1,5.367843e-01,4,1,0,3.200000e+00,1
24,872,5,8.907000e+01,69,2,2,1,4.420888e-01,4,1,0,2.100000e+00,1
24,873,5,5.670000e+00,13,1,1,1,4.999088e-01,4,1,0,1.200000e+00,1
24,874,5,1.727000e+01,19,1,1,1,4.379439e-01,4,1,0,1.300000e+00,1
24,875,5,2.028000e+01,31,1,1,1,4.069574e-01,4,1,0,1.300000e+00,1
24,876,5,1.304300e+02,64,3,3,1,4.404667e-01,3,1,0,3.100000e+00,1
24,877,5,7.917000e+01,71,2,1,0,4.019758e-01,2,1,0,2.100000e+00,1
24,878,5,3.059000e+01,30,1,1,1,3.000482e-01,3,1,0,1.200000e+00,1
24,879,5,2.661000e+01,18,1,1,1,2.698178e-01,2,1,0,1.200000e+00,1
24,880,5,9.516000e+01,22,2,2,1,2.632050e-01,4,1,0,2.300000e+00,1
24,881,5,7.114000e+01,53,2,2,1,1.463937e-04,4,1,0,2.300000e+00,1
24,882,5,3.735000e+01,45,1,1,1,2.745033e-01,4,1,0,1.300000e+00,1
24,883,5,5.518000e+01,42,2,1,0,6.116035e-01,4,1,0,2.300000e+00,1
24,884,5,8.309000e+01,32,2,2,1,3.014608e-01,4,1,0,2.100000e+00,1
24,885,5,2.661000e+01,18,1,1,1,2.232362e-01,3,1,0,1.200000e+00,1
24,886,5,3.341000e+01,68,1,1,1,3.367151e-01,4,1,0,1.300000e+00,1
24,887,5,5.002000e+01,63,2,2,1,2.258466e-01,4,1,0,2.300000e+00,1
24,888,5,3.059000e+01,30,1,1,1,3.237669e-01,4,1,0,1.200000e+00,1
24,889,5,1.304300e+02,64,3,3,1,5.010900e-01,4,1,0,3.100000e+00,1
24,890,5,4.129000e+01,54,1,1,1,4.069761e-01,3,1,0,1.300000e+00,1
24,891,5,4.469000e+01,8,1,1,1,3.684810e-01,4,1,0,1.200000e+00,1
24,892,5,2.455000e+01,65,1,1,1,4.984506e-01,4,1,0,1.200000e+00,1
24,893,5,1.433800e+02,4,3,2,0,4.196460e-01,4,1,0,3.100000e+00,1
24,894,5,1.092700e+02,28,3,3,1,7.733336e-01,4,1,0,3.100000e+00,1
24,895,5,7.917000e+01,71,2,1,0,4.785686e-01,3,1,0,2.100000e+00,1
24,896,5,7.917000e+01,71,2,2,1,1.072236e+00,4,1,0,2.100000e+00,1
24,897,5,3.563000e+01,67,1,1,1,5.534161e-01,4,1,0,1.200000e+00,1
24,898,5,1.197400e+02,44,3,2,0,5.791796e-01,4,1,0,3.200000e+00,1
24,899,5,1.233400e+02,49,3,3,1,3.001164e-01,4,1,0,3.100000e+00,1
24,900,5,2.661000e+01,18,1,1,1,5.264184e-01,4,1,0,1.200000e+00,1
24,901,5,3.220000e+00,9,1,1,1,3.039163e-01,4,1,0,1.300000e+00,1
24,902,5,9.110000e+01,41,2,2,1,3.455189e-01,4,1,0,2.300000e+00,1
24,903,5,4.129000e+01,54,1,1,1,5.308794e-01,4,1,0,1.300000e+00,1
24,904,5,1.157600e+02,48,3,2,0,4.126351e-01,4,1,0,3.200000e+00,1
24,905,5,9.745000e+01,3,3,3,1,4.537004e-01,4,1,0,3.100000e+00,1
24,906,6,34,49,2,2,1,8.825498e-01,NaN,2,0,1,1
24,907,6,62,43,1,1,1,8.628966e-01,NaN,2,0,2,1
24,908,6,27,28,1,1,1,2.658291e+00,NaN,2,0,1,1
24,909,6,75,36,1,1,1,9.823151e-01,NaN,2,1,2,1
24,910,6,96,15,2,2,1,7.098015e-01,NaN,2,0,2,1
24,911,6,132,35,2,2,1,1.127622e+00,NaN,2,1,3,1
24,912,6,100,25,1,1,1,9.617650e-01,NaN,2,0,3,1
24,913,6,135,45,2,2,1,7.863539e-01,NaN,2,0,3,1
24,914,6,69,8,2,2,1,7.451080e-01,NaN,2,0,2,1
24,915,6,78,29,2,2,1,7.934300e-01,NaN,2,0,2,1
24,916,6,14,11,2,2,1,8.008299e-01,NaN,2,0,1,1
24,917,6,59,30,2,1,0,8.068909e-01,NaN,2,0,2,1
24,918,6,102,63,2,2,1,7.737426e-01,NaN,2,0,3,1
24,919,6,55,65,1,1,1,8.528138e-01,NaN,2,0,2,1
24,920,6,9,32,1,2,0,8.258038e-01,NaN,2,0,1,1
24,921,6,77,47,2,2,1,6.388982e-01,NaN,2,1,2,1
24,922,6,38,4,2,1,0,8.679515e-01,NaN,2,0,1,1
24,923,6,67,13,2,2,1,1.047474e+00,NaN,2,0,2,1
24,924,6,15,12,1,1,1,8.518289e-01,NaN,2,0,1,1
24,925,6,37,26,1,1,1,1.688125e+00,NaN,2,0,1,1
24,926,6,74,44,1,1,1,7.950189e-01,NaN,2,0,2,1
24,927,6,108,7,1,1,1,8.340954e-01,NaN,2,0,3,1
24,928,6,76,48,2,2,1,8.311096e-01,NaN,2,0,2,1
24,929,6,12,66,1,1,1,1.539949e+00,NaN,2,0,1,1
24,930,6,141,68,1,1,1,1.221016e+00,NaN,2,0,3,1
24,931,6,105,52,2,2,1,9.550007e-01,NaN,2,0,3,1
24,932,6,7,69,1,1,1,1.130628e+00,NaN,2,0,1,1
24,933,6,43,64,1,1,1,1.164133e+00,NaN,2,0,1,1
24,934,6,56,2,1,1,1,1.003940e+00,NaN,2,0,2,1
24,935,6,61,18,2,2,1,8.175046e-01,NaN,2,0,2,1
24,936,6,93,38,1,1,1,8.073989e-01,NaN,2,0,2,1
24,937,6,71,50,2,2,1,9.734204e-01,NaN,2,0,2,1
24,938,6,133,24,1,1,1,9.013757e-01,NaN,2,0,3,1
24,939,6,124,39,1,1,1,1.217107e+00,NaN,2,0,3,1
24,940,6,18,14,1,1,1,1.309737e+00,NaN,2,1,1,1
24,941,6,129,54,2,2,1,1.336221e+00,NaN,2,0,3,1
24,942,6,128,31,1,2,0,2.273594e+00,NaN,2,0,3,1
24,943,6,142,51,2,2,1,1.076867e+00,NaN,2,1,3,1
24,944,6,45,3,2,0,0,3.499958e+00,NaN,2,0,1,1
24,945,6,88,34,2,2,1,8.743796e-01,NaN,2,0,2,1
24,946,6,110,41,2,1,0,2.341733e+00,NaN,2,0,3,1
24,947,6,10,17,2,2,1,1.078280e+00,NaN,2,0,1,1
24,948,6,4,55,2,1,0,1.066460e+00,NaN,2,0,1,1
24,949,6,86,20,2,2,1,1.477978e+00,NaN,2,1,2,1
24,950,6,52,27,2,2,1,9.613835e-01,NaN,2,1,2,1
24,951,6,114,53,2,2,1,9.775958e-01,NaN,2,0,3,1
24,952,6,13,62,2,2,1,9.770060e-01,NaN,2,1,1,1
24,953,6,51,57,1,1,1,1.080254e+00,NaN,2,0,2,1
24,954,6,121,60,1,1,1,1.179796e+00,NaN,2,0,3,1
24,955,6,81,10,2,2,1,1.475188e+00,NaN,2,1,2,1
24,956,6,39,23,2,2,1,1.454543e+00,NaN,2,0,1,1
24,957,6,31,37,1,1,1,8.267202e-01,NaN,2,0,1,1
24,958,6,63,67,2,2,1,6.161574e-01,NaN,2,0,2,1
24,959,6,122,9,2,2,1,8.224702e-01,NaN,2,0,3,1
24,960,6,17,71,1,1,1,1.115833e+00,NaN,2,0,1,1
24,961,6,118,42,1,2,0,1.293728e+00,NaN,2,0,3,1
24,962,6,3,46,1,1,1,1.120756e+00,NaN,2,1,1,1
24,963,6,28,5,2,2,1,9.062215e-01,NaN,2,1,1,1
24,964,6,117,40,1,1,1,1.060978e+00,NaN,2,0,3,1
24,965,6,57,21,1,1,1,8.491374e-01,NaN,2,1,2,1
24,966,6,98,58,1,2,0,1.589542e+00,NaN,2,1,3,1
24,967,6,113,1,1,1,1,1.020915e+00,NaN,2,0,3,1
24,968,6,47,6,1,1,1,7.545708e-01,NaN,2,1,1,1
24,969,6,127,19,1,1,1,1.627012e+00,NaN,2,0,3,1
24,970,6,22,16,1,2,0,1.032453e+00,NaN,2,1,1,1
24,971,6,66,61,2,2,1,8.853917e-01,NaN,2,0,2,1
24,972,6,106,72,2,1,0,1.209141e+00,NaN,2,0,3,1
24,973,6,87,59,2,2,1,8.472714e-01,NaN,2,1,2,1
24,974,6,21,70,2,1,0,7.395943e-01,NaN,2,1,1,1
24,975,6,8,56,2,2,1,1.004008e+00,NaN,2,1,1,1
24,976,6,116,22,2,2,1,1.042602e+00,NaN,2,0,3,1
24,977,6,144,33,1,1,1,1.015798e+00,NaN,2,0,3,1
24,978,6,30,30,1,2,0,1.925007e+00,NaN,1,0,1,1
24,979,6,137,5,2,1,0,1.062699e+00,NaN,1,1,3,1
24,980,6,44,8,1,2,0,1.194556e+00,NaN,1,0,1,1
24,981,6,136,59,2,2,1,1.065856e+00,NaN,1,1,3,1
24,982,6,29,60,1,1,1,9.748167e-01,NaN,1,0,1,1
24,983,6,46,33,2,2,1,1.468873e+00,NaN,1,0,1,1
24,984,6,41,39,1,1,1,1.160803e+00,NaN,1,0,1,1
24,985,6,53,56,2,2,1,7.364138e-01,NaN,1,1,2,1
24,986,6,140,47,1,1,1,9.140217e-01,NaN,1,1,3,1
24,987,6,64,72,1,1,1,8.436303e-01,NaN,1,0,2,1
24,988,6,111,6,2,2,1,1.113723e+00,NaN,1,1,3,1
24,989,6,97,3,2,2,1,7.630517e-01,NaN,1,0,3,1
24,990,6,72,17,2,2,1,6.344315e-01,NaN,1,0,2,1
24,991,6,49,63,2,2,1,5.037522e-01,NaN,1,0,2,1
24,992,6,26,18,1,2,0,3.002157e+00,NaN,1,0,1,1
24,993,6,101,29,1,1,1,1.352868e+00,NaN,1,0,3,1
24,994,6,33,27,1,1,1,1.121116e+00,NaN,1,1,1,1
24,995,6,5,13,2,2,1,9.067328e-01,NaN,1,0,1,1
24,996,6,42,51,2,1,0,2.212994e+00,NaN,1,1,1,1
24,997,6,80,14,1,1,1,1.066503e+00,NaN,1,1,2,1
24,998,6,143,4,1,1,1,8.307555e-01,NaN,1,0,3,1
24,999,6,107,37,2,1,0,1.539986e+00,NaN,1,0,3,1
24,1000,6,84,55,1,1,1,7.973518e-01,NaN,1,0,2,1
24,1001,6,91,66,1,1,1,1.004031e+00,NaN,1,0,2,1
24,1002,6,50,58,1,1,1,9.058681e-01,NaN,1,1,2,1
24,1003,6,20,61,1,1,1,1.148231e+00,NaN,1,0,1,1
24,1004,6,94,22,1,1,1,6.847378e-01,NaN,1,0,2,1
24,1005,6,19,31,2,2,1,1.624015e+00,NaN,1,0,1,1
24,1006,6,68,62,1,1,1,5.252947e-01,NaN,1,1,2,1
24,1007,6,99,26,2,2,1,2.358798e+00,NaN,1,0,3,1
24,1008,6,109,28,2,2,1,1.686583e+00,NaN,1,0,3,1
24,1009,6,92,7,2,2,1,1.049892e+00,NaN,1,0,2,1
24,1010,6,131,20,2,2,1,9.986662e-01,NaN,1,1,3,1
24,1011,6,103,23,2,2,1,8.451464e-01,NaN,1,0,3,1
24,1012,6,138,15,2,2,1,1.386451e+00,NaN,1,0,3,1
24,1013,6,25,35,2,2,1,9.530424e-01,NaN,1,1,1,1
24,1014,6,130,64,1,2,0,2.145816e+00,NaN,1,0,3,1
24,1015,6,123,49,2,2,1,1.602841e+00,NaN,1,0,3,1
24,1016,6,16,19,2,1,0,1.105205e+00,NaN,1,0,1,1
24,1017,6,134,38,1,1,1,1.211519e+00,NaN,1,0,3,1
24,1018,6,79,71,1,1,1,6.331650e-01,NaN,1,0,2,1
24,1019,6,24,65,2,2,1,2.654567e+00,NaN,1,0,1,1
24,1020,6,90,41,1,2,0,1.522409e+00,NaN,1,0,2,1
24,1021,6,85,1,1,1,1,5.957697e-01,NaN,1,0,2,1
24,1022,6,112,36,1,1,1,8.664535e-01,NaN,1,1,3,1
24,1023,6,54,42,1,1,1,7.905555e-01,NaN,1,0,2,1
24,1024,6,58,11,2,2,1,7.410099e-01,NaN,1,0,2,1
24,1025,6,73,46,1,2,0,1.685827e+00,NaN,1,1,2,1
24,1026,6,60,52,2,2,1,7.293313e-01,NaN,1,0,2,1
24,1027,6,119,44,1,1,1,9.138252e-01,NaN,1,0,3,1
24,1028,6,48,2,1,1,1,7.394995e-01,NaN,1,0,1,1
24,1029,6,89,69,1,1,1,7.168152e-01,NaN,1,0,2,1
24,1030,6,115,48,1,1,1,1.374672e+00,NaN,1,0,3,1
24,1031,6,95,25,1,1,1,1.670163e+00,NaN,1,0,2,1
24,1032,6,40,54,2,2,1,1.353519e+00,NaN,1,0,1,1
24,1033,6,82,12,2,2,1,1.953589e+00,NaN,1,0,2,1
24,1034,6,11,57,2,2,1,1.097914e+00,NaN,1,0,1,1
24,1035,6,35,67,1,2,0,1.836761e+00,NaN,1,0,1,1
24,1036,6,32,68,2,2,1,1.137269e+00,NaN,1,0,1,1
24,1037,6,23,21,2,2,1,1.146445e+00,NaN,1,1,1,1
24,1038,6,2,9,2,2,1,8.749162e-01,NaN,1,0,1,1
24,1039,6,65,40,1,1,1,1.150488e+00,NaN,1,0,2,1
24,1040,6,83,32,1,1,1,9.431377e-01,NaN,1,0,2,1
24,1041,6,125,50,1,2,0,1.719967e+00,NaN,1,0,3,1
24,1042,6,139,70,1,1,1,7.539080e-01,NaN,1,1,3,1
24,1043,6,36,45,2,1,0,1.249928e+00,NaN,1,0,1,1
24,1044,6,6,24,2,2,1,1.926420e+00,NaN,1,0,1,1
24,1045,6,126,16,1,1,1,1.480045e+00,NaN,1,1,3,1
24,1046,6,104,10,2,2,1,9.635263e-01,NaN,1,1,3,1
24,1047,6,1,43,1,2,0,1.371504e+00,NaN,1,0,1,1
24,1048,6,70,53,2,2,1,1.178575e+00,NaN,1,0,2,1
24,1049,6,120,34,1,1,1,1.954403e+00,NaN,1,0,3,1
