Subject,Trial,Cond,ImageNum,CueNum,Correct,Resp,Accuracy,RT,CueRep,ImageType,Baseline,Category,Block
16,1,1,116,NaN,NaN,1,NaN,2.381828e+00,NaN,1,1,3,1
16,2,1,11,NaN,NaN,1,NaN,1.065106e+00,NaN,1,1,1,1
16,3,1,91,NaN,NaN,1,NaN,2.024274e+00,NaN,2,0,2,1
16,4,1,110,NaN,NaN,2,NaN,7.237523e-02,NaN,2,0,3,1
16,5,1,33,NaN,NaN,2,NaN,1.303617e+00,NaN,0,1,1,1
16,6,1,60,NaN,NaN,1,NaN,1.337185e-04,NaN,0,1,2,1
16,7,1,125,NaN,NaN,1,NaN,9.661997e-01,NaN,0,0,3,1
16,8,1,118,NaN,NaN,1,NaN,4.887056e-01,NaN,1,0,3,1
16,9,1,129,NaN,NaN,2,NaN,2.454886e+00,NaN,2,0,3,1
16,10,1,48,NaN,NaN,1,NaN,4.456594e-01,NaN,1,0,1,1
16,11,1,120,NaN,NaN,1,NaN,4.457720e-01,NaN,2,0,3,1
16,12,1,101,NaN,NaN,2,NaN,4.776800e-01,NaN,0,0,3,1
16,13,1,75,NaN,NaN,1,NaN,4.680674e-01,NaN,0,0,2,1
16,14,1,128,NaN,NaN,2,NaN,1.310843e-01,NaN,0,1,3,1
16,15,1,74,NaN,NaN,1,NaN,3.195490e-01,NaN,1,0,2,1
16,16,1,12,NaN,NaN,2,NaN,1.886542e-01,NaN,1,0,1,1
16,17,1,46,NaN,NaN,2,NaN,6.785763e-01,NaN,0,1,1,1
16,18,1,128,NaN,NaN,1,NaN,3.677165e+00,NaN,2,1,3,1
16,19,1,88,NaN,NaN,1,NaN,8.119942e-01,NaN,1,0,2,1
16,20,1,27,NaN,NaN,1,NaN,3.569192e-01,NaN,0,0,1,1
16,21,1,3,NaN,NaN,2,NaN,3.048140e-01,NaN,1,0,1,1
16,22,1,79,NaN,NaN,1,NaN,3.342686e-01,NaN,0,0,2,1
16,23,1,53,NaN,NaN,1,NaN,3.866615e-01,NaN,0,0,2,1
16,24,1,97,NaN,NaN,2,NaN,7.648757e-01,NaN,2,0,3,1
16,25,1,41,NaN,NaN,1,NaN,7.039113e-01,NaN,0,0,1,1
16,26,1,4,NaN,NaN,1,NaN,3.812004e-01,NaN,2,1,1,1
16,27,1,3,NaN,NaN,1,NaN,1.234558e-04,NaN,0,0,1,1
16,28,1,54,NaN,NaN,1,NaN,3.049438e-01,NaN,0,0,2,1
16,29,1,64,NaN,NaN,1,NaN,2.627131e-01,NaN,0,1,2,1
16,30,1,120,NaN,NaN,1,NaN,1.270779e-04,NaN,0,0,3,1
16,31,1,66,NaN,NaN,1,NaN,1.992717e-01,NaN,2,0,2,1
16,32,1,11,NaN,NaN,1,NaN,2.332800e-01,NaN,0,1,1,1
16,33,1,138,NaN,NaN,1,NaN,2.902824e-01,NaN,1,0,3,1
16,34,1,111,NaN,NaN,1,NaN,3.120348e-01,NaN,2,0,3,1
16,35,1,56,NaN,NaN,1,NaN,1.491285e-01,NaN,2,0,2,1
16,36,1,137,NaN,NaN,1,NaN,7.049870e-01,NaN,0,1,3,1
16,37,1,60,NaN,NaN,1,NaN,4.383079e-01,NaN,1,1,2,1
16,38,1,55,NaN,NaN,1,NaN,1.423088e-01,NaN,1,0,2,1
16,39,1,36,NaN,NaN,2,NaN,4.180219e-01,NaN,2,0,1,1
16,40,1,18,NaN,NaN,1,NaN,5.981746e-02,NaN,1,0,1,1
16,41,1,135,NaN,NaN,2,NaN,3.555198e-01,NaN,0,0,3,1
16,42,1,21,NaN,NaN,1,NaN,1.670972e-01,NaN,0,0,1,1
16,43,1,85,NaN,NaN,1,NaN,2.504506e-01,NaN,2,0,2,1
16,44,1,127,NaN,NaN,1,NaN,1.862587e-01,NaN,2,0,3,1
16,45,1,48,NaN,NaN,1,NaN,1.242924e-01,NaN,0,0,1,1
16,46,1,89,NaN,NaN,1,NaN,7.401879e-02,NaN,2,1,2,1
16,47,1,97,NaN,NaN,1,NaN,2.407927e-01,NaN,0,0,3,1
16,48,1,56,NaN,NaN,1,NaN,7.291825e-02,NaN,0,0,2,1
16,49,1,71,NaN,NaN,1,NaN,1.243612e-04,NaN,2,0,2,1
16,50,1,115,NaN,NaN,2,NaN,5.725447e-02,NaN,2,0,3,1
16,51,1,52,NaN,NaN,1,NaN,6.005411e-01,NaN,0,0,2,1
16,52,1,104,NaN,NaN,2,NaN,6.420868e-01,NaN,0,0,3,1
16,53,1,43,NaN,NaN,1,NaN,1.862639e-01,NaN,0,0,1,1
16,54,1,14,NaN,NaN,1,NaN,3.409409e-01,NaN,0,0,1,1
16,55,1,113,NaN,NaN,2,NaN,3.934401e-01,NaN,2,1,3,1
16,56,1,47,NaN,NaN,1,NaN,2.512713e-01,NaN,1,0,1,1
16,57,1,23,NaN,NaN,1,NaN,4.516526e-01,NaN,2,0,1,1
16,58,1,38,NaN,NaN,1,NaN,4.435519e-01,NaN,0,0,1,1
16,59,1,139,NaN,NaN,1,NaN,1.099213e+00,NaN,0,0,3,1
16,60,1,123,NaN,NaN,1,NaN,2.569056e-01,NaN,0,0,3,1
16,61,1,136,NaN,NaN,2,NaN,2.645221e-01,NaN,0,1,3,1
16,62,1,29,NaN,NaN,1,NaN,1.517597e-01,NaN,0,0,1,1
16,63,1,50,NaN,NaN,1,NaN,1.713004e-01,NaN,2,0,2,1
16,64,1,91,NaN,NaN,1,NaN,3.102493e-01,NaN,0,0,2,1
16,65,1,93,NaN,NaN,1,NaN,1.957057e-01,NaN,0,0,2,1
16,66,1,140,NaN,NaN,1,NaN,5.337724e-02,NaN,1,0,3,1
16,67,1,133,NaN,NaN,2,NaN,3.249276e-01,NaN,0,0,3,1
16,68,1,25,NaN,NaN,1,NaN,2.895921e-01,NaN,0,0,1,1
16,69,1,108,NaN,NaN,2,NaN,3.200262e-01,NaN,0,0,3,1
16,70,1,93,NaN,NaN,1,NaN,3.005709e-01,NaN,1,0,2,1
16,71,1,76,NaN,NaN,1,NaN,5.040011e-02,NaN,1,0,2,1
16,72,1,76,NaN,NaN,1,NaN,8.217683e-02,NaN,0,0,2,1
16,73,1,140,NaN,NaN,1,NaN,3.050588e-01,NaN,0,0,3,1
16,74,1,22,NaN,NaN,2,NaN,4.701746e-01,NaN,1,1,1,1
16,75,1,87,NaN,NaN,1,NaN,1.285871e-04,NaN,2,1,2,1
16,76,1,83,NaN,NaN,1,NaN,3.590216e-01,NaN,0,0,2,1
16,77,1,13,NaN,NaN,1,NaN,1.062404e-01,NaN,1,1,1,1
16,78,1,29,NaN,NaN,1,NaN,2.799022e-01,NaN,1,0,1,1
16,79,1,7,NaN,NaN,1,NaN,4.068641e-01,NaN,2,1,1,1
16,80,1,53,NaN,NaN,1,NaN,2.880874e-01,NaN,1,0,2,1
16,81,1,79,NaN,NaN,1,NaN,2.622791e-01,NaN,2,0,2,1
16,82,1,135,NaN,NaN,1,NaN,1.017308e-01,NaN,1,0,3,1
16,83,1,25,NaN,NaN,1,NaN,2.679882e-01,NaN,1,0,1,1
16,84,1,143,NaN,NaN,2,NaN,1.140948e-01,NaN,0,0,3,1
16,85,1,73,NaN,NaN,1,NaN,2.551709e-01,NaN,0,1,2,1
16,86,1,52,NaN,NaN,1,NaN,1.587182e-01,NaN,1,0,2,1
16,87,1,108,NaN,NaN,2,NaN,1.257939e+00,NaN,1,0,3,1
16,88,1,102,NaN,NaN,2,NaN,6.532860e-02,NaN,0,0,3,1
16,89,1,27,NaN,NaN,1,NaN,3.210633e-01,NaN,2,0,1,1
16,90,1,21,NaN,NaN,1,NaN,6.185523e-02,NaN,1,0,1,1
16,91,1,78,NaN,NaN,1,NaN,1.996767e+00,NaN,2,0,2,1
16,92,1,86,NaN,NaN,1,NaN,3.025296e-01,NaN,2,0,2,1
16,93,1,142,NaN,NaN,2,NaN,7.801743e-01,NaN,2,1,3,1
16,94,1,24,NaN,NaN,1,NaN,4.870805e-01,NaN,0,0,1,1
16,95,1,17,NaN,NaN,1,NaN,4.847647e-01,NaN,2,0,1,1
16,96,1,99,NaN,NaN,2,NaN,1.026643e+00,NaN,2,0,3,1
16,97,1,137,NaN,NaN,1,NaN,2.835434e-01,NaN,1,1,3,1
16,98,1,39,NaN,NaN,2,NaN,3.937905e-01,NaN,0,0,1,1
16,99,1,36,NaN,NaN,1,NaN,3.154260e-01,NaN,0,0,1,1
16,100,1,28,NaN,NaN,2,NaN,3.283656e-01,NaN,2,0,1,1
16,101,1,77,NaN,NaN,1,NaN,2.448187e-01,NaN,1,1,2,1
16,102,1,124,NaN,NaN,2,NaN,4.521811e-01,NaN,1,0,3,1
16,103,1,130,NaN,NaN,2,NaN,6.519950e-01,NaN,2,0,3,1
16,104,1,44,NaN,NaN,1,NaN,3.638436e-01,NaN,0,0,1,1
16,105,1,62,NaN,NaN,1,NaN,2.786009e-01,NaN,1,0,2,1
16,106,1,1,NaN,NaN,1,NaN,3.169715e-01,NaN,0,0,1,1
16,107,1,96,NaN,NaN,1,NaN,3.142084e-01,NaN,1,0,2,1
16,108,1,87,NaN,NaN,1,NaN,3.352345e-01,NaN,0,1,2,1
16,109,1,64,NaN,NaN,1,NaN,2.992865e-01,NaN,1,1,2,1
16,110,1,66,NaN,NaN,1,NaN,5.689153e-01,NaN,0,0,2,1
16,111,1,37,NaN,NaN,1,NaN,7.720250e-01,NaN,2,1,1,1
16,112,1,117,NaN,NaN,2,NaN,4.549135e-01,NaN,1,0,3,1
16,113,1,119,NaN,NaN,2,NaN,3.578054e-01,NaN,1,1,3,1
16,114,1,113,NaN,NaN,1,NaN,3.049951e-01,NaN,0,1,3,1
16,115,1,129,NaN,NaN,2,NaN,8.146335e-01,NaN,0,0,3,1
16,116,1,19,NaN,NaN,1,NaN,4.472269e-01,NaN,2,0,1,1
16,117,1,112,NaN,NaN,1,NaN,1.186289e-01,NaN,0,0,3,1
16,118,1,17,NaN,NaN,1,NaN,5.638382e-01,NaN,0,0,1,1
16,119,1,34,NaN,NaN,1,NaN,6.391221e-01,NaN,0,0,1,1
16,120,1,96,NaN,NaN,1,NaN,3.748173e-01,NaN,0,0,2,1
16,121,1,59,NaN,NaN,1,NaN,4.018489e-01,NaN,0,0,2,1
16,122,1,106,NaN,NaN,2,NaN,7.586521e+00,NaN,0,0,3,1
16,123,1,132,NaN,NaN,2,NaN,1.258705e-04,NaN,0,0,3,1
16,124,1,62,NaN,NaN,1,NaN,3.581203e-01,NaN,0,0,2,1
16,125,1,68,NaN,NaN,1,NaN,3.936936e-01,NaN,2,0,2,1
16,126,1,61,NaN,NaN,1,NaN,3.877801e-01,NaN,1,0,2,1
16,127,1,69,NaN,NaN,1,NaN,3.256327e-01,NaN,0,0,2,1
16,128,1,109,NaN,NaN,1,NaN,3.146189e-01,NaN,0,1,3,1
16,129,1,33,NaN,NaN,1,NaN,2.958180e-01,NaN,2,1,1,1
16,130,1,31,NaN,NaN,1,NaN,3.014665e-01,NaN,2,0,1,1
16,131,1,43,NaN,NaN,1,NaN,3.476259e-01,NaN,2,0,1,1
16,132,1,131,NaN,NaN,1,NaN,1.926836e+00,NaN,0,0,3,1
16,133,1,4,NaN,NaN,1,NaN,2.671114e-01,NaN,0,1,1,1
16,134,1,59,NaN,NaN,1,NaN,3.624264e-01,NaN,2,0,2,1
16,135,1,112,NaN,NaN,1,NaN,3.246170e-01,NaN,1,0,3,1
16,136,1,114,NaN,NaN,1,NaN,1.331149e-04,NaN,0,1,3,1
16,137,1,9,NaN,NaN,1,NaN,2.512758e-01,NaN,0,0,1,1
16,138,1,94,NaN,NaN,1,NaN,3.307747e-01,NaN,1,0,2,1
16,139,1,31,NaN,NaN,1,NaN,2.871311e-01,NaN,0,0,1,1
16,140,1,45,NaN,NaN,2,NaN,7.167633e-01,NaN,1,0,1,1
16,141,1,100,NaN,NaN,2,NaN,2.425622e+00,NaN,0,1,3,1
16,142,1,1,NaN,NaN,1,NaN,4.421510e-01,NaN,1,0,1,1
16,143,1,40,NaN,NaN,1,NaN,3.141133e-01,NaN,1,0,1,1
16,144,1,85,NaN,NaN,1,NaN,3.435045e-01,NaN,0,0,2,1
16,145,1,107,NaN,NaN,1,NaN,6.354057e-01,NaN,1,0,3,1
16,146,1,67,NaN,NaN,1,NaN,4.595127e-01,NaN,0,0,2,1
16,147,1,104,NaN,NaN,2,NaN,6.350067e-01,NaN,1,0,3,1
16,148,1,8,NaN,NaN,1,NaN,6.434632e-01,NaN,1,0,1,1
16,149,1,133,NaN,NaN,2,NaN,1.091926e+00,NaN,1,0,3,1
16,150,1,117,NaN,NaN,2,NaN,1.041386e+00,NaN,0,0,3,1
16,151,1,116,NaN,NaN,1,NaN,3.140043e-01,NaN,0,1,3,1
16,152,1,89,NaN,NaN,1,NaN,3.672910e-01,NaN,0,1,2,1
16,153,1,95,NaN,NaN,1,NaN,3.465423e-02,NaN,0,1,2,1
16,154,1,105,NaN,NaN,2,NaN,4.587415e-01,NaN,2,0,3,1
16,155,1,115,NaN,NaN,2,NaN,2.458583e+00,NaN,0,0,3,1
16,156,1,102,NaN,NaN,1,NaN,3.380462e-01,NaN,2,0,3,1
16,157,1,72,NaN,NaN,1,NaN,2.303457e-01,NaN,0,1,2,1
16,158,1,49,NaN,NaN,1,NaN,2.625667e-01,NaN,1,0,2,1
16,159,1,65,NaN,NaN,1,NaN,2.694622e-01,NaN,0,1,2,1
16,160,1,47,NaN,NaN,1,NaN,2.281573e-01,NaN,0,0,1,1
16,161,1,63,NaN,NaN,1,NaN,1.894846e-01,NaN,2,0,2,1
16,162,1,139,NaN,NaN,1,NaN,2.329057e-02,NaN,2,0,3,1
16,163,1,42,NaN,NaN,1,NaN,3.038287e-01,NaN,1,0,1,1
16,164,1,19,NaN,NaN,1,NaN,2.216896e-01,NaN,0,0,1,1
16,165,1,18,NaN,NaN,1,NaN,2.787062e-01,NaN,0,0,1,1
16,166,1,107,NaN,NaN,1,NaN,2.208417e-01,NaN,0,0,3,1
16,167,1,98,NaN,NaN,2,NaN,3.972270e-01,NaN,0,1,3,1
16,168,1,30,NaN,NaN,1,NaN,1.038777e+00,NaN,0,1,1,1
16,169,1,54,NaN,NaN,1,NaN,7.052068e-03,NaN,2,0,2,1
16,170,1,72,NaN,NaN,1,NaN,4.563554e-01,NaN,1,1,2,1
16,171,1,61,NaN,NaN,1,NaN,3.757485e-01,NaN,0,0,2,1
16,172,1,2,NaN,NaN,1,NaN,1.585913e+00,NaN,0,1,1,1
16,173,1,37,NaN,NaN,1,NaN,3.402243e-01,NaN,0,1,1,1
16,174,1,12,NaN,NaN,2,NaN,2.246846e-01,NaN,0,0,1,1
16,175,1,122,NaN,NaN,2,NaN,1.052006e-01,NaN,1,0,3,1
16,176,1,81,NaN,NaN,1,NaN,2.788252e-01,NaN,0,0,2,1
16,177,1,134,NaN,NaN,2,NaN,7.493110e-01,NaN,0,0,3,1
16,178,1,15,NaN,NaN,2,NaN,2.085940e-01,NaN,0,0,1,1
16,179,1,83,NaN,NaN,1,NaN,2.186509e-01,NaN,2,0,2,1
16,180,1,51,NaN,NaN,1,NaN,7.575743e-02,NaN,0,0,2,1
16,181,1,70,NaN,NaN,1,NaN,1.279834e-04,NaN,0,0,2,1
16,182,1,98,NaN,NaN,1,NaN,2.918870e-01,NaN,2,1,3,1
16,183,1,41,NaN,NaN,1,NaN,2.576940e-01,NaN,2,0,1,1
16,184,1,44,NaN,NaN,1,NaN,1.288889e-04,NaN,2,0,1,1
16,185,1,119,NaN,NaN,1,NaN,1.237575e-04,NaN,0,1,3,1
16,186,1,90,NaN,NaN,1,NaN,1.491897e-01,NaN,2,0,2,1
16,187,1,42,NaN,NaN,1,NaN,2.648514e-01,NaN,0,0,1,1
16,188,1,92,NaN,NaN,1,NaN,2.794035e-01,NaN,0,0,2,1
16,189,1,75,NaN,NaN,1,NaN,2.700960e-01,NaN,2,0,2,1
16,190,1,20,NaN,NaN,1,NaN,9.088755e-01,NaN,2,1,1,1
16,191,1,71,NaN,NaN,1,NaN,2.581057e-01,NaN,0,0,2,1
16,192,1,82,NaN,NaN,1,NaN,3.457822e-01,NaN,0,1,2,1
16,193,1,136,NaN,NaN,1,NaN,3.334605e-01,NaN,2,1,3,1
16,194,1,58,NaN,NaN,1,NaN,9.784876e-02,NaN,2,0,2,1
16,195,1,2,NaN,NaN,1,NaN,9.683102e-01,NaN,1,1,1,1
16,196,1,15,NaN,NaN,1,NaN,2.909960e-01,NaN,2,0,1,1
16,197,1,9,NaN,NaN,1,NaN,2.415171e-01,NaN,1,0,1,1
16,198,1,34,NaN,NaN,1,NaN,3.293424e-01,NaN,1,0,1,1
16,199,1,28,NaN,NaN,1,NaN,9.375329e-02,NaN,0,0,1,1
16,200,1,39,NaN,NaN,2,NaN,2.205278e-01,NaN,2,0,1,1
16,201,1,67,NaN,NaN,1,NaN,4.132639e-01,NaN,1,0,2,1
16,202,1,142,NaN,NaN,1,NaN,1.818216e-01,NaN,0,1,3,1
16,203,1,77,NaN,NaN,1,NaN,1.665928e-02,NaN,0,1,2,1
16,204,1,14,NaN,NaN,1,NaN,4.160729e-02,NaN,1,0,1,1
16,205,1,49,NaN,NaN,1,NaN,1.855799e-01,NaN,0,0,2,1
16,206,1,51,NaN,NaN,1,NaN,2.517917e-01,NaN,2,0,2,1
16,207,1,13,NaN,NaN,1,NaN,2.755725e-01,NaN,0,1,1,1
16,208,1,73,NaN,NaN,1,NaN,3.704954e-01,NaN,1,1,2,1
16,209,1,46,NaN,NaN,2,NaN,8.046744e-01,NaN,1,1,1,1
16,210,1,94,NaN,NaN,1,NaN,2.779936e-01,NaN,0,0,2,1
16,211,1,80,NaN,NaN,1,NaN,2.849291e-01,NaN,2,0,2,1
16,212,1,55,NaN,NaN,1,NaN,3.389421e-01,NaN,0,0,2,1
16,213,1,134,NaN,NaN,2,NaN,6.949989e-01,NaN,2,0,3,1
16,214,1,7,NaN,NaN,1,NaN,3.490093e-01,NaN,0,1,1,1
16,215,1,35,NaN,NaN,2,NaN,9.687533e-01,NaN,0,0,1,1
16,216,1,122,NaN,NaN,2,NaN,2.075741e+00,NaN,0,0,3,1
16,217,1,5,NaN,NaN,1,NaN,4.904536e-01,NaN,1,1,1,1
16,218,1,127,NaN,NaN,1,NaN,2.799052e-01,NaN,0,0,3,1
16,219,1,68,NaN,NaN,1,NaN,2.463744e-01,NaN,0,0,2,1
16,220,1,141,NaN,NaN,1,NaN,1.030130e+00,NaN,2,0,3,1
16,221,1,57,NaN,NaN,1,NaN,2.948805e-01,NaN,1,0,2,1
16,222,1,40,NaN,NaN,1,NaN,2.286614e-01,NaN,0,0,1,1
16,223,1,50,NaN,NaN,1,NaN,2.770977e-01,NaN,0,0,2,1
16,224,1,5,NaN,NaN,1,NaN,3.630835e-01,NaN,0,1,1,1
16,225,1,131,NaN,NaN,1,NaN,3.586298e-01,NaN,2,0,3,1
16,226,1,125,NaN,NaN,1,NaN,1.417913e+00,NaN,2,0,3,1
16,227,1,111,NaN,NaN,1,NaN,5.952071e-01,NaN,0,0,3,1
16,228,1,110,NaN,NaN,2,NaN,5.809922e-01,NaN,0,0,3,1
16,229,1,121,NaN,NaN,2,NaN,2.455295e+00,NaN,0,1,3,1
16,230,1,38,NaN,NaN,1,NaN,5.823557e-01,NaN,2,0,1,1
16,231,1,100,NaN,NaN,2,NaN,1.785076e+00,NaN,1,1,3,1
16,232,1,80,NaN,NaN,1,NaN,2.428268e-01,NaN,0,0,2,1
16,233,1,124,NaN,NaN,1,NaN,2.592422e-01,NaN,0,0,3,1
16,234,1,109,NaN,NaN,1,NaN,3.551434e-01,NaN,2,1,3,1
16,235,1,126,NaN,NaN,2,NaN,6.785612e-01,NaN,1,0,3,1
16,236,1,144,NaN,NaN,1,NaN,3.164167e-01,NaN,0,0,3,1
16,237,1,144,NaN,NaN,1,NaN,4.175643e-01,NaN,1,0,3,1
16,238,1,103,NaN,NaN,1,NaN,2.671388e-01,NaN,0,0,3,1
16,239,1,58,NaN,NaN,1,NaN,2.257465e-01,NaN,0,0,2,1
16,240,1,35,NaN,NaN,2,NaN,6.505283e-01,NaN,2,0,1,1
16,241,1,82,NaN,NaN,1,NaN,2.654268e-02,NaN,1,1,2,1
16,242,1,22,NaN,NaN,2,NaN,3.476241e-01,NaN,0,1,1,1
16,243,1,103,NaN,NaN,1,NaN,2.468846e-01,NaN,1,0,3,1
16,244,1,6,NaN,NaN,1,NaN,2.625930e-01,NaN,0,1,1,1
16,245,1,10,NaN,NaN,1,NaN,2.851549e-01,NaN,0,0,1,1
16,246,1,101,NaN,NaN,1,NaN,2.835210e-01,NaN,1,0,3,1
16,247,1,141,NaN,NaN,1,NaN,1.264742e-04,NaN,0,0,3,1
16,248,1,121,NaN,NaN,1,NaN,1.878293e-01,NaN,1,1,3,1
16,249,1,69,NaN,NaN,1,NaN,3.580010e-01,NaN,2,0,2,1
16,250,1,23,NaN,NaN,1,NaN,3.696222e-01,NaN,0,0,1,1
16,251,1,74,NaN,NaN,1,NaN,3.238473e-01,NaN,0,0,2,1
16,252,1,20,NaN,NaN,1,NaN,4.485439e-01,NaN,0,1,1,1
16,253,1,132,NaN,NaN,2,NaN,4.804664e-01,NaN,1,0,3,1
16,254,1,10,NaN,NaN,1,NaN,2.062227e-01,NaN,1,0,1,1
16,255,1,118,NaN,NaN,1,NaN,3.034466e-01,NaN,0,0,3,1
16,256,1,84,NaN,NaN,1,NaN,2.526637e-01,NaN,2,1,2,1
16,257,1,99,NaN,NaN,2,NaN,7.084767e-01,NaN,0,0,3,1
16,258,1,8,NaN,NaN,1,NaN,1.237576e-04,NaN,0,0,1,1
16,259,1,105,NaN,NaN,1,NaN,1.267747e+00,NaN,0,0,3,1
16,260,1,26,NaN,NaN,1,NaN,3.149416e-01,NaN,2,0,1,1
16,261,1,81,NaN,NaN,1,NaN,3.036455e-01,NaN,1,0,2,1
16,262,1,63,NaN,NaN,1,NaN,3.252216e-01,NaN,0,0,2,1
16,263,1,32,NaN,NaN,1,NaN,3.458855e-01,NaN,2,0,1,1
16,264,1,24,NaN,NaN,1,NaN,2.300496e-01,NaN,2,0,1,1
16,265,1,86,NaN,NaN,1,NaN,4.139210e-01,NaN,0,0,2,1
16,266,1,57,NaN,NaN,1,NaN,2.475842e-01,NaN,0,0,2,1
16,267,1,32,NaN,NaN,1,NaN,5.673092e-01,NaN,0,0,1,1
16,268,1,30,NaN,NaN,1,NaN,2.507509e-01,NaN,2,1,1,1
16,269,1,114,NaN,NaN,1,NaN,2.818062e-01,NaN,2,1,3,1
16,270,1,130,NaN,NaN,2,NaN,3.445078e-01,NaN,0,0,3,1
16,271,1,143,NaN,NaN,2,NaN,3.487150e-01,NaN,2,0,3,1
16,272,1,126,NaN,NaN,2,NaN,6.084522e-01,NaN,0,0,3,1
16,273,1,45,NaN,NaN,1,NaN,5.455100e-01,NaN,0,0,1,1
16,274,1,70,NaN,NaN,1,NaN,3.736274e-01,NaN,1,0,2,1
16,275,1,138,NaN,NaN,1,NaN,6.317211e-01,NaN,0,0,3,1
16,276,1,90,NaN,NaN,1,NaN,3.200340e-01,NaN,0,0,2,1
16,277,1,78,NaN,NaN,1,NaN,2.685871e-01,NaN,0,0,2,1
16,278,1,92,NaN,NaN,1,NaN,1.971500e+00,NaN,1,0,2,1
16,279,1,106,NaN,NaN,1,NaN,1.590169e+00,NaN,1,0,3,1
16,280,1,26,NaN,NaN,1,NaN,1.047905e+00,NaN,0,0,1,1
16,281,1,65,NaN,NaN,1,NaN,3.672512e-01,NaN,2,1,2,1
16,282,1,16,NaN,NaN,1,NaN,4.668826e-01,NaN,1,0,1,1
16,283,1,84,NaN,NaN,1,NaN,3.384464e-01,NaN,0,1,2,1
16,284,1,123,NaN,NaN,1,NaN,1.046338e+00,NaN,1,0,3,1
16,285,1,88,NaN,NaN,1,NaN,6.858713e-01,NaN,0,0,2,1
16,286,1,16,NaN,NaN,1,NaN,2.443711e-01,NaN,0,0,1,1
16,287,1,95,NaN,NaN,1,NaN,2.047644e-01,NaN,1,1,2,1
16,288,1,6,NaN,NaN,1,NaN,2.299150e-01,NaN,2,1,1,1
16,373,2,108,56,2,2,1,1.723626e+00,NaN,1,0,3,1
16,374,2,45,50,1,1,1,3.124748e+00,NaN,1,0,1,1
16,375,2,1,21,1,1,1,2.069419e+00,NaN,1,0,1,1
16,376,2,8,18,1,1,1,1.215760e+00,NaN,1,0,1,1
16,377,2,140,64,1,0,0,3.500015e+00,NaN,1,0,3,1
16,378,2,42,38,1,1,1,9.018446e-01,NaN,1,0,1,1
16,379,2,49,1,1,2,0,8.789165e-01,NaN,1,0,2,1
16,380,2,18,63,2,2,1,1.457067e+00,NaN,1,0,1,1
16,381,2,132,35,1,1,1,1.019784e+00,NaN,1,0,3,1
16,382,2,12,5,1,2,0,6.481373e-01,NaN,1,0,1,1
16,383,2,67,6,1,1,1,8.358960e-01,NaN,1,0,2,1
16,384,2,72,29,2,2,1,5.999646e-01,NaN,1,1,2,1
16,385,2,46,42,2,2,1,1.037038e+00,NaN,1,1,1,1
16,386,2,29,2,1,1,1,9.212796e-01,NaN,1,0,1,1
16,387,2,74,48,1,1,1,8.016396e-01,NaN,1,0,2,1
16,388,2,73,26,1,2,0,9.109453e-01,NaN,1,1,2,1
16,389,2,60,67,1,2,0,9.037528e-01,NaN,1,1,2,1
16,390,2,138,72,1,1,1,1.137094e+00,NaN,1,0,3,1
16,391,2,112,53,1,1,1,8.173719e-01,NaN,1,0,3,1
16,392,2,100,8,1,1,1,1.286111e+00,NaN,1,1,3,1
16,393,2,16,23,1,1,1,7.919382e-01,NaN,1,0,1,1
16,394,2,82,30,1,1,1,6.856890e-01,NaN,1,1,2,1
16,395,2,104,41,2,2,1,7.598370e-01,NaN,1,0,3,1
16,396,2,11,52,2,2,1,1.303124e+00,NaN,1,1,1,1
16,397,3,29,2,2,2,1,6.942165e-01,NaN,1,0,1,1
16,398,3,46,42,1,2,0,8.884857e-01,NaN,1,1,1,1
16,399,3,138,72,1,1,1,7.701288e-01,NaN,1,0,3,1
16,400,3,67,6,2,2,1,7.770649e-01,NaN,1,0,2,1
16,401,3,82,30,1,1,1,5.678184e-01,NaN,1,1,2,1
16,402,3,73,26,2,1,0,8.868910e-01,NaN,1,1,2,1
16,403,3,100,8,2,2,1,1.088893e+00,NaN,1,1,3,1
16,404,3,45,50,1,1,1,1.378956e+00,NaN,1,0,1,1
16,405,3,140,64,1,1,1,1.121059e+00,NaN,1,0,3,1
16,406,3,18,63,1,1,1,1.025499e+00,NaN,1,0,1,1
16,407,3,112,53,2,2,1,7.097191e-01,NaN,1,0,3,1
16,408,3,60,67,2,2,1,5.110436e-01,NaN,1,1,2,1
16,409,3,49,1,2,2,1,1.287868e+00,NaN,1,0,2,1
16,410,3,1,21,2,2,1,8.737199e-01,NaN,1,0,1,1
16,411,3,108,56,1,1,1,9.723031e-01,NaN,1,0,3,1
16,412,3,12,5,2,2,1,1.338321e+00,NaN,1,0,1,1
16,413,3,16,23,2,2,1,8.103778e-01,NaN,1,0,1,1
16,414,3,104,41,2,2,1,1.071297e+00,NaN,1,0,3,1
16,415,3,8,18,1,1,1,5.936345e-01,NaN,1,0,1,1
16,416,3,72,29,2,2,1,6.791154e-01,NaN,1,1,2,1
16,417,3,74,48,1,1,1,8.170395e-01,NaN,1,0,2,1
16,418,3,42,38,1,1,1,8.940170e-01,NaN,1,0,1,1
16,419,3,11,52,1,2,0,9.115625e-01,NaN,1,1,1,1
16,420,3,132,35,2,2,1,9.045340e-01,NaN,1,0,3,1
16,445,2,14,20,2,2,1,8.243971e-01,NaN,1,0,1,2
16,446,2,94,13,2,2,1,9.174054e-01,NaN,1,0,2,2
16,447,2,13,57,1,1,1,8.227345e-01,NaN,1,1,1,2
16,448,2,124,61,2,2,1,8.752986e-01,NaN,1,0,3,2
16,449,2,62,11,2,2,1,6.937022e-01,NaN,1,0,2,2
16,450,2,133,37,2,2,1,7.590778e-01,NaN,1,0,3,2
16,451,2,106,31,2,2,1,1.270657e+00,NaN,1,0,3,2
16,452,2,5,3,1,1,1,9.045965e-01,NaN,1,1,1,2
16,453,2,118,16,2,2,1,1.018423e+00,NaN,1,0,3,2
16,454,2,47,71,2,2,1,9.427733e-01,NaN,1,0,1,2
16,455,2,3,46,1,1,1,1.222466e+00,NaN,1,0,1,2
16,456,2,107,28,2,2,1,8.111040e-01,NaN,1,0,3,2
16,457,2,126,22,1,1,1,1.024517e+00,NaN,1,0,3,2
16,458,2,34,58,2,2,1,9.645827e-01,NaN,1,0,1,2
16,459,2,55,65,2,2,1,7.072207e-01,NaN,1,0,2,2
16,460,2,2,24,2,2,1,1.012612e+00,NaN,1,1,1,2
16,461,2,95,69,2,2,1,9.051758e-01,NaN,1,1,2,2
16,462,2,22,36,1,1,1,8.747724e-01,NaN,1,1,1,2
16,463,2,53,14,1,1,1,4.772765e-01,NaN,1,0,2,2
16,464,2,122,10,1,1,1,6.713277e-01,NaN,1,0,3,2
16,465,2,93,17,2,2,1,8.740006e-01,NaN,1,0,2,2
16,466,2,10,51,1,1,1,7.562483e-01,NaN,1,0,1,2
16,467,2,121,54,1,1,1,9.951997e-01,NaN,1,1,3,2
16,468,2,116,32,1,1,1,1.184849e+00,NaN,1,1,3,2
16,469,3,22,36,1,1,1,1.026733e+00,NaN,1,1,1,2
16,470,3,124,61,2,2,1,7.351833e-01,NaN,1,0,3,2
16,471,3,118,16,2,2,1,8.558460e-01,NaN,1,0,3,2
16,472,3,10,51,2,2,1,6.750564e-01,NaN,1,0,1,2
16,473,3,107,28,2,2,1,5.576114e-01,NaN,1,0,3,2
16,474,3,14,20,2,2,1,5.644775e-01,NaN,1,0,1,2
16,475,3,94,13,1,1,1,1.107613e+00,NaN,1,0,2,2
16,476,3,47,71,1,1,1,1.092447e+00,NaN,1,0,1,2
16,477,3,121,54,2,2,1,1.085948e+00,NaN,1,1,3,2
16,478,3,3,46,1,1,1,1.024447e+00,NaN,1,0,1,2
16,479,3,5,3,1,1,1,6.204132e-01,NaN,1,1,1,2
16,480,3,34,58,2,2,1,7.447947e-01,NaN,1,0,1,2
16,481,3,122,10,2,2,1,1.032843e+00,NaN,1,0,3,2
16,482,3,93,17,2,2,1,6.607802e-01,NaN,1,0,2,2
16,483,3,55,65,2,2,1,5.119702e-01,NaN,1,0,2,2
16,484,3,116,32,2,1,0,1.560846e+00,NaN,1,1,3,2
16,485,3,13,57,1,1,1,7.440808e-01,NaN,1,1,1,2
16,486,3,53,14,1,1,1,6.239605e-01,NaN,1,0,2,2
16,487,3,95,69,2,2,1,9.964515e-01,NaN,1,1,2,2
16,488,3,2,24,2,2,1,6.497290e-01,NaN,1,1,1,2
16,489,3,133,37,1,1,1,1.221081e+00,NaN,1,0,3,2
16,490,3,126,22,2,2,1,1.169591e+00,NaN,1,0,3,2
16,491,3,106,31,2,2,1,8.888947e-01,NaN,1,0,3,2
16,492,3,62,11,1,1,1,4.983922e-01,NaN,1,0,2,2
16,517,2,70,62,1,1,1,8.479563e-01,NaN,1,0,2,3
16,518,2,119,25,2,2,1,1.035742e+00,NaN,1,1,3,3
16,519,2,76,70,2,2,1,6.636704e-01,NaN,1,0,2,3
16,520,2,64,34,1,1,1,6.265142e-01,NaN,1,1,2,3
16,521,2,52,33,1,1,1,1.151024e+00,NaN,1,0,2,3
16,522,2,96,55,2,2,1,5.104562e-01,NaN,1,0,2,3
16,523,2,101,59,1,1,1,9.832459e-01,NaN,1,0,3,3
16,524,2,21,4,1,1,1,9.344076e-01,NaN,1,0,1,3
16,525,2,117,39,2,2,1,6.140772e-01,NaN,1,0,3,3
16,526,2,135,44,1,1,1,5.867110e-01,NaN,1,0,3,3
16,527,2,9,7,2,2,1,8.328165e-01,NaN,1,0,1,3
16,528,2,25,43,1,1,1,6.369666e-01,NaN,1,0,1,3
16,529,2,88,15,2,2,1,6.967940e-01,NaN,1,0,2,3
16,530,2,137,40,2,2,1,9.466228e-01,NaN,1,1,3,3
16,531,2,61,45,2,2,1,8.660213e-01,NaN,1,0,2,3
16,532,2,81,66,2,2,1,5.005936e-01,NaN,1,0,2,3
16,533,2,48,12,1,1,1,1.718078e+00,NaN,1,0,1,3
16,534,2,57,9,1,1,1,5.747241e-01,NaN,1,0,2,3
16,535,2,123,68,2,2,1,7.494806e-01,NaN,1,0,3,3
16,536,2,40,47,2,2,1,6.689304e-01,NaN,1,0,1,3
16,537,2,103,19,2,2,1,6.794335e-01,NaN,1,0,3,3
16,538,2,92,27,1,1,1,6.734433e-01,NaN,1,0,2,3
16,539,2,77,49,1,1,1,5.882209e-01,NaN,1,1,2,3
16,540,2,144,60,1,1,1,4.660420e-01,NaN,1,0,3,3
16,541,3,135,44,1,0,0,3.499783e+00,NaN,1,0,3,3
16,542,3,9,7,2,0,0,3.499546e+00,NaN,1,0,1,3
16,543,3,76,70,1,2,0,4.270843e-01,NaN,1,0,2,3
16,544,3,119,25,2,1,0,6.870606e-01,NaN,1,1,3,3
16,545,3,103,19,2,2,1,6.570388e-01,NaN,1,0,3,3
16,546,3,88,15,1,1,1,9.962390e-01,NaN,1,0,2,3
16,547,3,48,12,2,1,0,6.497827e-01,NaN,1,0,1,3
16,548,3,61,45,1,1,1,5.254664e-01,NaN,1,0,2,3
16,549,3,144,60,1,1,1,4.863772e-01,NaN,1,0,3,3
16,550,3,123,68,2,2,1,9.275620e-01,NaN,1,0,3,3
16,551,3,137,40,2,2,1,6.643309e-01,NaN,1,1,3,3
16,552,3,96,55,1,1,1,4.912113e-01,NaN,1,0,2,3
16,553,3,40,47,2,2,1,6.047531e-01,NaN,1,0,1,3
16,554,3,57,9,2,2,1,5.139494e-01,NaN,1,0,2,3
16,555,3,117,39,2,2,1,5.393330e-01,NaN,1,0,3,3
16,556,3,64,34,1,1,1,4.668253e-01,NaN,1,1,2,3
16,557,3,21,4,2,2,1,5.736178e-01,NaN,1,0,1,3
16,558,3,52,33,2,2,1,1.163984e+00,NaN,1,0,2,3
16,559,3,92,27,2,2,1,5.393849e-01,NaN,1,0,2,3
16,560,3,101,59,2,2,1,9.070777e-01,NaN,1,0,3,3
16,561,3,25,43,2,2,1,4.919375e-01,NaN,1,0,1,3
16,562,3,70,62,2,2,1,6.537526e-01,NaN,1,0,2,3
16,563,3,81,66,2,2,1,7.053438e-01,NaN,1,0,2,3
16,564,3,77,49,2,2,1,4.344476e-01,NaN,1,1,2,3
16,589,4,32,33,1,1,1,1.159975e+00,NaN,2,0,1,1
16,590,4,4,40,1,1,1,7.428795e-01,NaN,2,1,1,1
16,591,4,143,12,1,1,1,9.668565e-01,NaN,2,0,3,1
16,592,4,20,32,2,2,1,8.937230e-01,NaN,2,1,1,1
16,593,4,30,49,2,2,1,7.359331e-01,NaN,2,1,1,1
16,594,4,6,25,1,1,1,1.047859e+00,NaN,2,1,1,1
16,595,4,58,31,1,1,1,8.829468e-01,NaN,2,0,2,1
16,596,4,80,63,1,1,1,6.533228e-01,NaN,2,0,2,1
16,597,4,142,36,1,1,1,7.206668e-01,NaN,2,1,3,1
16,598,4,43,14,2,2,1,7.370578e-01,NaN,2,0,1,1
16,599,4,99,27,2,2,1,8.495555e-01,NaN,2,0,3,1
16,600,4,85,5,1,1,1,3.970121e-01,NaN,2,0,2,1
16,601,4,79,21,2,2,1,5.464811e-01,NaN,2,0,2,1
16,602,4,7,8,1,1,1,6.819482e-01,NaN,2,1,1,1
16,603,4,41,1,2,2,1,1.275674e+00,NaN,2,0,1,1
16,604,4,83,43,1,1,1,5.822709e-01,NaN,2,0,2,1
16,605,4,113,34,1,1,1,8.847585e-01,NaN,2,1,3,1
16,606,4,75,38,2,2,1,5.667767e-01,NaN,2,0,2,1
16,607,4,68,39,2,2,1,5.735423e-01,NaN,2,0,2,1
16,608,4,39,65,1,1,1,9.400730e-01,NaN,2,0,1,1
16,609,4,69,28,1,1,1,6.515241e-01,NaN,2,0,2,1
16,610,4,28,72,1,1,1,7.513439e-01,NaN,2,0,1,1
16,611,4,31,15,2,2,1,9.426716e-01,NaN,2,0,1,1
16,612,4,78,58,2,2,1,9.025925e-01,NaN,2,0,2,1
16,637,4,91,47,2,2,1,8.527137e-01,NaN,2,0,2,2
16,638,4,115,11,1,1,1,6.000310e-01,NaN,2,0,3,2
16,639,4,59,61,2,2,1,9.094134e-01,NaN,2,0,2,2
16,640,4,110,48,1,1,1,9.505356e-01,NaN,2,0,3,2
16,641,4,141,51,2,2,1,9.259051e-01,NaN,2,0,3,2
16,642,4,89,52,1,1,1,7.023631e-01,NaN,2,1,2,2
16,643,4,130,71,2,2,1,7.196499e-01,NaN,2,0,3,2
16,644,4,56,10,1,1,1,1.160742e+00,NaN,2,0,2,2
16,645,4,51,19,2,2,1,6.155595e-01,NaN,2,0,2,2
16,646,4,84,42,2,2,1,8.686392e-01,NaN,2,1,2,2
16,647,4,131,50,1,1,1,7.518332e-01,NaN,2,0,3,2
16,648,4,66,16,2,2,1,1.103383e+00,NaN,2,0,2,2
16,649,4,102,55,1,1,1,1.088969e+00,NaN,2,0,3,2
16,650,4,36,45,2,2,1,7.625826e-01,NaN,2,0,1,2
16,651,4,37,26,2,2,1,7.617078e-01,NaN,2,1,1,2
16,652,4,109,69,1,1,1,7.125000e-01,NaN,2,1,3,2
16,653,4,50,37,1,1,1,5.772753e-01,NaN,2,0,2,2
16,654,4,17,60,2,1,0,1.343603e+00,NaN,2,0,1,2
16,655,4,128,3,1,1,1,1.552077e+00,NaN,2,1,3,2
16,656,4,90,23,1,1,1,7.830340e-01,NaN,2,0,2,2
16,657,4,114,67,2,2,1,1.053164e+00,NaN,2,1,3,2
16,658,4,136,24,2,2,1,7.920348e-01,NaN,2,1,3,2
16,659,4,125,18,1,1,1,1.757651e+00,NaN,2,0,3,2
16,660,4,86,7,1,1,1,7.727751e-01,NaN,2,0,2,2
16,685,4,129,4,2,2,1,1.211005e+00,NaN,2,0,3,3
16,686,4,127,20,2,2,1,8.077641e-01,NaN,2,0,3,3
16,687,4,35,6,1,2,0,1.396939e+00,NaN,2,0,1,3
16,688,4,71,56,2,2,1,6.744394e-01,NaN,2,0,2,3
16,689,4,63,44,1,1,1,1.012411e+00,NaN,2,0,2,3
16,690,4,44,66,1,1,1,1.217239e+00,NaN,2,0,1,3
16,691,4,26,68,2,2,1,7.979217e-01,NaN,2,0,1,3
16,692,4,105,13,1,2,0,6.836298e-01,NaN,2,0,3,3
16,693,4,111,70,2,2,1,1.213760e+00,NaN,2,0,3,3
16,694,4,97,17,2,2,1,1.227107e+00,NaN,2,0,3,3
16,695,4,24,53,1,1,1,1.527450e+00,NaN,2,0,1,3
16,696,4,98,29,2,2,1,9.277561e-01,NaN,2,1,3,3
16,697,4,27,22,1,1,1,1.104371e+00,NaN,2,0,1,3
16,698,4,139,46,2,2,1,1.257806e+00,NaN,2,0,3,3
16,699,4,33,30,2,1,0,1.172572e+00,NaN,2,1,1,3
16,700,4,54,35,1,1,1,8.031265e-01,NaN,2,0,2,3
16,701,4,120,9,2,2,1,7.438680e-01,NaN,2,0,3,3
16,702,4,87,57,1,1,1,1.023998e+00,NaN,2,1,2,3
16,703,4,23,41,2,2,1,7.965417e-01,NaN,2,0,1,3
16,704,4,38,62,2,2,1,1.505529e+00,NaN,2,0,1,3
16,705,4,19,59,2,2,1,1.122790e+00,NaN,2,0,1,3
16,706,4,134,2,2,2,1,1.219625e+00,NaN,2,0,3,3
16,707,4,65,54,1,1,1,7.755983e-01,NaN,2,1,2,3
16,708,4,15,64,1,1,1,1.102354e+00,NaN,2,0,1,3
16,709,5,4.941000e+01,1,2,0,0,2.500233e+00,1,1,0,2.100000e+00,1
16,710,5,1.122400e+02,53,3,3,1,1.058018e+00,1,1,0,3.100000e+00,1
16,711,5,1.186600e+02,16,3,3,1,9.233572e-01,1,1,0,3.200000e+00,1
16,712,5,5.820000e+01,9,2,2,1,4.212623e-01,1,1,0,2.300000e+00,1
16,713,5,1.285000e+01,5,1,0,0,2.500496e+00,1,1,0,1.200000e+00,1
16,714,5,1.176800e+02,39,3,3,1,3.285298e-01,1,1,0,3.200000e+00,1
16,715,5,1.035100e+02,19,3,3,1,2.577465e-01,1,1,0,3.200000e+00,1
16,716,5,5.820000e+01,9,2,2,1,4.434671e-01,2,1,0,2.300000e+00,1
16,717,5,4.091000e+01,47,1,1,1,4.128637e-01,1,1,0,1.200000e+00,1
16,718,5,1.042300e+02,41,3,3,1,1.198466e+00,1,1,0,3.100000e+00,1
16,719,5,6.735000e+01,6,2,2,1,3.763446e-01,1,1,0,2.100000e+00,1
16,720,5,6.735000e+01,6,2,2,1,5.537004e-01,2,1,0,2.100000e+00,1
16,721,5,6.315000e+01,11,2,2,1,1.028199e+00,1,1,0,2.300000e+00,1
16,722,5,1.186600e+02,16,3,3,1,1.140530e+00,2,1,0,3.200000e+00,1
16,723,5,5.539000e+01,65,2,2,1,5.026009e-01,1,1,0,2.100000e+00,1
16,724,5,9.702000e+01,55,2,2,1,3.681223e-01,1,1,0,2.300000e+00,1
16,725,5,1.042300e+02,41,3,3,1,2.497017e-01,2,1,0,3.100000e+00,1
16,726,5,1.245900e+02,61,3,3,1,2.993882e-01,1,1,0,3.200000e+00,1
16,727,5,9.397000e+01,17,2,2,1,3.327107e-01,1,1,0,2.300000e+00,1
16,728,5,6.315000e+01,11,2,2,1,1.501951e+00,2,1,0,2.300000e+00,1
16,729,5,5.539000e+01,65,2,2,1,3.682466e-01,2,1,0,2.100000e+00,1
16,730,5,1.285000e+01,5,1,3,0,1.617965e+00,2,1,0,1.200000e+00,1
16,731,5,1.245900e+02,61,3,3,1,1.740109e+00,2,1,0,3.200000e+00,1
16,732,5,1.880000e+01,63,1,1,1,3.025314e-01,1,1,0,1.200000e+00,1
16,733,5,1.122400e+02,53,3,3,1,2.883104e-01,2,1,0,3.100000e+00,1
16,734,5,1.076900e+02,28,3,3,1,2.335359e-01,1,1,0,3.200000e+00,1
16,735,5,1.225600e+02,10,3,3,1,4.514721e-01,1,1,0,3.200000e+00,1
16,736,5,4.275000e+01,38,1,1,1,2.773902e-01,1,1,0,1.200000e+00,1
16,737,5,7.510000e+01,48,2,2,1,3.352719e-01,1,1,0,2.300000e+00,1
16,738,5,4.830000e+01,71,1,1,1,3.052109e-01,1,1,0,1.300000e+00,1
16,739,5,1.401500e+02,64,3,3,1,1.618644e+00,1,1,0,3.100000e+00,1
16,740,5,1.401500e+02,64,3,3,1,6.604002e-01,2,1,0,3.100000e+00,1
16,741,5,4.941000e+01,1,2,1,0,1.053973e+00,2,1,0,2.100000e+00,1
16,742,5,1.262700e+02,22,3,1,0,1.567317e+00,1,1,0,3.100000e+00,1
16,743,5,1.790000e+00,21,1,1,1,2.016980e-01,1,1,0,1.200000e+00,1
16,744,5,9.702000e+01,55,2,2,1,2.671763e-01,2,1,0,2.300000e+00,1
16,745,5,4.091000e+01,47,1,1,1,3.249801e-01,2,1,0,1.200000e+00,1
16,746,5,1.225600e+02,10,3,3,1,2.468172e-01,2,1,0,3.200000e+00,1
16,747,5,1.087100e+02,56,3,3,1,1.344076e+00,1,1,0,3.200000e+00,1
16,748,5,1.141000e+01,51,1,1,1,2.660148e-01,1,1,0,1.300000e+00,1
16,749,5,2.583000e+01,43,1,1,1,2.358707e-01,1,1,0,1.200000e+00,1
16,750,5,1.441700e+02,60,3,3,1,1.037033e+00,1,1,0,3.100000e+00,1
16,751,5,5.232000e+01,33,2,2,1,2.710100e-01,1,1,0,2.100000e+00,1
16,752,5,5.232000e+01,33,2,2,1,1.921958e-01,2,1,0,2.100000e+00,1
16,753,5,5.232000e+01,33,2,2,1,3.382258e-01,3,1,0,2.100000e+00,1
16,754,5,5.539000e+01,65,2,2,1,2.435346e-01,3,1,0,2.100000e+00,1
16,755,5,9.250000e+00,18,1,1,1,1.236947e+00,1,1,0,1.300000e+00,1
16,756,5,3.034000e+01,2,1,1,1,2.225849e-01,1,1,0,1.300000e+00,1
16,757,5,3.478000e+01,58,1,1,1,3.922991e-01,1,1,0,1.200000e+00,1
16,758,5,1.262700e+02,22,3,3,1,2.977432e-01,2,1,0,3.100000e+00,1
16,759,5,2.583000e+01,43,1,1,1,2.754581e-01,2,1,0,1.200000e+00,1
16,760,5,9.702000e+01,55,2,2,1,2.930721e-01,3,1,0,2.300000e+00,1
16,761,5,9.860000e+00,7,1,1,1,5.427892e-01,1,1,0,1.200000e+00,1
16,762,5,1.335000e+02,37,3,3,1,2.806833e-01,1,1,0,3.200000e+00,1
16,763,5,7.711000e+01,70,2,3,0,7.300787e-01,1,1,0,2.300000e+00,1
16,764,5,2.229000e+01,4,1,1,1,2.197258e-01,1,1,0,1.300000e+00,1
16,765,5,7.038000e+01,62,2,2,1,3.489746e-01,1,1,0,2.100000e+00,1
16,766,5,9.299000e+01,27,2,2,1,3.347105e-01,1,1,0,2.300000e+00,1
16,767,5,3.034000e+01,2,1,1,1,2.481333e-01,2,1,0,1.300000e+00,1
16,768,5,1.245900e+02,61,3,3,1,4.737844e-01,3,1,0,3.200000e+00,1
16,769,5,1.232600e+02,68,3,3,1,4.591958e-01,1,1,0,3.100000e+00,1
16,770,5,7.711000e+01,70,2,2,1,2.688259e-01,2,1,0,2.300000e+00,1
16,771,5,1.011900e+02,59,3,3,1,3.667607e-01,1,1,0,3.100000e+00,1
16,772,5,8.144000e+01,66,2,2,1,2.567275e-01,1,1,0,2.100000e+00,1
16,773,5,1.232600e+02,68,3,3,1,3.461423e-01,2,1,0,3.100000e+00,1
16,774,5,1.011900e+02,59,3,3,1,3.073175e-01,2,1,0,3.100000e+00,1
16,775,5,1.087100e+02,56,3,3,1,4.291659e-01,2,1,0,3.200000e+00,1
16,776,5,9.505000e+01,13,2,2,1,3.182139e-01,1,1,0,2.300000e+00,1
16,777,5,1.325400e+02,35,3,3,1,2.963290e-01,1,1,0,3.200000e+00,1
16,778,5,9.505000e+01,13,2,2,1,3.534878e-01,2,1,0,2.300000e+00,1
16,779,5,4.631000e+01,50,1,3,0,3.629293e-01,1,1,0,1.300000e+00,1
16,780,5,1.035100e+02,19,3,3,1,9.082501e-01,2,1,0,3.200000e+00,1
16,781,5,5.820000e+01,9,2,2,1,3.261981e-01,3,1,0,2.300000e+00,1
16,782,5,1.011900e+02,59,3,3,1,3.044750e-01,3,1,0,3.100000e+00,1
16,783,5,1.527000e+01,20,1,2,0,9.693791e-01,1,1,0,1.300000e+00,1
16,784,5,3.034000e+01,2,1,1,1,4.271824e-01,3,1,0,1.300000e+00,1
16,785,5,6.315000e+01,11,2,2,1,2.850082e-01,3,1,0,2.300000e+00,1
16,786,5,1.790000e+00,21,1,1,1,4.950124e-01,2,1,0,1.200000e+00,1
16,787,5,1.401500e+02,64,3,3,1,1.592226e+00,3,1,0,3.100000e+00,1
16,788,5,9.505000e+01,13,2,2,1,2.185534e-01,3,1,0,2.300000e+00,1
16,789,5,1.176800e+02,39,3,3,1,2.920268e-01,2,1,0,3.200000e+00,1
16,790,5,1.042300e+02,41,3,3,1,2.856765e-01,3,1,0,3.100000e+00,1
16,791,5,9.397000e+01,17,2,2,1,3.277049e-01,2,1,0,2.300000e+00,1
16,792,5,7.510000e+01,48,2,2,1,3.052417e-01,2,1,0,2.300000e+00,1
16,793,5,9.860000e+00,7,1,1,1,6.906130e-01,2,1,0,1.200000e+00,1
16,794,5,1.690000e+01,23,1,1,1,2.280797e-01,1,1,0,1.200000e+00,1
16,795,5,8.831000e+01,15,2,2,1,1.549592e+00,1,1,0,2.100000e+00,1
16,796,5,8.831000e+01,15,2,2,1,2.479615e-01,2,1,0,2.100000e+00,1
16,797,5,4.830000e+01,71,1,1,1,3.695856e-01,2,1,0,1.300000e+00,1
16,798,5,4.631000e+01,50,1,1,1,2.986143e-01,2,1,0,1.300000e+00,1
16,799,5,1.087100e+02,56,3,3,1,2.761182e-01,3,1,0,3.200000e+00,1
16,800,5,9.397000e+01,17,2,2,1,3.497920e-01,3,1,0,2.300000e+00,1
16,801,5,1.527000e+01,20,1,1,1,3.352734e-01,2,1,0,1.300000e+00,1
16,802,5,4.830000e+01,71,1,1,1,3.210410e-01,3,1,0,1.300000e+00,1
16,803,5,7.038000e+01,62,2,2,1,5.065542e-01,2,1,0,2.100000e+00,1
16,804,5,1.880000e+01,63,1,1,1,3.563164e-01,2,1,0,1.200000e+00,1
16,805,5,1.335000e+02,37,3,3,1,5.095642e-01,2,1,0,3.200000e+00,1
16,806,5,8.831000e+01,15,2,2,1,2.471623e-01,3,1,0,2.100000e+00,1
16,807,5,1.880000e+01,63,1,1,1,3.125443e-01,3,1,0,1.200000e+00,1
16,808,5,1.690000e+01,23,1,1,1,2.664678e-01,2,1,0,1.200000e+00,1
16,809,5,1.382800e+02,72,3,3,1,5.801344e-01,1,1,0,3.100000e+00,1
16,810,5,1.141000e+01,51,1,1,1,2.773992e-01,2,1,0,1.300000e+00,1
16,811,5,5.343000e+01,14,2,1,0,3.114899e-01,1,1,0,2.100000e+00,1
16,812,5,4.943000e+01,12,1,3,0,2.086628e-01,1,1,0,1.300000e+00,1
16,813,5,7.038000e+01,62,2,2,1,2.183769e-01,3,1,0,2.100000e+00,1
16,814,5,1.225600e+02,10,3,3,1,2.441528e-01,3,1,0,3.200000e+00,1
16,815,5,1.262700e+02,22,3,3,1,3.019832e-01,3,1,0,3.100000e+00,1
16,816,5,4.275000e+01,38,1,1,1,4.798358e-01,2,1,0,1.200000e+00,1
16,817,5,1.035100e+02,19,3,3,1,3.133360e-01,3,1,0,3.200000e+00,1
16,818,5,8.144000e+01,66,2,2,1,4.666928e-01,2,1,0,2.100000e+00,1
16,819,5,9.299000e+01,27,2,2,1,2.523465e-01,2,1,0,2.300000e+00,1
16,820,5,7.510000e+01,48,2,2,1,3.025447e-01,3,1,0,2.300000e+00,1
16,821,5,1.382800e+02,72,3,3,1,3.041819e-01,2,1,0,3.100000e+00,1
16,822,5,6.735000e+01,6,2,2,1,2.257299e-01,3,1,0,2.100000e+00,1
16,823,5,1.011900e+02,59,3,3,1,3.154290e-01,4,1,0,3.100000e+00,1
16,824,5,5.820000e+01,9,2,2,1,2.449319e-01,4,1,0,2.300000e+00,1
16,825,5,6.136000e+01,45,2,2,1,3.821359e-01,1,1,0,2.100000e+00,1
16,826,5,4.943000e+01,12,1,1,1,2.716880e-01,2,1,0,1.300000e+00,1
16,827,5,5.232000e+01,33,2,2,1,5.293126e-01,4,1,0,2.100000e+00,1
16,828,5,9.860000e+00,7,1,1,1,3.307870e-01,3,1,0,1.200000e+00,1
16,829,5,1.186600e+02,16,3,3,1,3.483003e-01,3,1,0,3.200000e+00,1
16,830,5,1.527000e+01,20,1,1,1,3.813254e-01,3,1,0,1.300000e+00,1
16,831,5,4.390000e+00,46,1,3,0,3.268513e-01,1,1,0,1.300000e+00,1
16,832,5,9.505000e+01,13,2,2,1,2.647084e-01,4,1,0,2.300000e+00,1
16,833,5,1.232600e+02,68,3,3,1,4.902912e-01,3,1,0,3.100000e+00,1
16,834,5,4.941000e+01,1,2,1,0,6.117427e-01,3,1,0,2.100000e+00,1
16,835,5,1.141000e+01,51,1,1,1,4.610820e-01,3,1,0,1.300000e+00,1
16,836,5,4.943000e+01,12,1,1,1,2.391950e-01,3,1,0,1.300000e+00,1
16,837,5,4.943000e+01,12,1,1,1,2.882881e-01,4,1,0,1.300000e+00,1
16,838,5,1.356300e+02,44,3,3,1,3.299075e-01,1,1,0,3.200000e+00,1
16,839,5,4.275000e+01,38,1,1,1,5.152981e-01,3,1,0,1.200000e+00,1
16,840,5,1.382800e+02,72,3,3,1,2.686167e-01,3,1,0,3.100000e+00,1
16,841,5,1.065800e+02,31,3,3,1,6.543796e-01,1,1,0,3.200000e+00,1
16,842,5,1.065800e+02,31,3,3,1,2.643425e-01,2,1,0,3.200000e+00,1
16,843,5,9.860000e+00,7,1,1,1,3.057545e-01,4,1,0,1.200000e+00,1
16,844,5,2.229000e+01,4,1,1,1,2.719346e-02,2,1,0,1.300000e+00,1
16,845,5,1.262700e+02,22,3,3,1,9.647560e-01,4,1,0,3.100000e+00,1
16,846,5,9.299000e+01,27,2,2,1,2.698684e-01,3,1,0,2.300000e+00,1
16,847,5,5.343000e+01,14,2,2,1,2.075309e-01,2,1,0,2.100000e+00,1
16,848,5,4.390000e+00,46,1,1,1,3.611771e-01,2,1,0,1.300000e+00,1
16,849,5,4.390000e+00,46,1,1,1,1.862618e-01,3,1,0,1.300000e+00,1
16,850,5,9.250000e+00,18,1,1,1,4.599084e-01,2,1,0,1.300000e+00,1
16,851,5,1.076900e+02,28,3,3,1,2.379447e-01,2,1,0,3.200000e+00,1
16,852,5,1.790000e+00,21,1,1,1,6.790725e-01,3,1,0,1.200000e+00,1
16,853,5,5.343000e+01,14,2,2,1,3.848993e-01,3,1,0,2.100000e+00,1
16,854,5,1.176800e+02,39,3,3,1,2.824283e-01,3,1,0,3.200000e+00,1
16,855,5,1.325400e+02,35,3,3,1,5.640429e-01,2,1,0,3.200000e+00,1
16,856,5,6.315000e+01,11,2,2,1,2.532092e-01,4,1,0,2.300000e+00,1
16,857,5,1.356300e+02,44,3,3,1,3.268905e-01,2,1,0,3.200000e+00,1
16,858,5,1.076900e+02,28,3,3,1,1.392423e+00,3,1,0,3.200000e+00,1
16,859,5,1.527000e+01,20,1,1,1,2.904249e-01,4,1,0,1.300000e+00,1
16,860,5,1.065800e+02,31,3,3,1,2.438365e-01,3,1,0,3.200000e+00,1
16,861,5,4.091000e+01,47,1,1,1,3.659807e-01,3,1,0,1.200000e+00,1
16,862,5,2.583000e+01,43,1,1,1,3.512997e-01,3,1,0,1.200000e+00,1
16,863,5,1.335000e+02,37,3,3,1,6.647855e-01,3,1,0,3.200000e+00,1
16,864,5,1.356300e+02,44,3,3,1,3.947769e-01,3,1,0,3.200000e+00,1
16,865,5,1.441700e+02,60,3,3,1,3.158483e-01,2,1,0,3.100000e+00,1
16,866,5,8.144000e+01,66,2,2,1,2.773395e-01,3,1,0,2.100000e+00,1
16,867,5,8.831000e+01,15,2,2,1,3.032383e-01,4,1,0,2.100000e+00,1
16,868,5,3.478000e+01,58,1,1,1,6.725254e-01,2,1,0,1.200000e+00,1
16,869,5,1.035100e+02,19,3,3,1,9.378031e-01,4,1,0,3.200000e+00,1
16,870,5,1.087100e+02,56,3,3,1,2.993599e-01,4,1,0,3.200000e+00,1
16,871,5,1.285000e+01,5,1,1,1,3.967142e-01,3,1,0,1.200000e+00,1
16,872,5,1.325400e+02,35,3,3,1,2.461960e-01,3,1,0,3.200000e+00,1
16,873,5,1.690000e+01,23,1,1,1,2.476374e-01,3,1,0,1.200000e+00,1
16,874,5,1.245900e+02,61,3,3,1,3.610959e-01,4,1,0,3.200000e+00,1
16,875,5,9.250000e+00,18,1,1,1,2.988615e-01,3,1,0,1.300000e+00,1
16,876,5,9.397000e+01,17,2,2,1,2.603186e-01,4,1,0,2.300000e+00,1
16,877,5,1.356300e+02,44,3,3,1,2.863862e-01,4,1,0,3.200000e+00,1
16,878,5,1.441700e+02,60,3,3,1,2.476069e-01,3,1,0,3.100000e+00,1
16,879,5,4.631000e+01,50,1,1,1,2.173865e-01,3,1,0,1.300000e+00,1
16,880,5,6.136000e+01,45,2,2,1,3.068149e-01,2,1,0,2.100000e+00,1
16,881,5,1.382800e+02,72,3,3,1,2.771107e-01,4,1,0,3.100000e+00,1
16,882,5,1.335000e+02,37,3,3,1,2.539463e-01,4,1,0,3.200000e+00,1
16,883,5,1.076900e+02,28,3,3,1,2.794313e-01,4,1,0,3.200000e+00,1
16,884,5,4.941000e+01,1,2,1,0,5.929816e-01,4,1,0,2.100000e+00,1
16,885,5,6.735000e+01,6,2,2,1,6.190350e-01,4,1,0,2.100000e+00,1
16,886,5,1.790000e+00,21,1,1,1,3.325749e-01,4,1,0,1.200000e+00,1
16,887,5,1.225600e+02,10,3,3,1,7.584823e-01,4,1,0,3.200000e+00,1
16,888,5,8.144000e+01,66,2,2,1,2.879467e-01,4,1,0,2.100000e+00,1
16,889,5,6.136000e+01,45,2,2,1,2.417728e-01,3,1,0,2.100000e+00,1
16,890,5,1.880000e+01,63,1,1,1,2.433490e-01,4,1,0,1.200000e+00,1
16,891,5,4.091000e+01,47,1,1,1,1.260779e+00,4,1,0,1.200000e+00,1
16,892,5,1.065800e+02,31,3,3,1,3.669988e-01,4,1,0,3.200000e+00,1
16,893,5,5.343000e+01,14,2,2,1,2.727955e-01,4,1,0,2.100000e+00,1
16,894,5,3.034000e+01,2,1,1,1,2.898816e-01,4,1,0,1.300000e+00,1
16,895,5,6.136000e+01,45,2,2,1,2.913371e-01,4,1,0,2.100000e+00,1
16,896,5,1.122400e+02,53,3,3,1,1.572747e+00,3,1,0,3.100000e+00,1
16,897,5,2.229000e+01,4,1,1,1,3.109052e-01,3,1,0,1.300000e+00,1
16,898,5,3.478000e+01,58,1,1,1,2.809454e-01,3,1,0,1.200000e+00,1
16,899,5,4.390000e+00,46,1,0,0,2.500083e+00,4,1,0,1.300000e+00,1
16,900,5,4.275000e+01,38,1,0,0,2.500397e+00,4,1,0,1.200000e+00,1
16,901,5,2.229000e+01,4,1,1,1,1.350692e+00,4,1,0,1.300000e+00,1
16,902,5,1.141000e+01,51,1,1,1,3.843605e-01,4,1,0,1.300000e+00,1
16,903,5,1.401500e+02,64,3,3,1,2.976064e-01,4,1,0,3.100000e+00,1
16,904,5,3.478000e+01,58,1,1,1,3.390015e-01,4,1,0,1.200000e+00,1
16,905,5,1.042300e+02,41,3,3,1,4.528763e-01,4,1,0,3.100000e+00,1
16,906,5,5.539000e+01,65,2,3,0,3.582467e-01,4,1,0,2.100000e+00,1
16,907,5,1.186600e+02,16,3,3,1,1.431786e+00,4,1,0,3.200000e+00,1
16,908,5,7.510000e+01,48,2,2,1,3.289334e-01,4,1,0,2.300000e+00,1
16,909,5,1.232600e+02,68,3,3,1,3.786462e-01,4,1,0,3.100000e+00,1
16,910,5,1.122400e+02,53,3,3,1,1.180011e+00,4,1,0,3.100000e+00,1
16,911,5,1.441700e+02,60,3,3,1,5.893265e-01,4,1,0,3.100000e+00,1
16,912,5,1.325400e+02,35,3,3,1,2.547302e-01,4,1,0,3.200000e+00,1
16,913,5,9.299000e+01,27,2,2,1,5.281577e-01,4,1,0,2.300000e+00,1
16,914,5,9.250000e+00,18,1,1,1,1.297783e+00,4,1,0,1.300000e+00,1
16,915,5,9.702000e+01,55,2,2,1,2.672237e-01,4,1,0,2.300000e+00,1
16,916,5,4.631000e+01,50,1,1,1,3.254455e-01,4,1,0,1.300000e+00,1
16,917,5,7.038000e+01,62,2,2,1,2.624442e-01,4,1,0,2.100000e+00,1
16,918,5,1.690000e+01,23,1,1,1,2.725959e-01,4,1,0,1.200000e+00,1
16,919,5,7.711000e+01,70,2,1,0,3.616772e-01,3,1,0,2.300000e+00,1
16,920,5,4.830000e+01,71,1,1,1,4.440047e-01,4,1,0,1.300000e+00,1
16,921,5,7.711000e+01,70,2,2,1,2.131645e-01,4,1,0,2.300000e+00,1
16,922,5,2.583000e+01,43,1,1,1,2.784611e-01,4,1,0,1.200000e+00,1
16,923,5,1.285000e+01,5,1,1,1,4.560113e-01,4,1,0,1.200000e+00,1
16,924,5,1.176800e+02,39,3,3,1,3.373230e-01,4,1,0,3.200000e+00,1
16,925,6,32,33,1,1,1,1.162396e+00,NaN,2,0,1,1
16,926,6,33,30,2,2,1,9.710685e-01,NaN,2,1,1,1
16,927,6,28,72,1,1,1,7.547705e-01,NaN,2,0,1,1
16,928,6,142,36,2,2,1,1.138894e+00,NaN,2,1,3,1
16,929,6,102,55,1,1,1,6.675911e-01,NaN,2,0,3,1
16,930,6,31,15,1,1,1,1.239349e+00,NaN,2,0,1,1
16,931,6,98,29,2,2,1,1.459976e+00,NaN,2,1,3,1
16,932,6,59,61,1,1,1,1.000251e+00,NaN,2,0,2,1
16,933,6,51,19,1,2,0,8.542770e-01,NaN,2,0,2,1
16,934,6,27,22,1,1,1,8.585388e-01,NaN,2,0,1,1
16,935,6,35,6,1,1,1,7.911781e-01,NaN,2,0,1,1
16,936,6,44,66,2,2,1,1.133880e+00,NaN,2,0,1,1
16,937,6,84,42,1,1,1,8.555306e-01,NaN,2,1,2,1
16,938,6,114,67,2,2,1,9.797053e-01,NaN,2,1,3,1
16,939,6,69,28,2,2,1,7.784423e-01,NaN,2,0,2,1
16,940,6,65,54,2,1,0,6.338165e-01,NaN,2,1,2,1
16,941,6,86,7,1,1,1,7.437310e-01,NaN,2,0,2,1
16,942,6,56,10,1,1,1,8.321322e-01,NaN,2,0,2,1
16,943,6,136,24,1,1,1,1.965755e+00,NaN,2,1,3,1
16,944,6,87,57,1,1,1,7.652530e-01,NaN,2,1,2,1
16,945,6,38,62,1,1,1,7.729124e-01,NaN,2,0,1,1
16,946,6,139,46,1,1,1,1.652734e+00,NaN,2,0,3,1
16,947,6,97,17,1,1,1,8.492615e-01,NaN,2,0,3,1
16,948,6,58,31,2,2,1,8.940714e-01,NaN,2,0,2,1
16,949,6,79,21,2,2,1,9.767363e-01,NaN,2,0,2,1
16,950,6,30,49,2,2,1,9.919422e-01,NaN,2,1,1,1
16,951,6,105,13,1,2,0,1.334836e+00,NaN,2,0,3,1
16,952,6,63,44,2,2,1,8.802142e-01,NaN,2,0,2,1
16,953,6,83,43,2,2,1,8.513711e-01,NaN,2,0,2,1
16,954,6,39,65,1,1,1,2.143814e+00,NaN,2,0,1,1
16,955,6,50,37,1,1,1,8.876176e-01,NaN,2,0,2,1
16,956,6,19,59,1,1,1,2.306481e+00,NaN,2,0,1,1
16,957,6,131,50,1,1,1,7.643810e-01,NaN,2,0,3,1
16,958,6,128,3,1,1,1,2.580195e+00,NaN,2,1,3,1
16,959,6,26,68,2,2,1,9.072914e-01,NaN,2,0,1,1
16,960,6,130,71,2,2,1,1.997545e+00,NaN,2,0,3,1
16,961,6,54,35,1,1,1,8.438083e-01,NaN,2,0,2,1
16,962,6,7,8,2,2,1,9.448431e-01,NaN,2,1,1,1
16,963,6,127,20,1,1,1,8.336880e-01,NaN,2,0,3,1
16,964,6,15,64,2,2,1,1.423197e+00,NaN,2,0,1,1
16,965,6,110,48,1,1,1,1.044741e+00,NaN,2,0,3,1
16,966,6,23,41,2,2,1,8.499289e-01,NaN,2,0,1,1
16,967,6,90,23,1,2,0,7.828459e-01,NaN,2,0,2,1
16,968,6,143,12,2,2,1,1.557983e+00,NaN,2,0,3,1
16,969,6,99,27,1,1,1,1.309969e+00,NaN,2,0,3,1
16,970,6,43,14,1,1,1,1.400336e+00,NaN,2,0,1,1
16,971,6,24,53,2,2,1,1.710830e+00,NaN,2,0,1,1
16,972,6,37,26,1,1,1,9.438328e-01,NaN,2,1,1,1
16,973,6,125,18,1,1,1,1.160680e+00,NaN,2,0,3,1
16,974,6,129,4,1,0,0,3.500124e+00,NaN,2,0,3,1
16,975,6,113,34,2,2,1,1.203445e+00,NaN,2,1,3,1
16,976,6,80,63,1,1,1,6.659273e-01,NaN,2,0,2,1
16,977,6,41,1,1,1,1,8.300706e-01,NaN,2,0,1,1
16,978,6,75,38,2,2,1,6.266570e-01,NaN,2,0,2,1
16,979,6,115,11,2,1,0,1.016892e+00,NaN,2,0,3,1
16,980,6,68,39,2,2,1,5.985133e-01,NaN,2,0,2,1
16,981,6,120,9,2,2,1,1.149129e+00,NaN,2,0,3,1
16,982,6,20,32,2,2,1,8.539021e-01,NaN,2,1,1,1
16,983,6,78,58,2,2,1,7.621836e-01,NaN,2,0,2,1
16,984,6,141,51,1,1,1,9.624006e-01,NaN,2,0,3,1
16,985,6,71,56,1,1,1,7.141723e-01,NaN,2,0,2,1
16,986,6,6,25,1,1,1,6.202207e-01,NaN,2,1,1,1
16,987,6,111,70,2,2,1,9.304081e-01,NaN,2,0,3,1
16,988,6,4,40,2,2,1,8.037730e-01,NaN,2,1,1,1
16,989,6,89,52,2,2,1,8.576622e-01,NaN,2,1,2,1
16,990,6,85,5,1,1,1,6.059481e-01,NaN,2,0,2,1
16,991,6,36,45,1,2,0,5.803122e-01,NaN,2,0,1,1
16,992,6,134,2,1,1,1,1.195560e+00,NaN,2,0,3,1
16,993,6,17,60,1,2,0,1.098489e+00,NaN,2,0,1,1
16,994,6,91,47,2,2,1,9.810844e-01,NaN,2,0,2,1
16,995,6,66,16,1,1,1,8.121608e-01,NaN,2,0,2,1
16,996,6,109,69,2,2,1,9.863954e-01,NaN,2,1,3,1
16,997,6,29,2,2,2,1,9.295593e-01,NaN,1,0,1,1
16,998,6,49,1,2,2,1,7.069388e-01,NaN,1,0,2,1
16,999,6,34,58,1,1,1,1.085335e+00,NaN,1,0,1,1
16,1000,6,137,40,2,2,1,1.488053e+00,NaN,1,1,3,1
16,1001,6,135,44,1,1,1,5.869911e-01,NaN,1,0,3,1
16,1002,6,5,3,2,2,1,8.023764e-01,NaN,1,1,1,1
16,1003,6,144,60,2,2,1,9.769162e-01,NaN,1,0,3,1
16,1004,6,1,21,2,2,1,9.044924e-01,NaN,1,0,1,1
16,1005,6,123,68,1,2,0,1.331102e+00,NaN,1,0,3,1
16,1006,6,140,64,1,1,1,1.124129e+00,NaN,1,0,3,1
16,1007,6,45,50,2,1,0,1.229377e+00,NaN,1,0,1,1
16,1008,6,8,18,1,1,1,1.106561e+00,NaN,1,0,1,1
16,1009,6,60,67,1,1,1,1.244910e+00,NaN,1,1,2,1
16,1010,6,112,53,1,1,1,1.442026e+00,NaN,1,0,3,1
16,1011,6,77,49,2,2,1,8.306254e-01,NaN,1,1,2,1
16,1012,6,47,71,2,1,0,9.561998e-01,NaN,1,0,1,1
16,1013,6,22,36,2,2,1,1.732047e+00,NaN,1,1,1,1
16,1014,6,21,4,1,1,1,1.333050e+00,NaN,1,0,1,1
16,1015,6,88,15,1,1,1,9.019910e-01,NaN,1,0,2,1
16,1016,6,53,14,2,2,1,9.841968e-01,NaN,1,0,2,1
16,1017,6,62,11,2,1,0,6.715161e-01,NaN,1,0,2,1
16,1018,6,93,17,2,2,1,6.110970e-01,NaN,1,0,2,1
16,1019,6,70,62,1,1,1,7.930568e-01,NaN,1,0,2,1
16,1020,6,133,37,2,2,1,1.232029e+00,NaN,1,0,3,1
16,1021,6,72,29,1,1,1,8.528505e-01,NaN,1,1,2,1
16,1022,6,55,65,2,2,1,6.975184e-01,NaN,1,0,2,1
16,1023,6,94,13,1,1,1,7.959733e-01,NaN,1,0,2,1
16,1024,6,67,6,2,2,1,1.058448e+00,NaN,1,0,2,1
16,1025,6,81,66,2,2,1,6.785838e-01,NaN,1,0,2,1
16,1026,6,11,52,1,1,1,1.386244e+00,NaN,1,1,1,1
16,1027,6,76,70,2,2,1,7.211658e-01,NaN,1,0,2,1
16,1028,6,13,57,2,2,1,9.144174e-01,NaN,1,1,1,1
16,1029,6,119,25,2,2,1,1.172084e+00,NaN,1,1,3,1
16,1030,6,132,35,2,2,1,1.020106e+00,NaN,1,0,3,1
16,1031,6,73,26,2,1,0,8.095902e-01,NaN,1,1,2,1
16,1032,6,3,46,2,2,1,1.255689e+00,NaN,1,0,1,1
16,1033,6,100,8,1,2,0,1.332432e+00,NaN,1,1,3,1
16,1034,6,103,19,2,2,1,1.021506e+00,NaN,1,0,3,1
16,1035,6,57,9,1,1,1,6.267243e-01,NaN,1,0,2,1
16,1036,6,48,12,1,1,1,1.800525e+00,NaN,1,0,1,1
16,1037,6,46,42,1,2,0,9.827799e-01,NaN,1,1,1,1
16,1038,6,10,51,1,1,1,7.578086e-01,NaN,1,0,1,1
16,1039,6,40,47,1,0,0,3.499708e+00,NaN,1,0,1,1
16,1040,6,25,43,1,2,0,1.416012e+00,NaN,1,0,1,1
16,1041,6,61,45,1,1,1,7.816585e-01,NaN,1,0,2,1
16,1042,6,18,63,1,1,1,1.324348e+00,NaN,1,0,1,1
16,1043,6,9,7,2,2,1,8.301784e-01,NaN,1,0,1,1
16,1044,6,64,34,2,1,0,8.031334e-01,NaN,1,1,2,1
16,1045,6,74,48,2,2,1,7.132456e-01,NaN,1,0,2,1
16,1046,6,12,5,2,2,1,8.990208e-01,NaN,1,0,1,1
16,1047,6,14,20,2,2,1,1.037438e+00,NaN,1,0,1,1
16,1048,6,117,39,2,1,0,1.586588e+00,NaN,1,0,3,1
16,1049,6,104,41,1,1,1,1.114052e+00,NaN,1,0,3,1
16,1050,6,118,16,2,2,1,9.802145e-01,NaN,1,0,3,1
16,1051,6,101,59,2,2,1,1.067505e+00,NaN,1,0,3,1
16,1052,6,16,23,2,2,1,1.335420e+00,NaN,1,0,1,1
16,1053,6,96,55,2,2,1,6.323317e-01,NaN,1,0,2,1
16,1054,6,126,22,1,1,1,1.326119e+00,NaN,1,0,3,1
16,1055,6,92,27,1,1,1,7.193245e-01,NaN,1,0,2,1
16,1056,6,116,32,2,1,0,1.200822e+00,NaN,1,1,3,1
16,1057,6,122,10,1,1,1,1.159422e+00,NaN,1,0,3,1
16,1058,6,121,54,1,1,1,8.078278e-01,NaN,1,1,3,1
16,1059,6,124,61,2,2,1,9.502000e-01,NaN,1,0,3,1
16,1060,6,82,30,2,2,1,8.304286e-01,NaN,1,1,2,1
16,1061,6,42,38,1,1,1,8.435122e-01,NaN,1,0,1,1
16,1062,6,138,72,1,1,1,9.126960e-01,NaN,1,0,3,1
16,1063,6,2,24,1,2,0,6.423660e-01,NaN,1,1,1,1
16,1064,6,52,33,1,1,1,8.871702e-01,NaN,1,0,2,1
16,1065,6,106,31,1,2,0,9.062020e-01,NaN,1,0,3,1
16,1066,6,108,56,1,2,0,1.116579e+00,NaN,1,0,3,1
16,1067,6,107,28,2,2,1,8.306656e-01,NaN,1,0,3,1
16,1068,6,95,69,2,2,1,8.594090e-01,NaN,1,1,2,1
