Subject,Trial,Cond,ImageNum,CueNum,Correct,Resp,Accuracy,RT,CueRep,ImageType,Baseline,Category,Block
43,1,1,113,NaN,NaN,1,NaN,1.922118e+00,NaN,1,0,3,1
43,2,1,131,NaN,NaN,1,NaN,9.222223e-01,NaN,0,0,3,1
43,3,1,64,NaN,NaN,1,NaN,1.918804e+00,NaN,0,0,2,1
43,4,1,26,NaN,NaN,1,NaN,7.393129e-01,NaN,0,0,1,1
43,5,1,75,NaN,NaN,1,NaN,1.839167e+00,NaN,0,0,2,1
43,6,1,82,NaN,NaN,1,NaN,8.235857e-01,NaN,0,0,2,1
43,7,1,29,NaN,NaN,1,NaN,1.080188e+00,NaN,0,0,1,1
43,8,1,79,NaN,NaN,1,NaN,1.374481e+00,NaN,0,0,2,1
43,9,1,38,NaN,NaN,1,NaN,9.208082e-01,NaN,0,1,1,1
43,10,1,116,NaN,NaN,1,NaN,8.133954e-01,NaN,1,0,3,1
43,11,1,91,NaN,NaN,1,NaN,7.293977e+00,NaN,1,0,2,1
43,12,1,70,NaN,NaN,1,NaN,2.691876e+00,NaN,2,1,2,1
43,13,1,8,NaN,NaN,1,NaN,2.538472e+00,NaN,0,0,1,1
43,14,1,133,NaN,NaN,2,NaN,2.653724e+00,NaN,1,1,3,1
43,15,1,95,NaN,NaN,1,NaN,9.174562e-01,NaN,1,1,2,1
43,16,1,53,NaN,NaN,1,NaN,3.141582e-01,NaN,2,0,2,1
43,17,1,77,NaN,NaN,1,NaN,7.110014e-01,NaN,2,0,2,1
43,18,1,142,NaN,NaN,2,NaN,1.140328e+00,NaN,0,0,3,1
43,19,1,126,NaN,NaN,2,NaN,2.431799e+00,NaN,0,1,3,1
43,20,1,50,NaN,NaN,1,NaN,3.239918e+00,NaN,0,0,2,1
43,21,1,33,NaN,NaN,1,NaN,1.616432e+00,NaN,0,0,1,1
43,22,1,49,NaN,NaN,1,NaN,1.209149e+00,NaN,0,1,2,1
43,23,1,105,NaN,NaN,1,NaN,2.186361e+00,NaN,0,1,3,1
43,24,1,125,NaN,NaN,1,NaN,2.476187e+00,NaN,1,0,3,1
43,25,1,4,NaN,NaN,1,NaN,5.394009e-01,NaN,1,1,1,1
43,26,1,90,NaN,NaN,1,NaN,8.875591e-01,NaN,2,0,2,1
43,27,1,36,NaN,NaN,2,NaN,8.774199e-01,NaN,2,1,1,1
43,28,1,72,NaN,NaN,1,NaN,5.722515e-01,NaN,0,0,2,1
43,29,1,67,NaN,NaN,1,NaN,1.142544e+00,NaN,2,1,2,1
43,30,1,17,NaN,NaN,1,NaN,7.626165e-01,NaN,0,0,1,1
43,31,1,5,NaN,NaN,1,NaN,1.253535e+00,NaN,0,0,1,1
43,32,1,86,NaN,NaN,1,NaN,7.167576e-01,NaN,0,0,2,1
43,33,1,133,NaN,NaN,1,NaN,8.505187e+00,NaN,0,1,3,1
43,34,1,114,NaN,NaN,1,NaN,9.031823e-01,NaN,0,0,3,1
43,35,1,134,NaN,NaN,1,NaN,2.813071e+00,NaN,2,1,3,1
43,36,1,101,NaN,NaN,2,NaN,7.172179e-01,NaN,1,1,3,1
43,37,1,129,NaN,NaN,1,NaN,1.234245e+00,NaN,2,0,3,1
43,38,1,85,NaN,NaN,1,NaN,9.298882e-01,NaN,0,1,2,1
43,39,1,92,NaN,NaN,1,NaN,5.738890e-01,NaN,1,1,2,1
43,40,1,140,NaN,NaN,1,NaN,2.920717e+00,NaN,2,1,3,1
43,41,1,22,NaN,NaN,1,NaN,7.495104e-01,NaN,2,0,1,1
43,42,1,78,NaN,NaN,1,NaN,1.184973e+00,NaN,2,0,2,1
43,43,1,136,NaN,NaN,1,NaN,1.802969e+00,NaN,0,0,3,1
43,44,1,130,NaN,NaN,1,NaN,3.628503e+00,NaN,1,0,3,1
43,45,1,74,NaN,NaN,1,NaN,1.500252e+00,NaN,2,0,2,1
43,46,1,55,NaN,NaN,1,NaN,8.816786e-01,NaN,1,0,2,1
43,47,1,121,NaN,NaN,1,NaN,6.875907e-01,NaN,0,0,3,1
43,48,1,71,NaN,NaN,1,NaN,8.380283e-01,NaN,1,0,2,1
43,49,1,138,NaN,NaN,1,NaN,3.005672e+00,NaN,0,0,3,1
43,50,1,144,NaN,NaN,1,NaN,6.949442e-01,NaN,0,0,3,1
43,51,1,20,NaN,NaN,1,NaN,1.436778e-04,NaN,2,1,1,1
43,52,1,58,NaN,NaN,1,NaN,5.738356e-01,NaN,0,0,2,1
43,53,1,36,NaN,NaN,1,NaN,2.232506e+00,NaN,0,1,1,1
43,54,1,12,NaN,NaN,1,NaN,1.120771e+00,NaN,0,1,1,1
43,55,1,99,NaN,NaN,2,NaN,2.237137e+00,NaN,0,0,3,1
43,56,1,12,NaN,NaN,1,NaN,2.621639e+00,NaN,1,1,1,1
43,57,1,10,NaN,NaN,1,NaN,1.574153e+00,NaN,2,0,1,1
43,58,1,132,NaN,NaN,1,NaN,1.521120e+00,NaN,2,0,3,1
43,59,1,52,NaN,NaN,1,NaN,3.357384e+00,NaN,0,0,2,1
43,60,1,53,NaN,NaN,1,NaN,1.465108e+00,NaN,0,0,2,1
43,61,1,74,NaN,NaN,1,NaN,3.295736e+00,NaN,0,0,2,1
43,62,1,135,NaN,NaN,1,NaN,2.253360e+00,NaN,2,0,3,1
43,63,1,3,NaN,NaN,1,NaN,8.925106e-01,NaN,0,0,1,1
43,64,1,40,NaN,NaN,1,NaN,5.466669e-01,NaN,2,0,1,1
43,65,1,5,NaN,NaN,1,NaN,3.822261e-01,NaN,2,0,1,1
43,66,1,93,NaN,NaN,1,NaN,4.563760e-01,NaN,2,0,2,1
43,67,1,48,NaN,NaN,1,NaN,2.874643e-01,NaN,1,0,1,1
43,68,1,135,NaN,NaN,1,NaN,2.445290e+00,NaN,0,0,3,1
43,69,1,141,NaN,NaN,1,NaN,1.620751e+00,NaN,2,0,3,1
43,70,1,104,NaN,NaN,2,NaN,4.765256e+00,NaN,0,0,3,1
43,71,1,78,NaN,NaN,1,NaN,2.886834e-01,NaN,0,0,2,1
43,72,1,56,NaN,NaN,1,NaN,3.022764e-01,NaN,0,0,2,1
43,73,1,80,NaN,NaN,1,NaN,2.995541e-01,NaN,0,0,2,1
43,74,1,23,NaN,NaN,1,NaN,7.851993e-01,NaN,0,0,1,1
43,75,1,46,NaN,NaN,2,NaN,6.672371e-01,NaN,0,0,1,1
43,76,1,109,NaN,NaN,1,NaN,1.243598e-04,NaN,0,0,3,1
43,77,1,63,NaN,NaN,1,NaN,1.234543e-04,NaN,0,1,2,1
43,78,1,126,NaN,NaN,2,NaN,3.483879e-01,NaN,2,1,3,1
43,79,1,144,NaN,NaN,1,NaN,1.999207e-01,NaN,2,0,3,1
43,80,1,44,NaN,NaN,1,NaN,4.252100e-01,NaN,2,0,1,1
43,81,1,37,NaN,NaN,2,NaN,2.898896e-01,NaN,2,1,1,1
43,82,1,26,NaN,NaN,1,NaN,2.479336e-01,NaN,2,0,1,1
43,83,1,95,NaN,NaN,1,NaN,2.793030e-01,NaN,0,1,2,1
43,84,1,37,NaN,NaN,2,NaN,6.856972e-01,NaN,0,1,1,1
43,85,1,15,NaN,NaN,1,NaN,6.678314e-01,NaN,0,0,1,1
43,86,1,81,NaN,NaN,1,NaN,4.264982e-01,NaN,0,0,2,1
43,87,1,80,NaN,NaN,1,NaN,4.271240e-01,NaN,2,0,2,1
43,88,1,30,NaN,NaN,2,NaN,3.043651e+00,NaN,1,1,1,1
43,89,1,106,NaN,NaN,2,NaN,8.677844e-01,NaN,2,0,3,1
43,90,1,108,NaN,NaN,2,NaN,3.942924e-01,NaN,1,0,3,1
43,91,1,100,NaN,NaN,2,NaN,6.197651e-01,NaN,0,0,3,1
43,92,1,72,NaN,NaN,1,NaN,2.763311e-01,NaN,1,0,2,1
43,93,1,24,NaN,NaN,1,NaN,2.829955e-01,NaN,0,1,1,1
43,94,1,90,NaN,NaN,1,NaN,2.653119e-01,NaN,0,0,2,1
43,95,1,10,NaN,NaN,1,NaN,3.199632e-01,NaN,0,0,1,1
43,96,1,76,NaN,NaN,1,NaN,1.234543e-04,NaN,1,0,2,1
43,97,1,96,NaN,NaN,1,NaN,1.977819e-01,NaN,1,0,2,1
43,98,1,57,NaN,NaN,1,NaN,1.222469e-04,NaN,1,0,2,1
43,99,1,50,NaN,NaN,1,NaN,2.647137e-01,NaN,1,0,2,1
43,100,1,140,NaN,NaN,1,NaN,3.355976e-01,NaN,0,1,3,1
43,101,1,67,NaN,NaN,1,NaN,2.437373e-01,NaN,0,1,2,1
43,102,1,65,NaN,NaN,1,NaN,2.275606e-01,NaN,0,0,2,1
43,103,1,97,NaN,NaN,1,NaN,3.219833e+00,NaN,1,0,3,1
43,104,1,21,NaN,NaN,1,NaN,2.367620e-01,NaN,0,0,1,1
43,105,1,137,NaN,NaN,1,NaN,2.372694e-01,NaN,2,1,3,1
43,106,1,106,NaN,NaN,1,NaN,1.981074e+00,NaN,0,0,3,1
43,107,1,139,NaN,NaN,2,NaN,6.793217e-01,NaN,1,0,3,1
43,108,1,69,NaN,NaN,1,NaN,2.373748e-01,NaN,2,1,2,1
43,109,1,2,NaN,NaN,1,NaN,2.612784e-01,NaN,1,0,1,1
43,110,1,45,NaN,NaN,2,NaN,7.320934e-01,NaN,0,1,1,1
43,111,1,54,NaN,NaN,1,NaN,3.042393e-01,NaN,0,1,2,1
43,112,1,127,NaN,NaN,1,NaN,3.011659e-01,NaN,0,0,3,1
43,113,1,7,NaN,NaN,1,NaN,2.664816e-01,NaN,0,0,1,1
43,114,1,46,NaN,NaN,2,NaN,2.576225e-01,NaN,1,0,1,1
43,115,1,61,NaN,NaN,1,NaN,3.846657e-01,NaN,1,1,2,1
43,116,1,143,NaN,NaN,1,NaN,4.105754e-01,NaN,1,0,3,1
43,117,1,3,NaN,NaN,1,NaN,2.039386e-01,NaN,2,0,1,1
43,118,1,105,NaN,NaN,1,NaN,3.418246e-01,NaN,1,1,3,1
43,119,1,23,NaN,NaN,1,NaN,2.734907e-01,NaN,2,0,1,1
43,120,1,68,NaN,NaN,1,NaN,2.484733e-01,NaN,0,0,2,1
43,121,1,81,NaN,NaN,1,NaN,2.795188e-01,NaN,2,0,2,1
43,122,1,30,NaN,NaN,1,NaN,1.976880e-01,NaN,0,1,1,1
43,123,1,92,NaN,NaN,1,NaN,2.548549e-01,NaN,0,1,2,1
43,124,1,62,NaN,NaN,1,NaN,2.146534e-01,NaN,0,0,2,1
43,125,1,42,NaN,NaN,2,NaN,1.414872e+00,NaN,0,1,1,1
43,126,1,138,NaN,NaN,1,NaN,1.997970e-01,NaN,1,0,3,1
43,127,1,66,NaN,NaN,1,NaN,2.491346e-01,NaN,0,1,2,1
43,128,1,43,NaN,NaN,1,NaN,2.487480e-01,NaN,0,0,1,1
43,129,1,28,NaN,NaN,2,NaN,8.803073e-02,NaN,0,0,1,1
43,130,1,118,NaN,NaN,1,NaN,9.391035e-02,NaN,0,0,3,1
43,131,1,128,NaN,NaN,2,NaN,2.681994e-01,NaN,0,0,3,1
43,132,1,27,NaN,NaN,1,NaN,2.429583e-01,NaN,2,0,1,1
43,133,1,85,NaN,NaN,1,NaN,2.509771e-01,NaN,1,1,2,1
43,134,1,17,NaN,NaN,0,NaN,9.995326e+00,NaN,1,0,1,1
43,135,1,59,NaN,NaN,1,NaN,2.917327e-01,NaN,1,0,2,1
43,136,1,63,NaN,NaN,1,NaN,2.257797e-01,NaN,2,1,2,1
43,137,1,14,NaN,NaN,1,NaN,2.982480e-01,NaN,0,1,1,1
43,138,1,117,NaN,NaN,2,NaN,2.847555e+00,NaN,2,0,3,1
43,139,1,52,NaN,NaN,1,NaN,1.255672e-04,NaN,2,0,2,1
43,140,1,2,NaN,NaN,1,NaN,8.725563e-01,NaN,0,0,1,1
43,141,1,143,NaN,NaN,2,NaN,2.879151e+00,NaN,0,0,3,1
43,142,1,51,NaN,NaN,1,NaN,1.251600e-01,NaN,0,0,2,1
43,143,1,104,NaN,NaN,2,NaN,2.661607e-01,NaN,2,0,3,1
43,144,1,130,NaN,NaN,2,NaN,2.646117e-01,NaN,0,0,3,1
43,145,1,82,NaN,NaN,1,NaN,1.219450e-04,NaN,2,0,2,1
43,146,1,112,NaN,NaN,1,NaN,2.651167e-01,NaN,2,0,3,1
43,147,1,109,NaN,NaN,1,NaN,2.234084e-01,NaN,1,0,3,1
43,148,1,84,NaN,NaN,1,NaN,7.920922e-01,NaN,2,0,2,1
43,149,1,134,NaN,NaN,1,NaN,2.503818e-01,NaN,0,1,3,1
43,150,1,108,NaN,NaN,1,NaN,6.145067e+00,NaN,0,0,3,1
43,151,1,51,NaN,NaN,1,NaN,3.251957e-01,NaN,1,0,2,1
43,152,1,19,NaN,NaN,2,NaN,2.095976e-01,NaN,0,1,1,1
43,153,1,94,NaN,NaN,1,NaN,5.872496e-01,NaN,1,0,2,1
43,154,1,60,NaN,NaN,1,NaN,2.608975e-01,NaN,0,0,2,1
43,155,1,68,NaN,NaN,1,NaN,1.204358e-04,NaN,2,0,2,1
43,156,1,99,NaN,NaN,2,NaN,1.533840e+00,NaN,1,0,3,1
43,157,1,100,NaN,NaN,2,NaN,1.234543e-04,NaN,2,0,3,1
43,158,1,73,NaN,NaN,1,NaN,2.914846e-01,NaN,2,0,2,1
43,159,1,34,NaN,NaN,1,NaN,2.336485e-01,NaN,1,1,1,1
43,160,1,118,NaN,NaN,1,NaN,2.332781e-01,NaN,1,0,3,1
43,161,1,119,NaN,NaN,1,NaN,2.336053e-01,NaN,2,0,3,1
43,162,1,11,NaN,NaN,1,NaN,2.653119e-01,NaN,2,0,1,1
43,163,1,6,NaN,NaN,1,NaN,3.360537e-01,NaN,0,0,1,1
43,164,1,19,NaN,NaN,1,NaN,7.240384e-01,NaN,1,1,1,1
43,165,1,123,NaN,NaN,2,NaN,2.952581e+00,NaN,2,0,3,1
43,166,1,32,NaN,NaN,1,NaN,2.522934e-01,NaN,0,0,1,1
43,167,1,35,NaN,NaN,1,NaN,2.597290e-01,NaN,2,0,1,1
43,168,1,79,NaN,NaN,1,NaN,2.032688e-01,NaN,2,0,2,1
43,169,1,83,NaN,NaN,1,NaN,2.846381e-01,NaN,0,0,2,1
43,170,1,18,NaN,NaN,1,NaN,3.302166e-01,NaN,0,0,1,1
43,171,1,9,NaN,NaN,1,NaN,2.383657e-01,NaN,0,0,1,1
43,172,1,116,NaN,NaN,1,NaN,1.252653e-04,NaN,0,0,3,1
43,173,1,21,NaN,NaN,1,NaN,2.321296e-01,NaN,2,0,1,1
43,174,1,111,NaN,NaN,1,NaN,4.002037e-01,NaN,0,0,3,1
43,175,1,94,NaN,NaN,1,NaN,2.735638e-01,NaN,0,0,2,1
43,176,1,120,NaN,NaN,1,NaN,1.683430e-01,NaN,2,1,3,1
43,177,1,103,NaN,NaN,1,NaN,1.785182e-01,NaN,0,0,3,1
43,178,1,103,NaN,NaN,1,NaN,1.970297e-01,NaN,1,0,3,1
43,179,1,110,NaN,NaN,2,NaN,1.757853e+00,NaN,0,0,3,1
43,180,1,39,NaN,NaN,2,NaN,5.295333e-01,NaN,1,0,1,1
43,181,1,54,NaN,NaN,1,NaN,1.415169e-01,NaN,2,1,2,1
43,182,1,113,NaN,NaN,1,NaN,2.415420e-01,NaN,0,0,3,1
43,183,1,35,NaN,NaN,1,NaN,2.815180e-01,NaN,0,0,1,1
43,184,1,102,NaN,NaN,2,NaN,3.383750e+00,NaN,0,0,3,1
43,185,1,142,NaN,NaN,2,NaN,5.777970e-01,NaN,1,0,3,1
43,186,1,33,NaN,NaN,1,NaN,2.122704e-01,NaN,1,0,1,1
43,187,1,127,NaN,NaN,1,NaN,2.448928e-01,NaN,1,0,3,1
43,188,1,42,NaN,NaN,1,NaN,2.122363e-01,NaN,1,1,1,1
43,189,1,6,NaN,NaN,1,NaN,1.893097e-01,NaN,1,0,1,1
43,190,1,115,NaN,NaN,1,NaN,3.670887e-01,NaN,0,0,3,1
43,191,1,115,NaN,NaN,1,NaN,2.341327e-01,NaN,1,0,3,1
43,192,1,14,NaN,NaN,1,NaN,2.583403e-01,NaN,1,1,1,1
43,193,1,16,NaN,NaN,1,NaN,2.653092e-01,NaN,0,1,1,1
43,194,1,70,NaN,NaN,1,NaN,2.720787e-01,NaN,0,1,2,1
43,195,1,15,NaN,NaN,1,NaN,3.347690e-01,NaN,1,0,1,1
43,196,1,60,NaN,NaN,1,NaN,2.345432e-01,NaN,1,0,2,1
43,197,1,32,NaN,NaN,1,NaN,4.512006e-01,NaN,2,0,1,1
43,198,1,38,NaN,NaN,1,NaN,3.623615e-01,NaN,2,1,1,1
43,199,1,98,NaN,NaN,1,NaN,4.928460e-01,NaN,0,0,3,1
43,200,1,27,NaN,NaN,1,NaN,2.668133e-01,NaN,0,0,1,1
43,201,1,124,NaN,NaN,1,NaN,4.409252e+00,NaN,0,0,3,1
43,202,1,93,NaN,NaN,1,NaN,1.043182e+00,NaN,0,0,2,1
43,203,1,125,NaN,NaN,1,NaN,8.511969e-01,NaN,0,0,3,1
43,204,1,110,NaN,NaN,1,NaN,1.147823e-01,NaN,2,0,3,1
43,205,1,25,NaN,NaN,1,NaN,1.591362e+00,NaN,0,1,1,1
43,206,1,87,NaN,NaN,1,NaN,9.850596e-01,NaN,0,0,2,1
43,207,1,114,NaN,NaN,1,NaN,2.749912e-01,NaN,2,0,3,1
43,208,1,96,NaN,NaN,1,NaN,3.538609e-01,NaN,0,0,2,1
43,209,1,86,NaN,NaN,1,NaN,2.777211e-01,NaN,2,0,2,1
43,210,1,122,NaN,NaN,2,NaN,4.355089e-01,NaN,2,0,3,1
43,211,1,24,NaN,NaN,1,NaN,2.033008e-01,NaN,1,1,1,1
43,212,1,129,NaN,NaN,1,NaN,2.948476e+00,NaN,0,0,3,1
43,213,1,119,NaN,NaN,1,NaN,2.810308e-01,NaN,0,0,3,1
43,214,1,9,NaN,NaN,1,NaN,3.984150e-01,NaN,2,0,1,1
43,215,1,13,NaN,NaN,1,NaN,1.448852e-04,NaN,2,1,1,1
43,216,1,61,NaN,NaN,1,NaN,1.144860e+00,NaN,0,1,2,1
43,217,1,89,NaN,NaN,1,NaN,1.060270e+00,NaN,1,0,2,1
43,218,1,28,NaN,NaN,2,NaN,5.157059e-01,NaN,2,0,1,1
43,219,1,29,NaN,NaN,1,NaN,2.646231e-01,NaN,2,0,1,1
43,220,1,101,NaN,NaN,2,NaN,3.032731e-01,NaN,0,1,3,1
43,221,1,77,NaN,NaN,1,NaN,2.283967e-01,NaN,0,0,2,1
43,222,1,59,NaN,NaN,1,NaN,3.726568e-01,NaN,0,0,2,1
43,223,1,31,NaN,NaN,1,NaN,8.394274e-01,NaN,1,1,1,1
43,224,1,64,NaN,NaN,1,NaN,3.755276e-01,NaN,1,0,2,1
43,225,1,107,NaN,NaN,1,NaN,4.502697e-01,NaN,0,0,3,1
43,226,1,20,NaN,NaN,1,NaN,3.933651e-01,NaN,0,1,1,1
43,227,1,41,NaN,NaN,2,NaN,3.552443e-01,NaN,0,0,1,1
43,228,1,18,NaN,NaN,1,NaN,4.311074e-01,NaN,1,0,1,1
43,229,1,62,NaN,NaN,1,NaN,3.266907e-01,NaN,1,0,2,1
43,230,1,83,NaN,NaN,1,NaN,3.073296e-01,NaN,1,0,2,1
43,231,1,139,NaN,NaN,2,NaN,2.353046e+00,NaN,0,0,3,1
43,232,1,131,NaN,NaN,1,NaN,9.806931e-01,NaN,1,0,3,1
43,233,1,43,NaN,NaN,1,NaN,8.064409e-01,NaN,2,0,1,1
43,234,1,34,NaN,NaN,1,NaN,3.921553e-01,NaN,0,1,1,1
43,235,1,117,NaN,NaN,2,NaN,7.374858e-01,NaN,0,0,3,1
43,236,1,132,NaN,NaN,1,NaN,3.736665e-01,NaN,0,0,3,1
43,237,1,73,NaN,NaN,1,NaN,3.846104e-01,NaN,0,0,2,1
43,238,1,65,NaN,NaN,1,NaN,7.304496e-01,NaN,2,0,2,1
43,239,1,122,NaN,NaN,2,NaN,2.069009e-01,NaN,0,0,3,1
43,240,1,136,NaN,NaN,1,NaN,1.720149e+00,NaN,1,0,3,1
43,241,1,47,NaN,NaN,1,NaN,4.369553e-01,NaN,0,0,1,1
43,242,1,112,NaN,NaN,1,NaN,3.565691e-01,NaN,0,0,3,1
43,243,1,44,NaN,NaN,1,NaN,9.684220e-01,NaN,0,0,1,1
43,244,1,75,NaN,NaN,1,NaN,1.240579e-04,NaN,2,0,2,1
43,245,1,49,NaN,NaN,1,NaN,1.644266e-01,NaN,2,1,2,1
43,246,1,71,NaN,NaN,1,NaN,3.030648e-01,NaN,0,0,2,1
43,247,1,39,NaN,NaN,2,NaN,2.921568e-01,NaN,0,0,1,1
43,248,1,121,NaN,NaN,1,NaN,2.904836e-01,NaN,1,0,3,1
43,249,1,16,NaN,NaN,1,NaN,6.325660e-01,NaN,2,1,1,1
43,250,1,128,NaN,NaN,2,NaN,2.872059e+00,NaN,2,0,3,1
43,251,1,120,NaN,NaN,1,NaN,4.951482e-01,NaN,0,1,3,1
43,252,1,56,NaN,NaN,1,NaN,1.132671e+00,NaN,1,0,2,1
43,253,1,89,NaN,NaN,1,NaN,6.414324e-01,NaN,0,0,2,1
43,254,1,97,NaN,NaN,1,NaN,6.323372e-01,NaN,0,0,3,1
43,255,1,76,NaN,NaN,1,NaN,3.523544e-01,NaN,0,0,2,1
43,256,1,88,NaN,NaN,1,NaN,2.680180e-01,NaN,1,0,2,1
43,257,1,111,NaN,NaN,1,NaN,3.465992e-01,NaN,2,0,3,1
43,258,1,48,NaN,NaN,1,NaN,2.334214e+00,NaN,0,0,1,1
43,259,1,87,NaN,NaN,1,NaN,5.140300e-01,NaN,1,0,2,1
43,260,1,137,NaN,NaN,1,NaN,4.468072e-01,NaN,0,1,3,1
43,261,1,91,NaN,NaN,1,NaN,2.862086e-01,NaN,0,0,2,1
43,262,1,31,NaN,NaN,1,NaN,7.159514e-01,NaN,0,1,1,1
43,263,1,55,NaN,NaN,1,NaN,5.207131e-01,NaN,0,0,2,1
43,264,1,123,NaN,NaN,1,NaN,2.776015e-01,NaN,0,0,3,1
43,265,1,88,NaN,NaN,1,NaN,2.203157e-01,NaN,0,0,2,1
43,266,1,25,NaN,NaN,1,NaN,2.451270e-01,NaN,1,1,1,1
43,267,1,69,NaN,NaN,1,NaN,5.643375e-01,NaN,0,1,2,1
43,268,1,7,NaN,NaN,1,NaN,7.752535e-01,NaN,1,0,1,1
43,269,1,22,NaN,NaN,1,NaN,3.382233e-01,NaN,0,0,1,1
43,270,1,102,NaN,NaN,1,NaN,1.462099e+00,NaN,2,0,3,1
43,271,1,141,NaN,NaN,1,NaN,2.608818e-01,NaN,0,0,3,1
43,272,1,1,NaN,NaN,1,NaN,2.600774e-01,NaN,2,0,1,1
43,273,1,57,NaN,NaN,1,NaN,3.236735e-01,NaN,0,0,2,1
43,274,1,8,NaN,NaN,1,NaN,2.883741e-01,NaN,1,0,1,1
43,275,1,4,NaN,NaN,1,NaN,4.459956e-01,NaN,0,1,1,1
43,276,1,58,NaN,NaN,1,NaN,5.017546e-01,NaN,1,0,2,1
43,277,1,45,NaN,NaN,1,NaN,2.668423e-01,NaN,1,1,1,1
43,278,1,13,NaN,NaN,1,NaN,2.973974e-01,NaN,0,1,1,1
43,279,1,41,NaN,NaN,1,NaN,2.708813e-01,NaN,1,0,1,1
43,280,1,40,NaN,NaN,1,NaN,2.937792e-01,NaN,0,0,1,1
43,281,1,84,NaN,NaN,1,NaN,2.516508e-01,NaN,0,0,2,1
43,282,1,98,NaN,NaN,1,NaN,5.100653e-02,NaN,1,0,3,1
43,283,1,47,NaN,NaN,1,NaN,2.662443e-01,NaN,1,0,1,1
43,284,1,11,NaN,NaN,1,NaN,2.492726e-01,NaN,0,0,1,1
43,285,1,66,NaN,NaN,1,NaN,2.888000e-01,NaN,2,1,2,1
43,286,1,1,NaN,NaN,1,NaN,3.184039e-01,NaN,0,0,1,1
43,287,1,107,NaN,NaN,1,NaN,6.990460e-01,NaN,1,0,3,1
43,288,1,124,NaN,NaN,1,NaN,2.086911e-01,NaN,2,0,3,1
43,355,2,96,65,1,0,0,3.499622e+00,NaN,1,0,2,1
43,356,2,95,46,1,2,0,1.058143e+00,NaN,1,1,2,1
43,357,2,143,18,2,2,1,1.149609e+00,NaN,1,0,3,1
43,358,2,127,69,2,1,0,9.172316e-01,NaN,1,0,3,1
43,359,2,42,14,1,1,1,1.030111e+00,NaN,1,1,1,1
43,360,2,2,62,1,1,1,1.874166e+00,NaN,1,0,1,1
43,361,2,50,61,2,2,1,7.730636e-01,NaN,1,0,2,1
43,362,2,87,51,1,1,1,1.003380e+00,NaN,1,0,2,1
43,363,2,108,8,2,2,1,1.024965e+00,NaN,1,0,3,1
43,364,2,64,50,1,1,1,9.097127e-01,NaN,1,0,2,1
43,365,2,131,37,2,2,1,1.015275e+00,NaN,1,0,3,1
43,366,2,19,3,1,1,1,9.238203e-01,NaN,1,1,1,1
43,367,2,15,7,2,2,1,1.268563e+00,NaN,1,0,1,1
43,368,2,133,60,2,2,1,1.087617e+00,NaN,1,1,3,1
43,369,2,18,9,2,2,1,2.585806e+00,NaN,1,0,1,1
43,370,2,25,47,2,2,1,1.647650e+00,NaN,1,1,1,1
43,371,2,56,4,2,2,1,1.515069e+00,NaN,1,0,2,1
43,372,2,139,33,2,1,0,1.452039e+00,NaN,1,0,3,1
43,373,2,83,59,2,2,1,7.516472e-01,NaN,1,0,2,1
43,374,2,107,71,2,2,1,1.022946e+00,NaN,1,0,3,1
43,375,2,94,22,2,2,1,1.899328e+00,NaN,1,0,2,1
43,376,2,4,27,1,1,1,8.372481e-01,NaN,1,1,1,1
43,377,2,60,10,1,2,0,1.281141e+00,NaN,1,0,2,1
43,378,2,46,45,2,2,1,1.179529e+00,NaN,1,0,1,1
43,379,3,139,33,2,2,1,8.780323e-01,NaN,1,0,3,1
43,380,3,2,62,2,2,1,1.408197e+00,NaN,1,0,1,1
43,381,3,25,47,1,1,1,1.469679e+00,NaN,1,1,1,1
43,382,3,87,51,1,1,1,1.464557e+00,NaN,1,0,2,1
43,383,3,131,37,1,1,1,8.430851e-01,NaN,1,0,3,1
43,384,3,83,59,2,2,1,6.543048e-01,NaN,1,0,2,1
43,385,3,46,45,2,2,1,1.778025e+00,NaN,1,0,1,1
43,386,3,133,60,2,2,1,9.849660e-01,NaN,1,1,3,1
43,387,3,143,18,1,1,1,1.127110e+00,NaN,1,0,3,1
43,388,3,19,3,1,1,1,9.838673e-01,NaN,1,1,1,1
43,389,3,96,65,2,2,1,6.138764e-01,NaN,1,0,2,1
43,390,3,107,71,2,2,1,1.594583e+00,NaN,1,0,3,1
43,391,3,15,7,1,1,1,2.720258e+00,NaN,1,0,1,1
43,392,3,95,46,1,2,0,9.774870e-01,NaN,1,1,2,1
43,393,3,4,27,2,2,1,1.111952e+00,NaN,1,1,1,1
43,394,3,56,4,2,2,1,1.032769e+00,NaN,1,0,2,1
43,395,3,60,10,1,1,1,1.029144e+00,NaN,1,0,2,1
43,396,3,108,8,2,2,1,8.007509e-01,NaN,1,0,3,1
43,397,3,94,22,1,1,1,1.022600e+00,NaN,1,0,2,1
43,398,3,42,14,1,1,1,1.707020e+00,NaN,1,1,1,1
43,399,3,64,50,1,1,1,5.805833e-01,NaN,1,0,2,1
43,400,3,18,9,1,1,1,1.074538e+00,NaN,1,0,1,1
43,401,3,127,69,2,2,1,2.309433e+00,NaN,1,0,3,1
43,402,3,50,61,1,1,1,1.518817e+00,NaN,1,0,2,1
43,427,2,76,49,1,1,1,1.240323e+00,NaN,1,0,2,2
43,428,2,142,1,1,1,1,8.849032e-01,NaN,1,0,3,2
43,429,2,39,17,2,2,1,6.789296e-01,NaN,1,0,1,2
43,430,2,97,2,1,1,1,1.065068e+00,NaN,1,0,3,2
43,431,2,58,44,2,1,0,1.763698e+00,NaN,1,0,2,2
43,432,2,116,15,2,2,1,1.082218e+00,NaN,1,0,3,2
43,433,2,41,13,1,1,1,8.681732e-01,NaN,1,0,1,2
43,434,2,99,39,2,2,1,3.343002e+00,NaN,1,0,3,2
43,435,2,88,52,1,1,1,1.007259e+00,NaN,1,0,2,2
43,436,2,101,6,2,1,0,1.764583e+00,NaN,1,1,3,2
43,437,2,98,64,1,1,1,1.163492e+00,NaN,1,0,3,2
43,438,2,91,38,1,1,1,1.410044e+00,NaN,1,0,2,2
43,439,2,125,55,2,2,1,1.655735e+00,NaN,1,0,3,2
43,440,2,130,41,2,0,0,3.499615e+00,NaN,1,0,3,2
43,441,2,51,11,2,2,1,1.012750e+00,NaN,1,0,2,2
43,442,2,118,56,1,2,0,2.241410e+00,NaN,1,0,3,2
43,443,2,109,25,2,2,1,1.109444e+00,NaN,1,0,3,2
43,444,2,17,26,2,2,1,1.231081e+00,NaN,1,0,1,2
43,445,2,45,21,1,1,1,2.091041e+00,NaN,1,1,1,2
43,446,2,59,28,1,1,1,2.581175e+00,NaN,1,0,2,2
43,447,2,121,5,2,2,1,1.099051e+00,NaN,1,0,3,2
43,448,2,136,63,1,1,1,8.766369e-01,NaN,1,0,3,2
43,449,2,24,42,2,2,1,1.167249e+00,NaN,1,1,1,2
43,450,2,105,67,1,2,0,1.158169e+00,NaN,1,1,3,2
43,451,3,136,63,2,2,1,9.267231e-01,NaN,1,0,3,2
43,452,3,130,41,1,2,0,1.511432e+00,NaN,1,0,3,2
43,453,3,98,64,1,1,1,8.324182e-01,NaN,1,0,3,2
43,454,3,39,17,2,2,1,8.125267e-01,NaN,1,0,1,2
43,455,3,99,39,1,1,1,1.585339e+00,NaN,1,0,3,2
43,456,3,116,15,2,2,1,1.103253e+00,NaN,1,0,3,2
43,457,3,59,28,1,1,1,1.560549e+00,NaN,1,0,2,2
43,458,3,105,67,2,2,1,8.484890e-01,NaN,1,1,3,2
43,459,3,109,25,2,2,1,7.556599e-01,NaN,1,0,3,2
43,460,3,97,2,2,2,1,1.251361e+00,NaN,1,0,3,2
43,461,3,41,13,2,2,1,1.854714e+00,NaN,1,0,1,2
43,462,3,121,5,1,1,1,1.385861e+00,NaN,1,0,3,2
43,463,3,91,38,1,1,1,5.999481e-01,NaN,1,0,2,2
43,464,3,125,55,2,1,0,1.805288e+00,NaN,1,0,3,2
43,465,3,58,44,2,2,1,6.909801e-01,NaN,1,0,2,2
43,466,3,24,42,2,2,1,1.284798e+00,NaN,1,1,1,2
43,467,3,118,56,2,1,0,1.519168e+00,NaN,1,0,3,2
43,468,3,101,6,2,2,1,1.167727e+00,NaN,1,1,3,2
43,469,3,17,26,1,1,1,1.710385e+00,NaN,1,0,1,2
43,470,3,51,11,1,1,1,6.483676e-01,NaN,1,0,2,2
43,471,3,142,1,1,1,1,1.251287e+00,NaN,1,0,3,2
43,472,3,76,49,1,1,1,1.150683e+00,NaN,1,0,2,2
43,473,3,88,52,1,1,1,5.983801e-01,NaN,1,0,2,2
43,474,3,45,21,2,2,1,1.875867e+00,NaN,1,1,1,2
43,499,2,12,72,1,1,1,1.170970e+00,NaN,1,1,1,3
43,500,2,57,35,2,2,1,7.699945e-01,NaN,1,0,2,3
43,501,2,62,19,2,2,1,5.365877e-01,NaN,1,0,2,3
43,502,2,113,32,1,1,1,7.286729e-01,NaN,1,0,3,3
43,503,2,14,34,2,2,1,1.256611e+00,NaN,1,1,1,3
43,504,2,48,30,2,2,1,9.803412e-01,NaN,1,0,1,3
43,505,2,72,29,2,2,1,8.022139e-01,NaN,1,0,2,3
43,506,2,92,70,2,2,1,1.080034e+00,NaN,1,1,2,3
43,507,2,31,31,2,2,1,1.162084e+00,NaN,1,1,1,3
43,508,2,138,24,2,2,1,7.925646e-01,NaN,1,0,3,3
43,509,2,6,43,2,2,1,9.266051e-01,NaN,1,0,1,3
43,510,2,61,57,1,1,1,7.433084e-01,NaN,1,1,2,3
43,511,2,85,68,1,1,1,5.278829e-01,NaN,1,1,2,3
43,512,2,55,20,2,2,1,1.072426e+00,NaN,1,0,2,3
43,513,2,8,12,2,2,1,8.509690e-01,NaN,1,0,1,3
43,514,2,7,40,2,2,1,9.505413e-01,NaN,1,0,1,3
43,515,2,115,54,2,2,1,1.310230e+00,NaN,1,0,3,3
43,516,2,89,36,1,1,1,9.593452e-01,NaN,1,0,2,3
43,517,2,47,58,1,2,0,3.150856e+00,NaN,1,0,1,3
43,518,2,33,23,2,2,1,6.860881e-01,NaN,1,0,1,3
43,519,2,71,53,1,1,1,3.008424e+00,NaN,1,0,2,3
43,520,2,30,48,2,2,1,1.741947e+00,NaN,1,1,1,3
43,521,2,34,16,1,1,1,3.253570e+00,NaN,1,1,1,3
43,522,2,103,66,1,1,1,1.625391e+00,NaN,1,0,3,3
43,523,3,8,12,1,1,1,8.628616e-01,NaN,1,0,1,3
43,524,3,71,53,2,2,1,1.073616e+00,NaN,1,0,2,3
43,525,3,89,36,1,1,1,7.723534e-01,NaN,1,0,2,3
43,526,3,34,16,2,2,1,1.379122e+00,NaN,1,1,1,3
43,527,3,47,58,1,1,1,2.721006e+00,NaN,1,0,1,3
43,528,3,72,29,2,2,1,6.660719e-01,NaN,1,0,2,3
43,529,3,61,57,1,1,1,6.125067e-01,NaN,1,1,2,3
43,530,3,7,40,2,2,1,6.975012e-01,NaN,1,0,1,3
43,531,3,57,35,1,1,1,6.348114e-01,NaN,1,0,2,3
43,532,3,103,66,1,1,1,7.911637e-01,NaN,1,0,3,3
43,533,3,115,54,1,1,1,2.836723e+00,NaN,1,0,3,3
43,534,3,14,34,1,1,1,2.136823e+00,NaN,1,1,1,3
43,535,3,85,68,1,1,1,1.689169e+00,NaN,1,1,2,3
43,536,3,12,72,2,2,1,1.139264e+00,NaN,1,1,1,3
43,537,3,55,20,2,2,1,2.019349e+00,NaN,1,0,2,3
43,538,3,33,23,2,2,1,1.920197e+00,NaN,1,0,1,3
43,539,3,30,48,2,2,1,7.371529e-01,NaN,1,1,1,3
43,540,3,92,70,2,2,1,1.809099e+00,NaN,1,1,2,3
43,541,3,31,31,2,2,1,1.142492e+00,NaN,1,1,1,3
43,542,3,6,43,1,1,1,1.174809e+00,NaN,1,0,1,3
43,543,3,48,30,2,2,1,1.021406e+00,NaN,1,0,1,3
43,544,3,113,32,1,1,1,1.210408e+00,NaN,1,0,3,3
43,545,3,62,19,2,2,1,4.072158e-01,NaN,1,0,2,3
43,546,3,138,24,1,1,1,1.100341e+00,NaN,1,0,3,3
43,571,4,11,41,2,2,1,8.889594e-01,NaN,2,0,1,1
43,572,4,135,23,2,2,1,6.753437e-01,NaN,2,0,3,1
43,573,4,9,33,2,2,1,1.717744e+00,NaN,2,0,1,1
43,574,4,16,67,2,2,1,1.014998e+00,NaN,2,1,1,1
43,575,4,23,55,1,1,1,1.979411e+00,NaN,2,0,1,1
43,576,4,119,36,2,2,1,9.698741e-01,NaN,2,0,3,1
43,577,4,49,27,1,1,1,1.144439e+00,NaN,2,1,2,1
43,578,4,75,32,1,1,1,9.363885e-01,NaN,2,0,2,1
43,579,4,79,1,2,2,1,6.249149e-01,NaN,2,0,2,1
43,580,4,5,56,2,2,1,7.252950e-01,NaN,2,0,1,1
43,581,4,114,65,1,1,1,1.829992e+00,NaN,2,0,3,1
43,582,4,66,16,2,2,1,6.982479e-01,NaN,2,1,2,1
43,583,4,129,58,1,1,1,1.300138e+00,NaN,2,0,3,1
43,584,4,144,7,2,2,1,1.132901e+00,NaN,2,0,3,1
43,585,4,123,43,2,2,1,1.605341e+00,NaN,2,0,3,1
43,586,4,124,45,2,1,0,2.506645e+00,NaN,2,0,3,1
43,587,4,43,52,1,1,1,2.731892e+00,NaN,2,0,1,1
43,588,4,67,48,2,2,1,8.841661e-01,NaN,2,1,2,1
43,589,4,128,9,2,2,1,1.486345e+00,NaN,2,0,3,1
43,590,4,13,60,1,1,1,1.024574e+00,NaN,2,1,1,1
43,591,4,81,24,2,2,1,6.690596e-01,NaN,2,0,2,1
43,592,4,10,25,2,2,1,9.442729e-01,NaN,2,0,1,1
43,593,4,137,31,1,1,1,8.479859e-01,NaN,2,1,3,1
43,594,4,27,44,2,2,1,1.851568e+00,NaN,2,0,1,1
43,619,4,104,20,1,1,1,1.500759e+00,NaN,2,0,3,2
43,620,4,32,29,2,2,1,9.584315e-01,NaN,2,0,1,2
43,621,4,117,28,2,2,1,8.775415e-01,NaN,2,0,3,2
43,622,4,140,21,2,2,1,1.304531e+00,NaN,2,1,3,2
43,623,4,102,11,2,2,1,3.209941e+00,NaN,2,0,3,2
43,624,4,93,64,2,2,1,1.503520e+00,NaN,2,0,2,2
43,625,4,84,18,1,2,0,1.144786e+00,NaN,2,0,2,2
43,626,4,36,57,2,2,1,1.072266e+00,NaN,2,1,1,2
43,627,4,112,4,1,1,1,1.363080e+00,NaN,2,0,3,2
43,628,4,86,63,2,2,1,1.162051e+00,NaN,2,0,2,2
43,629,4,37,70,1,1,1,1.400542e+00,NaN,2,1,1,2
43,630,4,106,19,2,2,1,1.198356e+00,NaN,2,0,3,2
43,631,4,53,26,2,2,1,1.403289e+00,NaN,2,0,2,2
43,632,4,44,35,1,1,1,2.784859e+00,NaN,2,0,1,2
43,633,4,74,39,2,2,1,9.430194e-01,NaN,2,0,2,2
43,634,4,122,50,2,2,1,1.023049e+00,NaN,2,0,3,2
43,635,4,78,8,2,2,1,1.100058e+00,NaN,2,0,2,2
43,636,4,21,54,2,2,1,7.896192e-01,NaN,2,0,1,2
43,637,4,63,42,2,2,1,1.851392e+00,NaN,2,1,2,2
43,638,4,141,12,1,1,1,1.086969e+00,NaN,2,0,3,2
43,639,4,40,49,2,2,1,1.720729e+00,NaN,2,0,1,2
43,640,4,54,47,1,1,1,1.193802e+00,NaN,2,1,2,2
43,641,4,73,62,2,1,0,1.655628e+00,NaN,2,0,2,2
43,642,4,77,71,1,1,1,1.211127e+00,NaN,2,0,2,2
43,667,4,100,10,2,2,1,1.085206e+00,NaN,2,0,3,3
43,668,4,65,30,1,1,1,7.198120e-01,NaN,2,0,2,3
43,669,4,110,61,2,2,1,1.352610e+00,NaN,2,0,3,3
43,670,4,38,68,1,1,1,1.239585e+00,NaN,2,1,1,3
43,671,4,29,51,2,2,1,2.171884e+00,NaN,2,0,1,3
43,672,4,120,46,2,2,1,9.149624e-01,NaN,2,1,3,3
43,673,4,52,13,1,1,1,9.394802e-01,NaN,2,0,2,3
43,674,4,132,40,2,2,1,1.123216e+00,NaN,2,0,3,3
43,675,4,35,59,1,1,1,9.725744e-01,NaN,2,0,1,3
43,676,4,126,3,1,1,1,2.123095e+00,NaN,2,1,3,3
43,677,4,28,22,1,1,1,1.043987e+00,NaN,2,0,1,3
43,678,4,70,34,1,1,1,8.240575e-01,NaN,2,1,2,3
43,679,4,20,6,2,2,1,1.124935e+00,NaN,2,1,1,3
43,680,4,90,5,2,1,0,1.349264e+00,NaN,2,0,2,3
43,681,4,68,17,1,1,1,7.337267e-01,NaN,2,0,2,3
43,682,4,111,38,2,0,0,3.499919e+00,NaN,2,0,3,3
43,683,4,22,66,2,2,1,8.705354e-01,NaN,2,0,1,3
43,684,4,82,69,1,1,1,6.333520e-01,NaN,2,0,2,3
43,685,4,134,14,2,1,0,7.492439e-01,NaN,2,1,3,3
43,686,4,3,15,2,2,1,9.328493e-01,NaN,2,0,1,3
43,687,4,26,53,2,2,1,1.644703e+00,NaN,2,0,1,3
43,688,4,80,2,1,1,1,6.803953e-01,NaN,2,0,2,3
43,689,4,1,37,2,2,1,9.061259e-01,NaN,2,0,1,3
43,690,4,69,72,2,2,1,8.197622e-01,NaN,2,1,2,3
43,691,5,1.368600e+02,63,3,1,0,2.218460e+00,1,1,0,3.200000e+00,1
43,692,5,8.729000e+01,51,2,2,1,6.850739e-01,1,1,0,2.100000e+00,1
43,693,5,9.211000e+01,38,2,2,1,3.429106e-01,1,1,0,2.300000e+00,1
43,694,5,6.306000e+01,19,2,2,1,1.152733e+00,1,1,0,2.300000e+00,1
43,695,5,1.278200e+02,69,3,3,1,5.861430e-01,1,1,0,3.200000e+00,1
43,696,5,9.780000e+01,2,3,3,1,5.876896e-01,1,1,0,3.200000e+00,1
43,697,5,1.438400e+02,18,3,1,0,6.766959e-01,1,1,0,3.200000e+00,1
43,698,5,4.865000e+01,30,1,1,1,3.904128e-01,1,1,0,1.200000e+00,1
43,699,5,8.843000e+01,52,2,2,1,1.623664e+00,1,1,0,2.100000e+00,1
43,700,5,4.724000e+01,45,1,1,1,3.140999e-01,1,1,0,1.300000e+00,1
43,701,5,1.388100e+02,24,3,3,1,3.313331e-01,1,1,0,3.200000e+00,1
43,702,5,1.152100e+02,54,3,1,0,1.540453e+00,1,1,0,3.100000e+00,1
43,703,5,6.017000e+01,28,2,2,1,2.307149e-01,1,1,0,2.300000e+00,1
43,704,5,1.087800e+02,8,3,3,1,6.643363e-01,1,1,0,3.200000e+00,1
43,705,5,1.388100e+02,24,3,3,1,2.735538e-01,2,1,0,3.200000e+00,1
43,706,5,3.968000e+01,17,1,1,1,2.908573e-01,1,1,0,1.200000e+00,1
43,707,5,5.110000e+01,61,2,2,1,1.388568e+00,1,1,0,2.300000e+00,1
43,708,5,1.152100e+02,54,3,1,0,4.141281e-01,2,1,0,3.100000e+00,1
43,709,5,7.230000e+00,43,1,1,1,7.670928e-01,1,1,0,1.300000e+00,1
43,710,5,7.640000e+01,49,2,2,1,6.490352e-01,1,1,0,2.100000e+00,1
43,711,5,4.829000e+01,58,1,1,1,2.664089e-01,1,1,0,1.300000e+00,1
43,712,5,1.087800e+02,8,3,3,1,3.396912e-01,2,1,0,3.200000e+00,1
43,713,5,61,10,2,3,0,3.651439e-01,1,1,0,2.300000e+00,1
43,714,5,9.893000e+01,64,3,3,1,3.823795e-01,1,1,0,3.200000e+00,1
43,715,5,1.160300e+02,15,3,3,1,3.039142e-01,1,1,0,3.100000e+00,1
43,716,5,8.729000e+01,51,2,2,1,3.849832e-01,2,1,0,2.100000e+00,1
43,717,5,9.974000e+01,39,3,2,0,3.070353e-01,1,1,0,3.200000e+00,1
43,718,5,2.730000e+00,62,1,1,1,4.044138e-01,1,1,0,1.200000e+00,1
43,719,5,7.126000e+01,53,2,3,0,9.493898e-01,1,1,0,2.100000e+00,1
43,720,5,3.435000e+01,23,1,3,0,1.558609e+00,1,1,0,1.300000e+00,1
43,721,5,5.712000e+01,4,2,2,1,3.610955e-01,1,1,0,2.300000e+00,1
43,722,5,4.724000e+01,45,1,1,1,2.584704e-01,2,1,0,1.300000e+00,1
43,723,5,5.110000e+01,61,2,2,1,2.923104e-01,2,1,0,2.300000e+00,1
43,724,5,5.604000e+01,20,2,2,1,2.629041e-01,1,1,0,2.300000e+00,1
43,725,5,1.368600e+02,63,3,3,1,2.479444e-01,2,1,0,3.200000e+00,1
43,726,5,4.829000e+01,58,1,1,1,2.493320e-01,2,1,0,1.300000e+00,1
43,727,5,9.893000e+01,64,3,3,1,4.029973e-01,2,1,0,3.200000e+00,1
43,728,5,61,10,2,2,1,3.082786e-01,2,1,0,2.300000e+00,1
43,729,5,7.230000e+00,43,1,1,1,3.097437e-01,2,1,0,1.300000e+00,1
43,730,5,8.320000e+00,40,1,1,1,2.639476e-01,1,1,0,1.300000e+00,1
43,731,5,1.644000e+01,7,1,1,1,2.573152e-01,1,1,0,1.300000e+00,1
43,732,5,7.640000e+01,49,2,2,1,2.344366e-01,2,1,0,2.100000e+00,1
43,733,5,5.202000e+01,11,2,2,1,2.760842e-01,1,1,0,2.300000e+00,1
43,734,5,9.974000e+01,39,3,3,1,3.503985e-01,2,1,0,3.200000e+00,1
43,735,5,9.211000e+01,38,2,2,1,3.436290e-01,2,1,0,2.300000e+00,1
43,736,5,9.019000e+01,36,2,2,1,3.135832e-01,1,1,0,2.300000e+00,1
43,737,5,1.427900e+02,1,3,3,1,2.751361e-01,1,1,0,3.200000e+00,1
43,738,5,6.306000e+01,19,2,2,1,2.367798e-01,2,1,0,2.300000e+00,1
43,739,5,4.865000e+01,30,1,3,0,3.422019e-01,2,1,0,1.200000e+00,1
43,740,5,5.202000e+01,11,2,2,1,2.721439e-01,2,1,0,2.300000e+00,1
43,741,5,1.032200e+02,66,3,3,1,3.052468e-01,1,1,0,3.100000e+00,1
43,742,5,4.724000e+01,45,1,1,1,3.629148e-01,3,1,0,1.300000e+00,1
43,743,5,1.152100e+02,54,3,1,0,2.603158e-01,3,1,0,3.100000e+00,1
43,744,5,5.604000e+01,20,2,2,1,2.624731e-01,2,1,0,2.300000e+00,1
43,745,5,1.091000e+02,25,3,3,1,2.719480e-01,1,1,0,3.100000e+00,1
43,746,5,5.712000e+01,4,2,2,1,2.895467e-01,2,1,0,2.300000e+00,1
43,747,5,9.428000e+01,22,2,2,1,2.504072e-01,1,1,0,2.100000e+00,1
43,748,5,1.252300e+02,55,3,3,1,2.923889e-01,1,1,0,3.100000e+00,1
43,749,5,2.730000e+00,62,1,1,1,2.622887e-01,2,1,0,1.200000e+00,1
43,750,5,9.428000e+01,22,2,2,1,3.277692e-01,2,1,0,2.100000e+00,1
43,751,5,1.644000e+01,7,1,1,1,3.533747e-01,2,1,0,1.300000e+00,1
43,752,5,7.232000e+01,29,2,0,0,2.500058e+00,1,1,0,2.100000e+00,1
43,753,5,1.091000e+02,25,3,3,1,3.250025e-01,2,1,0,3.100000e+00,1
43,754,5,1.077700e+02,71,3,1,0,2.627125e-01,1,1,0,3.200000e+00,1
43,755,5,1.310100e+02,37,3,1,0,3.042296e-01,1,1,0,3.100000e+00,1
43,756,5,9.714000e+01,65,2,2,1,2.656693e-01,1,1,0,2.300000e+00,1
43,757,5,9.211000e+01,38,2,2,1,3.547873e-01,3,1,0,2.300000e+00,1
43,758,5,3.968000e+01,17,1,1,1,3.164045e-01,2,1,0,1.200000e+00,1
43,759,5,1.180500e+02,56,3,1,0,3.097277e-01,1,1,0,3.100000e+00,1
43,760,5,8.843000e+01,52,2,2,1,2.477546e-01,2,1,0,2.100000e+00,1
43,761,5,1.427900e+02,1,3,3,1,2.971782e-01,2,1,0,3.200000e+00,1
43,762,5,7.232000e+01,29,2,3,0,3.386393e-01,2,1,0,2.100000e+00,1
43,763,5,6.017000e+01,28,2,2,1,2.762737e-01,2,1,0,2.300000e+00,1
43,764,5,9.410000e+00,12,1,3,0,3.259624e-01,1,1,0,1.300000e+00,1
43,765,5,5.744000e+01,35,2,2,1,2.804286e-01,1,1,0,2.100000e+00,1
43,766,5,1.219000e+02,5,3,3,1,2.815475e-01,1,1,0,3.200000e+00,1
43,767,5,5.110000e+01,61,2,2,1,2.590752e-01,3,1,0,2.300000e+00,1
43,768,5,1.160300e+02,15,3,3,1,4.690561e-01,2,1,0,3.100000e+00,1
43,769,5,9.019000e+01,36,2,2,1,2.786882e-01,2,1,0,2.300000e+00,1
43,770,5,3.435000e+01,23,1,3,0,2.957810e-01,2,1,0,1.300000e+00,1
43,771,5,2.730000e+00,62,1,1,1,2.653575e-01,3,1,0,1.200000e+00,1
43,772,5,61,10,2,2,1,2.750401e-01,3,1,0,2.300000e+00,1
43,773,5,9.714000e+01,65,2,2,1,2.926424e-01,2,1,0,2.300000e+00,1
43,774,5,1.644000e+01,7,1,1,1,3.110640e-01,3,1,0,1.300000e+00,1
43,775,5,8.843000e+01,52,2,2,1,3.201362e-01,3,1,0,2.100000e+00,1
43,776,5,1.180500e+02,56,3,3,1,4.338777e-01,2,1,0,3.100000e+00,1
43,777,5,1.427900e+02,1,3,3,1,2.991248e-01,3,1,0,3.200000e+00,1
43,778,5,1.278200e+02,69,3,3,1,3.646902e-01,2,1,0,3.200000e+00,1
43,779,5,7.126000e+01,53,2,2,1,1.181947e+00,2,1,0,2.100000e+00,1
43,780,5,9.974000e+01,39,3,3,1,3.595027e-01,3,1,0,3.200000e+00,1
43,781,5,9.019000e+01,36,2,1,0,1.081651e+00,3,1,0,2.300000e+00,1
43,782,5,6.017000e+01,28,2,2,1,2.271398e-01,3,1,0,2.300000e+00,1
43,783,5,1.390900e+02,33,3,3,1,3.889615e-01,1,1,0,3.100000e+00,1
43,784,5,1.438400e+02,18,3,2,0,3.183650e-01,2,1,0,3.200000e+00,1
43,785,5,9.780000e+01,2,3,3,1,3.842117e-01,2,1,0,3.200000e+00,1
43,786,5,1.438400e+02,18,3,3,1,4.015496e-01,3,1,0,3.200000e+00,1
43,787,5,5.827000e+01,44,2,2,1,2.990811e-01,1,1,0,2.100000e+00,1
43,788,5,6.306000e+01,19,2,2,1,3.884152e-01,3,1,0,2.300000e+00,1
43,789,5,1.091000e+02,25,3,3,1,3.496704e-01,3,1,0,3.100000e+00,1
43,790,5,8.843000e+01,52,2,2,1,3.188754e-01,4,1,0,2.100000e+00,1
43,791,5,1.753000e+01,26,1,2,0,1.200334e+00,1,1,0,1.200000e+00,1
43,792,5,1.032200e+02,66,3,1,0,2.819251e-01,2,1,0,3.100000e+00,1
43,793,5,6.522000e+01,50,2,2,1,6.513591e-01,1,1,0,2.300000e+00,1
43,794,5,1.091000e+02,25,3,3,1,3.168452e-01,4,1,0,3.100000e+00,1
43,795,5,5.827000e+01,44,2,2,1,3.502506e-01,2,1,0,2.100000e+00,1
43,796,5,61,10,2,3,0,5.673257e-01,4,1,0,2.300000e+00,1
43,797,5,1.753000e+01,26,1,1,1,3.128615e-01,2,1,0,1.200000e+00,1
43,798,5,4.152000e+01,13,1,1,1,2.983986e-01,1,1,0,1.200000e+00,1
43,799,5,3.435000e+01,23,1,1,1,2.835482e-01,3,1,0,1.300000e+00,1
43,800,5,1.160300e+02,15,3,3,1,2.610722e-01,3,1,0,3.100000e+00,1
43,801,5,5.827000e+01,44,2,2,1,7.139248e-02,3,1,0,2.100000e+00,1
43,802,5,9.211000e+01,38,2,2,1,3.442291e-01,4,1,0,2.300000e+00,1
43,803,5,9.974000e+01,39,3,3,1,2.581785e-01,4,1,0,3.200000e+00,1
43,804,5,3.968000e+01,17,1,1,1,2.518249e-01,3,1,0,1.200000e+00,1
43,805,5,6.306000e+01,19,2,2,1,2.449363e-01,4,1,0,2.300000e+00,1
43,806,5,1.032200e+02,66,3,1,0,2.861489e-01,3,1,0,3.100000e+00,1
43,807,5,1.077700e+02,71,3,1,0,2.721249e-01,2,1,0,3.200000e+00,1
43,808,5,1.644000e+01,7,1,3,0,3.295127e-01,4,1,0,1.300000e+00,1
43,809,5,8.320000e+00,40,1,3,0,4.669822e-01,2,1,0,1.300000e+00,1
43,810,5,1.301100e+02,41,3,1,0,3.320693e-01,1,1,0,3.100000e+00,1
43,811,5,1.310100e+02,37,3,3,1,2.295416e-01,2,1,0,3.100000e+00,1
43,812,5,1.087800e+02,8,3,3,1,2.552186e-01,3,1,0,3.200000e+00,1
43,813,5,7.232000e+01,29,2,3,0,2.561721e-01,3,1,0,2.100000e+00,1
43,814,5,7.232000e+01,29,2,2,1,2.336425e-01,4,1,0,2.100000e+00,1
43,815,5,1.388100e+02,24,3,3,1,5.233066e-01,3,1,0,3.200000e+00,1
43,816,5,1.180500e+02,56,3,3,1,4.287756e-01,3,1,0,3.100000e+00,1
43,817,5,9.410000e+00,12,1,3,0,2.379794e-01,2,1,0,1.300000e+00,1
43,818,5,5.827000e+01,44,2,2,1,2.955751e-01,4,1,0,2.100000e+00,1
43,819,5,1.252300e+02,55,3,1,0,9.046043e-01,2,1,0,3.100000e+00,1
43,820,5,5.712000e+01,4,2,2,1,2.744467e-01,3,1,0,2.300000e+00,1
43,821,5,1.137500e+02,32,3,3,1,3.955728e-01,1,1,0,3.200000e+00,1
43,822,5,5.744000e+01,35,2,2,1,2.610647e-01,2,1,0,2.100000e+00,1
43,823,5,1.252300e+02,55,3,1,0,6.943176e-01,3,1,0,3.100000e+00,1
43,824,5,8.335000e+01,59,2,2,1,5.757964e-01,1,1,0,2.100000e+00,1
43,825,5,1.310100e+02,37,3,3,1,4.502084e-01,3,1,0,3.100000e+00,1
43,826,5,8.729000e+01,51,2,0,0,2.500210e+00,3,1,0,2.100000e+00,1
43,827,5,1.753000e+01,26,1,2,0,7.573279e-01,3,1,0,1.200000e+00,1
43,828,5,4.829000e+01,58,1,3,0,5.671513e-01,3,1,0,1.300000e+00,1
43,829,5,4.152000e+01,13,1,1,1,6.803745e-01,2,1,0,1.200000e+00,1
43,830,5,7.230000e+00,43,1,1,1,6.980828e-01,3,1,0,1.300000e+00,1
43,831,5,5.604000e+01,20,2,1,0,1.234594e-01,3,1,0,2.300000e+00,1
43,832,5,4.865000e+01,30,1,1,1,4.366148e-01,3,1,0,1.200000e+00,1
43,833,5,1.301100e+02,41,3,3,1,1.550274e+00,2,1,0,3.100000e+00,1
43,834,5,9.410000e+00,12,1,3,0,4.882229e-01,3,1,0,1.300000e+00,1
43,835,5,9.428000e+01,22,2,2,1,9.538441e-01,3,1,0,2.100000e+00,1
43,836,5,2.730000e+00,62,1,1,1,1.187192e+00,4,1,0,1.200000e+00,1
43,837,5,7.126000e+01,53,2,3,0,1.244421e+00,3,1,0,2.100000e+00,1
43,838,5,8.320000e+00,40,1,1,1,5.180971e-01,3,1,0,1.300000e+00,1
43,839,5,1.137500e+02,32,3,3,1,2.950958e-01,2,1,0,3.200000e+00,1
43,840,5,9.410000e+00,12,1,2,0,4.168923e-01,4,1,0,1.300000e+00,1
43,841,5,1.368600e+02,63,3,2,0,2.659763e-01,3,1,0,3.200000e+00,1
43,842,5,7.230000e+00,43,1,1,1,2.514784e-01,4,1,0,1.300000e+00,1
43,843,5,9.780000e+01,2,3,3,1,1.477111e+00,3,1,0,3.200000e+00,1
43,844,5,9.780000e+01,2,3,3,1,1.500165e-04,4,1,0,3.200000e+00,1
43,845,5,1.928000e+01,9,1,1,1,1.424704e-04,1,1,0,1.300000e+00,1
43,846,5,9.714000e+01,65,2,2,1,6.337173e-01,3,1,0,2.300000e+00,1
43,847,5,1.368600e+02,63,3,2,0,3.798183e-01,4,1,0,3.200000e+00,1
43,848,5,1.438400e+02,18,3,3,1,3.888909e-01,4,1,0,3.200000e+00,1
43,849,5,1.928000e+01,9,1,1,1,3.739580e-01,2,1,0,1.300000e+00,1
43,850,5,4.152000e+01,13,1,1,1,1.460926e-04,3,1,0,1.200000e+00,1
43,851,5,1.152100e+02,54,3,1,0,1.053204e-01,4,1,0,3.100000e+00,1
43,852,5,7.126000e+01,53,2,2,1,1.942808e-01,4,1,0,2.100000e+00,1
43,853,5,1.219000e+02,5,3,3,1,1.554497e-04,2,1,0,3.200000e+00,1
43,854,5,9.019000e+01,36,2,2,1,1.100270e-01,4,1,0,2.300000e+00,1
43,855,5,8.335000e+01,59,2,2,1,1.445833e-04,2,1,0,2.100000e+00,1
43,856,5,5.744000e+01,35,2,2,1,1.542424e-04,3,1,0,2.100000e+00,1
43,857,5,7.640000e+01,49,2,1,0,1.424704e-04,3,1,0,2.100000e+00,1
43,858,5,1.390900e+02,33,3,3,1,1.421686e-04,2,1,0,3.100000e+00,1
43,859,5,1.388100e+02,24,3,3,1,1.491110e-04,4,1,0,3.200000e+00,1
43,860,5,6.017000e+01,28,2,2,1,1.469981e-04,4,1,0,2.300000e+00,1
43,861,5,6.522000e+01,50,2,2,1,1.442815e-04,2,1,0,2.300000e+00,1
43,862,5,1.087800e+02,8,3,3,1,1.515258e-04,4,1,0,3.200000e+00,1
43,863,5,1.928000e+01,9,1,1,1,1.472999e-04,3,1,0,1.300000e+00,1
43,864,5,1.180500e+02,56,3,1,0,1.472999e-04,4,1,0,3.100000e+00,1
43,865,5,7.640000e+01,49,2,1,0,1.451870e-04,4,1,0,2.100000e+00,1
43,866,5,5.604000e+01,20,2,2,1,1.448852e-04,4,1,0,2.300000e+00,1
43,867,5,1.077700e+02,71,3,3,1,1.460926e-04,3,1,0,3.200000e+00,1
43,868,5,1.219000e+02,5,3,3,1,1.651087e-04,3,1,0,3.200000e+00,1
43,869,5,1.032200e+02,66,3,2,0,3.796647e-01,4,1,0,3.100000e+00,1
43,870,5,3.968000e+01,17,1,1,1,1.424704e-04,4,1,0,1.200000e+00,1
43,871,5,4.865000e+01,30,1,3,0,3.747205e-01,4,1,0,1.200000e+00,1
43,872,5,4.724000e+01,45,1,1,1,1.201545e-01,4,1,0,1.300000e+00,1
43,873,5,5.744000e+01,35,2,2,1,1.855530e-01,4,1,0,2.100000e+00,1
43,874,5,5.110000e+01,61,2,2,1,1.581663e-04,4,1,0,2.300000e+00,1
43,875,5,8.335000e+01,59,2,2,1,3.805859e-01,3,1,0,2.100000e+00,1
43,876,5,1.390900e+02,33,3,3,1,1.430741e-04,3,1,0,3.100000e+00,1
43,877,5,1.278200e+02,69,3,3,1,1.030577e-01,3,1,0,3.200000e+00,1
43,878,5,8.335000e+01,59,2,2,1,3.126070e-01,4,1,0,2.100000e+00,1
43,879,5,3.435000e+01,23,1,1,1,1.942787e-01,4,1,0,1.300000e+00,1
43,880,5,1.427900e+02,1,3,3,1,1.240211e-01,4,1,0,3.200000e+00,1
43,881,5,5.712000e+01,4,2,3,0,2.615304e-01,4,1,0,2.300000e+00,1
43,882,5,1.137500e+02,32,3,2,0,2.789275e-01,3,1,0,3.200000e+00,1
43,883,5,1.160300e+02,15,3,3,1,3.364877e-01,4,1,0,3.100000e+00,1
43,884,5,1.077700e+02,71,3,3,1,3.295978e-01,4,1,0,3.200000e+00,1
43,885,5,1.301100e+02,41,3,3,1,3.393066e-01,3,1,0,3.100000e+00,1
43,886,5,1.753000e+01,26,1,1,1,3.969003e-01,4,1,0,1.200000e+00,1
43,887,5,5.202000e+01,11,2,2,1,5.017954e-01,3,1,0,2.300000e+00,1
43,888,5,6.522000e+01,50,2,2,1,1.451870e-04,3,1,0,2.300000e+00,1
43,889,5,1.310100e+02,37,3,3,1,1.424704e-04,4,1,0,3.100000e+00,1
43,890,5,9.893000e+01,64,3,3,1,6.617812e-02,3,1,0,3.200000e+00,1
43,891,5,8.320000e+00,40,1,3,0,4.037615e-01,4,1,0,1.300000e+00,1
43,892,5,1.219000e+02,5,3,3,1,4.530509e-01,4,1,0,3.200000e+00,1
43,893,5,1.301100e+02,41,3,3,1,1.635995e-04,4,1,0,3.100000e+00,1
43,894,5,8.729000e+01,51,2,2,1,1.418667e-04,4,1,0,2.100000e+00,1
43,895,5,9.428000e+01,22,2,2,1,1.427723e-04,4,1,0,2.100000e+00,1
43,896,5,1.928000e+01,9,1,1,1,1.427723e-04,4,1,0,1.300000e+00,1
43,897,5,1.137500e+02,32,3,3,1,1.491110e-04,4,1,0,3.200000e+00,1
43,898,5,1.390900e+02,33,3,3,1,1.494129e-04,4,1,0,3.100000e+00,1
43,899,5,1.278200e+02,69,3,3,1,1.391502e-04,4,1,0,3.200000e+00,1
43,900,5,5.202000e+01,11,2,2,1,8.854296e-02,4,1,0,2.300000e+00,1
43,901,5,4.829000e+01,58,1,3,0,1.373391e-04,4,1,0,1.300000e+00,1
43,902,5,9.893000e+01,64,3,2,0,6.035739e-01,4,1,0,3.200000e+00,1
43,903,5,6.522000e+01,50,2,2,1,5.091329e-01,4,1,0,2.300000e+00,1
43,904,5,4.152000e+01,13,1,1,1,1.591039e-01,4,1,0,1.200000e+00,1
43,905,5,9.714000e+01,65,2,2,1,3.855537e-01,4,1,0,2.300000e+00,1
43,906,5,1.252300e+02,55,3,3,1,2.581830e-01,4,1,0,3.100000e+00,1
43,907,6,79,1,2,2,1,8.766297e-01,NaN,2,0,2,1
43,908,6,20,6,1,1,1,1.088992e+00,NaN,2,1,1,1
43,909,6,112,4,1,1,1,1.044479e+00,NaN,2,0,3,1
43,910,6,134,14,2,2,1,1.432066e+00,NaN,2,1,3,1
43,911,6,135,23,2,2,1,8.209168e-01,NaN,2,0,3,1
43,912,6,137,31,2,2,1,9.461341e-01,NaN,2,1,3,1
43,913,6,10,25,1,1,1,9.781525e-01,NaN,2,0,1,1
43,914,6,53,26,1,1,1,9.056420e-01,NaN,2,0,2,1
43,915,6,120,46,1,1,1,1.251288e+00,NaN,2,1,3,1
43,916,6,43,52,1,2,0,1.319667e+00,NaN,2,0,1,1
43,917,6,129,58,2,1,0,1.369073e+00,NaN,2,0,3,1
43,918,6,13,60,2,2,1,9.842631e-01,NaN,2,1,1,1
43,919,6,119,36,2,2,1,7.752091e-01,NaN,2,0,3,1
43,920,6,77,71,1,1,1,9.188178e-01,NaN,2,0,2,1
43,921,6,81,24,1,1,1,8.559986e-01,NaN,2,0,2,1
43,922,6,22,66,1,1,1,8.757935e-01,NaN,2,0,1,1
43,923,6,27,44,2,1,0,9.428998e-01,NaN,2,0,1,1
43,924,6,37,70,2,2,1,1.375908e+00,NaN,2,1,1,1
43,925,6,5,56,2,2,1,8.474178e-01,NaN,2,0,1,1
43,926,6,110,61,1,1,1,1.018926e+00,NaN,2,0,3,1
43,927,6,40,49,1,1,1,1.008335e+00,NaN,2,0,1,1
43,928,6,28,22,2,2,1,7.904302e-01,NaN,2,0,1,1
43,929,6,141,12,1,1,1,8.933292e-01,NaN,2,0,3,1
43,930,6,86,63,1,1,1,8.003150e-01,NaN,2,0,2,1
43,931,6,38,68,1,1,1,1.038690e+00,NaN,2,1,1,1
43,932,6,32,29,2,2,1,1.051020e+00,NaN,2,0,1,1
43,933,6,100,10,2,2,1,1.014636e+00,NaN,2,0,3,1
43,934,6,93,64,1,1,1,8.682061e-01,NaN,2,0,2,1
43,935,6,9,33,1,1,1,1.671644e+00,NaN,2,0,1,1
43,936,6,67,48,1,1,1,1.154983e+00,NaN,2,1,2,1
43,937,6,122,50,2,2,1,1.010905e+00,NaN,2,0,3,1
43,938,6,78,8,2,2,1,8.411216e-01,NaN,2,0,2,1
43,939,6,144,7,1,2,0,1.693408e+00,NaN,2,0,3,1
43,940,6,3,15,2,2,1,1.336497e+00,NaN,2,0,1,1
43,941,6,52,13,2,2,1,1.233194e+00,NaN,2,0,2,1
43,942,6,70,34,1,1,1,7.980159e-01,NaN,2,1,2,1
43,943,6,106,19,1,1,1,9.878810e-01,NaN,2,0,3,1
43,944,6,66,16,2,2,1,6.905020e-01,NaN,2,1,2,1
43,945,6,140,21,1,1,1,1.213265e+00,NaN,2,1,3,1
43,946,6,74,39,1,1,1,8.344107e-01,NaN,2,0,2,1
43,947,6,69,72,2,2,1,8.951043e-01,NaN,2,1,2,1
43,948,6,128,9,1,1,1,1.513987e+00,NaN,2,0,3,1
43,949,6,82,69,2,2,1,1.251303e+00,NaN,2,0,2,1
43,950,6,123,43,2,2,1,1.751482e+00,NaN,2,0,3,1
43,951,6,23,55,1,1,1,2.159226e+00,NaN,2,0,1,1
43,952,6,11,41,2,2,1,1.367216e+00,NaN,2,0,1,1
43,953,6,44,35,2,2,1,1.550516e+00,NaN,2,0,1,1
43,954,6,126,3,2,2,1,2.526535e+00,NaN,2,1,3,1
43,955,6,124,45,1,2,0,2.799786e+00,NaN,2,0,3,1
43,956,6,21,54,2,2,1,8.065931e-01,NaN,2,0,1,1
43,957,6,75,32,1,1,1,8.201118e-01,NaN,2,0,2,1
43,958,6,114,65,1,1,1,2.409695e+00,NaN,2,0,3,1
43,959,6,26,53,1,1,1,1.463510e+00,NaN,2,0,1,1
43,960,6,90,5,2,2,1,1.427089e+00,NaN,2,0,2,1
43,961,6,36,57,1,1,1,1.320181e+00,NaN,2,1,1,1
43,962,6,68,17,2,2,1,9.215755e-01,NaN,2,0,2,1
43,963,6,80,2,1,1,1,8.269570e-01,NaN,2,0,2,1
43,964,6,35,59,2,2,1,1.296273e+00,NaN,2,0,1,1
43,965,6,16,67,1,1,1,9.703010e-01,NaN,2,1,1,1
43,966,6,54,47,2,2,1,9.778790e-01,NaN,2,1,2,1
43,967,6,1,37,1,1,1,1.001094e+00,NaN,2,0,1,1
43,968,6,29,51,1,1,1,1.815086e+00,NaN,2,0,1,1
43,969,6,65,30,1,1,1,1.060650e+00,NaN,2,0,2,1
43,970,6,111,38,1,1,1,1.360413e+00,NaN,2,0,3,1
43,971,6,104,20,1,1,1,1.048842e+00,NaN,2,0,3,1
43,972,6,63,42,1,1,1,1.260631e+00,NaN,2,1,2,1
43,973,6,117,28,2,2,1,1.496534e+00,NaN,2,0,3,1
43,974,6,49,27,2,2,1,8.105424e-01,NaN,2,1,2,1
43,975,6,84,18,1,2,0,8.968662e-01,NaN,2,0,2,1
43,976,6,132,40,1,1,1,2.178688e+00,NaN,2,0,3,1
43,977,6,102,11,2,2,1,8.733519e-01,NaN,2,0,3,1
43,978,6,73,62,1,1,1,1.476575e+00,NaN,2,0,2,1
43,979,6,55,20,1,1,1,1.248291e+00,NaN,1,0,2,1
43,980,6,88,52,1,1,1,8.683718e-01,NaN,1,0,2,1
43,981,6,61,57,1,1,1,6.636853e-01,NaN,1,1,2,1
43,982,6,113,32,1,1,1,1.282885e+00,NaN,1,0,3,1
43,983,6,14,34,1,1,1,1.477534e+00,NaN,1,1,1,1
43,984,6,12,72,1,1,1,3.424982e+00,NaN,1,1,1,1
43,985,6,97,2,1,1,1,1.126316e+00,NaN,1,0,3,1
43,986,6,58,44,1,1,1,1.400083e+00,NaN,1,0,2,1
43,987,6,59,28,2,2,1,1.982050e+00,NaN,1,0,2,1
43,988,6,142,1,1,1,1,1.196695e+00,NaN,1,0,3,1
43,989,6,34,16,1,1,1,1.530769e+00,NaN,1,1,1,1
43,990,6,62,19,1,2,0,6.671685e-01,NaN,1,0,2,1
43,991,6,95,46,2,1,0,1.646608e+00,NaN,1,1,2,1
43,992,6,131,37,2,2,1,1.250759e+00,NaN,1,0,3,1
43,993,6,46,45,2,0,0,3.499792e+00,NaN,1,0,1,1
43,994,6,60,10,1,1,1,8.329854e-01,NaN,1,0,2,1
43,995,6,105,67,1,2,0,1.053632e+00,NaN,1,1,3,1
43,996,6,89,36,1,1,1,8.414890e-01,NaN,1,0,2,1
43,997,6,143,18,1,1,1,1.518428e+00,NaN,1,0,3,1
43,998,6,42,14,1,1,1,1.416137e+00,NaN,1,1,1,1
43,999,6,30,48,2,2,1,7.969232e-01,NaN,1,1,1,1
43,1000,6,25,47,1,1,1,1.994862e+00,NaN,1,1,1,1
43,1001,6,7,40,1,1,1,1.097433e+00,NaN,1,0,1,1
43,1002,6,136,63,1,1,1,1.235847e+00,NaN,1,0,3,1
43,1003,6,138,24,1,1,1,1.232604e+00,NaN,1,0,3,1
43,1004,6,2,62,1,2,0,1.261224e+00,NaN,1,0,1,1
43,1005,6,109,25,2,2,1,1.152211e+00,NaN,1,0,3,1
43,1006,6,8,12,1,1,1,1.144280e+00,NaN,1,0,1,1
43,1007,6,19,3,2,2,1,1.769407e+00,NaN,1,1,1,1
43,1008,6,108,8,2,2,1,1.048281e+00,NaN,1,0,3,1
43,1009,6,18,9,1,1,1,1.364754e+00,NaN,1,0,1,1
43,1010,6,41,13,1,1,1,1.395759e+00,NaN,1,0,1,1
43,1011,6,116,15,2,2,1,9.940316e-01,NaN,1,0,3,1
43,1012,6,57,35,1,1,1,9.045901e-01,NaN,1,0,2,1
43,1013,6,115,54,2,2,1,1.418874e+00,NaN,1,0,3,1
43,1014,6,39,17,2,2,1,1.119788e+00,NaN,1,0,1,1
43,1015,6,71,53,1,1,1,7.855352e-01,NaN,1,0,2,1
43,1016,6,130,41,1,2,0,1.319980e+00,NaN,1,0,3,1
43,1017,6,83,59,2,2,1,8.255012e-01,NaN,1,0,2,1
43,1018,6,47,58,2,1,0,1.342509e+00,NaN,1,0,1,1
43,1019,6,101,6,1,1,1,1.567350e+00,NaN,1,1,3,1
43,1020,6,99,39,1,1,1,1.686894e+00,NaN,1,0,3,1
43,1021,6,139,33,2,2,1,1.009392e+00,NaN,1,0,3,1
43,1022,6,96,65,2,2,1,1.079512e+00,NaN,1,0,2,1
43,1023,6,103,66,2,2,1,1.298217e+00,NaN,1,0,3,1
43,1024,6,45,21,2,2,1,1.444463e+00,NaN,1,1,1,1
43,1025,6,127,69,1,2,0,1.400785e+00,NaN,1,0,3,1
43,1026,6,15,7,2,2,1,1.127194e+00,NaN,1,0,1,1
43,1027,6,72,29,1,1,1,8.886654e-01,NaN,1,0,2,1
43,1028,6,76,49,1,1,1,8.430320e-01,NaN,1,0,2,1
43,1029,6,24,42,1,1,1,1.271757e+00,NaN,1,1,1,1
43,1030,6,31,31,1,1,1,1.027070e+00,NaN,1,1,1,1
43,1031,6,92,70,1,1,1,6.494479e-01,NaN,1,1,2,1
43,1032,6,98,64,1,2,0,1.644709e+00,NaN,1,0,3,1
43,1033,6,4,27,2,2,1,1.153083e+00,NaN,1,1,1,1
43,1034,6,87,51,1,1,1,1.001471e+00,NaN,1,0,2,1
43,1035,6,64,50,2,2,1,7.035302e-01,NaN,1,0,2,1
43,1036,6,121,5,2,1,0,1.136981e+00,NaN,1,0,3,1
43,1037,6,118,56,2,2,1,1.417756e+00,NaN,1,0,3,1
43,1038,6,51,11,2,2,1,1.007514e+00,NaN,1,0,2,1
43,1039,6,125,55,2,2,1,1.029328e+00,NaN,1,0,3,1
43,1040,6,91,38,1,1,1,1.290125e+00,NaN,1,0,2,1
43,1041,6,50,61,2,2,1,1.044556e+00,NaN,1,0,2,1
43,1042,6,133,60,2,2,1,1.057270e+00,NaN,1,1,3,1
43,1043,6,107,71,2,2,1,9.416979e-01,NaN,1,0,3,1
43,1044,6,94,22,1,1,1,9.659894e-01,NaN,1,0,2,1
43,1045,6,6,43,1,1,1,1.453612e+00,NaN,1,0,1,1
43,1046,6,48,30,1,1,1,1.401335e+00,NaN,1,0,1,1
43,1047,6,17,26,2,1,0,1.519628e+00,NaN,1,0,1,1
43,1048,6,33,23,2,2,1,7.607885e-01,NaN,1,0,1,1
43,1049,6,85,68,1,1,1,7.771177e-01,NaN,1,1,2,1
43,1050,6,56,4,2,2,1,8.082629e-01,NaN,1,0,2,1
