Subject,Trial,Cond,ImageNum,CueNum,Correct,Resp,Accuracy,RT,CueRep,ImageType,Baseline,Category,Block
11,1,1,55,NaN,NaN,1,NaN,3.379232e+00,NaN,0,0,2,1
11,2,1,2,NaN,NaN,2,NaN,8.204473e-02,NaN,0,0,1,1
11,3,1,134,NaN,NaN,2,NaN,9.678145e-01,NaN,2,0,3,1
11,4,1,88,NaN,NaN,1,NaN,1.546516e+00,NaN,1,0,2,1
11,5,1,3,NaN,NaN,1,NaN,5.417901e-01,NaN,2,0,1,1
11,6,1,87,NaN,NaN,1,NaN,1.426222e-03,NaN,2,0,2,1
11,7,1,39,NaN,NaN,2,NaN,1.242034e+00,NaN,1,1,1,1
11,8,1,58,NaN,NaN,1,NaN,5.459022e-01,NaN,1,1,2,1
11,9,1,140,NaN,NaN,1,NaN,5.487754e-01,NaN,0,0,3,1
11,10,1,124,NaN,NaN,1,NaN,4.158688e-01,NaN,1,0,3,1
11,11,1,65,NaN,NaN,1,NaN,4.245342e-01,NaN,1,1,2,1
11,12,1,57,NaN,NaN,1,NaN,4.974139e-01,NaN,2,0,2,1
11,13,1,93,NaN,NaN,1,NaN,8.630139e-01,NaN,0,0,2,1
11,14,1,1,NaN,NaN,1,NaN,5.488141e-01,NaN,0,1,1,1
11,15,1,1,NaN,NaN,1,NaN,6.885983e-01,NaN,1,1,1,1
11,16,1,71,NaN,NaN,1,NaN,3.762147e-02,NaN,1,0,2,1
11,17,1,36,NaN,NaN,2,NaN,4.535814e-01,NaN,0,1,1,1
11,18,1,44,NaN,NaN,1,NaN,3.403336e-01,NaN,0,1,1,1
11,19,1,72,NaN,NaN,1,NaN,7.836097e-01,NaN,1,0,2,1
11,20,1,120,NaN,NaN,1,NaN,6.980684e-01,NaN,2,1,3,1
11,21,1,115,NaN,NaN,2,NaN,4.547827e-01,NaN,0,0,3,1
11,22,1,135,NaN,NaN,1,NaN,4.938075e-01,NaN,0,0,3,1
11,23,1,96,NaN,NaN,1,NaN,6.191789e-01,NaN,1,0,2,1
11,24,1,35,NaN,NaN,2,NaN,5.721416e-01,NaN,1,0,1,1
11,25,1,101,NaN,NaN,2,NaN,8.225976e-01,NaN,2,1,3,1
11,26,1,29,NaN,NaN,1,NaN,7.911287e-01,NaN,0,0,1,1
11,27,1,95,NaN,NaN,1,NaN,7.999821e-01,NaN,0,0,2,1
11,28,1,38,NaN,NaN,1,NaN,3.933622e-01,NaN,0,0,1,1
11,29,1,25,NaN,NaN,1,NaN,2.431637e-01,NaN,0,1,1,1
11,30,1,99,NaN,NaN,2,NaN,9.227579e-01,NaN,0,1,3,1
11,31,1,112,NaN,NaN,1,NaN,2.555838e-01,NaN,1,1,3,1
11,32,1,97,NaN,NaN,2,NaN,1.031030e+00,NaN,0,0,3,1
11,33,1,66,NaN,NaN,1,NaN,5.830304e-01,NaN,0,1,2,1
11,34,1,111,NaN,NaN,1,NaN,6.569887e-01,NaN,0,0,3,1
11,35,1,53,NaN,NaN,1,NaN,2.878698e-01,NaN,0,1,2,1
11,36,1,106,NaN,NaN,1,NaN,6.770469e-01,NaN,0,0,3,1
11,37,1,94,NaN,NaN,1,NaN,6.592972e-01,NaN,0,0,2,1
11,38,1,128,NaN,NaN,2,NaN,6.506400e-01,NaN,1,0,3,1
11,39,1,56,NaN,NaN,1,NaN,7.060154e-01,NaN,2,0,2,1
11,40,1,88,NaN,NaN,1,NaN,6.712020e-01,NaN,0,0,2,1
11,41,1,111,NaN,NaN,1,NaN,5.502306e-01,NaN,1,0,3,1
11,42,1,62,NaN,NaN,1,NaN,5.938253e-01,NaN,1,0,2,1
11,43,1,26,NaN,NaN,1,NaN,5.469339e-01,NaN,1,0,1,1
11,44,1,104,NaN,NaN,2,NaN,2.941853e-01,NaN,1,1,3,1
11,45,1,68,NaN,NaN,1,NaN,5.243769e-01,NaN,2,1,2,1
11,46,1,22,NaN,NaN,1,NaN,6.243712e-01,NaN,0,0,1,1
11,47,1,86,NaN,NaN,1,NaN,7.364412e-01,NaN,0,0,2,1
11,48,1,97,NaN,NaN,1,NaN,3.318500e-01,NaN,2,0,3,1
11,49,1,33,NaN,NaN,1,NaN,2.792690e-01,NaN,0,0,1,1
11,50,1,123,NaN,NaN,1,NaN,2.932704e-01,NaN,1,0,3,1
11,51,1,51,NaN,NaN,1,NaN,2.754446e-01,NaN,2,0,2,1
11,52,1,102,NaN,NaN,1,NaN,3.536979e-01,NaN,2,0,3,1
11,53,1,49,NaN,NaN,1,NaN,2.533392e-01,NaN,2,0,2,1
11,54,1,8,NaN,NaN,1,NaN,2.929758e-01,NaN,0,0,1,1
11,55,1,77,NaN,NaN,1,NaN,2.505731e-01,NaN,2,0,2,1
11,56,1,120,NaN,NaN,1,NaN,4.022552e-01,NaN,0,1,3,1
11,57,1,141,NaN,NaN,1,NaN,2.352379e-01,NaN,0,0,3,1
11,58,1,142,NaN,NaN,1,NaN,3.151727e-01,NaN,1,0,3,1
11,59,1,90,NaN,NaN,1,NaN,2.160453e-01,NaN,2,0,2,1
11,60,1,114,NaN,NaN,1,NaN,3.768168e-01,NaN,1,0,3,1
11,61,1,60,NaN,NaN,1,NaN,3.877253e-01,NaN,0,1,2,1
11,62,1,7,NaN,NaN,1,NaN,3.018715e-01,NaN,0,0,1,1
11,63,1,135,NaN,NaN,1,NaN,1.282845e-04,NaN,1,0,3,1
11,64,1,48,NaN,NaN,1,NaN,3.161679e-01,NaN,0,0,1,1
11,65,1,91,NaN,NaN,1,NaN,2.731723e-01,NaN,1,0,2,1
11,66,1,37,NaN,NaN,1,NaN,3.516716e-01,NaN,1,0,1,1
11,67,1,22,NaN,NaN,1,NaN,3.232640e-01,NaN,1,0,1,1
11,68,1,47,NaN,NaN,1,NaN,4.080555e-01,NaN,1,1,1,1
11,69,1,81,NaN,NaN,1,NaN,2.250421e-01,NaN,2,0,2,1
11,70,1,50,NaN,NaN,1,NaN,4.177194e-01,NaN,0,0,2,1
11,71,1,131,NaN,NaN,1,NaN,1.034587e+00,NaN,2,1,3,1
11,72,1,125,NaN,NaN,1,NaN,5.067494e-01,NaN,2,0,3,1
11,73,1,19,NaN,NaN,2,NaN,4.082831e-01,NaN,0,0,1,1
11,74,1,56,NaN,NaN,1,NaN,3.133927e-01,NaN,0,0,2,1
11,75,1,105,NaN,NaN,1,NaN,8.541514e-01,NaN,0,0,3,1
11,76,1,138,NaN,NaN,1,NaN,2.773022e-01,NaN,0,0,3,1
11,77,1,127,NaN,NaN,1,NaN,1.562451e-01,NaN,0,1,3,1
11,78,1,117,NaN,NaN,2,NaN,8.314390e-01,NaN,1,0,3,1
11,79,1,36,NaN,NaN,2,NaN,5.353931e-01,NaN,2,1,1,1
11,80,1,19,NaN,NaN,2,NaN,4.596717e-01,NaN,2,0,1,1
11,81,1,109,NaN,NaN,1,NaN,2.668097e-01,NaN,0,0,3,1
11,82,1,21,NaN,NaN,2,NaN,4.415694e-01,NaN,1,0,1,1
11,83,1,10,NaN,NaN,2,NaN,3.214930e-01,NaN,1,0,1,1
11,84,1,83,NaN,NaN,1,NaN,2.624803e-01,NaN,0,0,2,1
11,85,1,30,NaN,NaN,2,NaN,6.689964e-01,NaN,2,1,1,1
11,86,1,9,NaN,NaN,1,NaN,2.197031e-01,NaN,1,0,1,1
11,87,1,103,NaN,NaN,1,NaN,3.407212e-01,NaN,0,0,3,1
11,88,1,35,NaN,NaN,2,NaN,5.685856e-01,NaN,0,0,1,1
11,89,1,63,NaN,NaN,1,NaN,2.912982e-01,NaN,0,0,2,1
11,90,1,52,NaN,NaN,1,NaN,3.295161e-01,NaN,0,0,2,1
11,91,1,94,NaN,NaN,1,NaN,2.693003e-01,NaN,2,0,2,1
11,92,1,112,NaN,NaN,1,NaN,2.200574e-01,NaN,0,1,3,1
11,93,1,118,NaN,NaN,1,NaN,7.677752e-02,NaN,1,0,3,1
11,94,1,7,NaN,NaN,1,NaN,2.271276e-01,NaN,2,0,1,1
11,95,1,93,NaN,NaN,1,NaN,1.963495e-01,NaN,1,0,2,1
11,96,1,42,NaN,NaN,1,NaN,3.253826e-01,NaN,1,1,1,1
11,97,1,29,NaN,NaN,1,NaN,3.141262e-01,NaN,2,0,1,1
11,98,1,49,NaN,NaN,1,NaN,2.790776e-01,NaN,0,0,2,1
11,99,1,126,NaN,NaN,2,NaN,5.811882e-01,NaN,2,0,3,1
11,100,1,80,NaN,NaN,1,NaN,2.551437e-01,NaN,0,0,2,1
11,101,1,5,NaN,NaN,1,NaN,2.221154e-01,NaN,0,0,1,1
11,102,1,5,NaN,NaN,1,NaN,3.351368e-01,NaN,1,0,1,1
11,103,1,8,NaN,NaN,2,NaN,6.434120e-01,NaN,2,0,1,1
11,104,1,127,NaN,NaN,1,NaN,1.472576e-01,NaN,2,1,3,1
11,105,1,61,NaN,NaN,1,NaN,2.226898e-01,NaN,2,0,2,1
11,106,1,85,NaN,NaN,1,NaN,3.272097e-01,NaN,2,0,2,1
11,107,1,140,NaN,NaN,1,NaN,2.602403e-01,NaN,2,0,3,1
11,108,1,64,NaN,NaN,1,NaN,4.513547e-01,NaN,0,0,2,1
11,109,1,15,NaN,NaN,1,NaN,6.826661e-01,NaN,2,1,1,1
11,110,1,100,NaN,NaN,2,NaN,4.249383e-01,NaN,1,0,3,1
11,111,1,104,NaN,NaN,2,NaN,5.136439e-01,NaN,0,1,3,1
11,112,1,91,NaN,NaN,1,NaN,3.183270e-01,NaN,0,0,2,1
11,113,1,92,NaN,NaN,1,NaN,2.348868e-01,NaN,0,0,2,1
11,114,1,52,NaN,NaN,1,NaN,2.830527e-01,NaN,1,0,2,1
11,115,1,95,NaN,NaN,1,NaN,3.851345e-01,NaN,2,0,2,1
11,116,1,133,NaN,NaN,2,NaN,3.628085e-01,NaN,0,0,3,1
11,117,1,125,NaN,NaN,1,NaN,3.256340e-01,NaN,0,0,3,1
11,118,1,110,NaN,NaN,1,NaN,5.622332e-01,NaN,0,0,3,1
11,119,1,92,NaN,NaN,1,NaN,4.289508e-01,NaN,1,0,2,1
11,120,1,48,NaN,NaN,1,NaN,4.288536e-01,NaN,2,0,1,1
11,121,1,68,NaN,NaN,1,NaN,4.931975e-01,NaN,0,1,2,1
11,122,1,118,NaN,NaN,1,NaN,2.911023e-01,NaN,0,0,3,1
11,123,1,86,NaN,NaN,1,NaN,2.971636e-01,NaN,2,0,2,1
11,124,1,79,NaN,NaN,1,NaN,3.586958e-01,NaN,0,1,2,1
11,125,1,51,NaN,NaN,1,NaN,2.818939e-01,NaN,0,0,2,1
11,126,1,13,NaN,NaN,2,NaN,5.522349e-01,NaN,2,0,1,1
11,127,1,63,NaN,NaN,1,NaN,3.394918e-01,NaN,1,0,2,1
11,128,1,57,NaN,NaN,1,NaN,3.035042e-01,NaN,0,0,2,1
11,129,1,4,NaN,NaN,1,NaN,2.205678e-01,NaN,2,0,1,1
11,130,1,34,NaN,NaN,1,NaN,2.295284e-01,NaN,0,0,1,1
11,131,1,12,NaN,NaN,1,NaN,2.774018e-01,NaN,1,0,1,1
11,132,1,129,NaN,NaN,2,NaN,4.763237e-01,NaN,0,0,3,1
11,133,1,45,NaN,NaN,1,NaN,4.271614e-01,NaN,0,0,1,1
11,134,1,27,NaN,NaN,1,NaN,2.675483e-01,NaN,1,0,1,1
11,135,1,136,NaN,NaN,1,NaN,3.061034e-01,NaN,1,0,3,1
11,136,1,82,NaN,NaN,1,NaN,3.276172e-01,NaN,1,0,2,1
11,137,1,90,NaN,NaN,1,NaN,3.086281e-01,NaN,0,0,2,1
11,138,1,13,NaN,NaN,1,NaN,4.659544e-01,NaN,0,0,1,1
11,139,1,42,NaN,NaN,1,NaN,2.964863e-01,NaN,0,1,1,1
11,140,1,78,NaN,NaN,1,NaN,3.020970e-01,NaN,0,1,2,1
11,141,1,85,NaN,NaN,1,NaN,2.832920e-01,NaN,0,0,2,1
11,142,1,44,NaN,NaN,1,NaN,3.531458e-01,NaN,2,1,1,1
11,143,1,73,NaN,NaN,1,NaN,3.491131e-01,NaN,2,0,2,1
11,144,1,110,NaN,NaN,1,NaN,2.961268e-01,NaN,2,0,3,1
11,145,1,89,NaN,NaN,1,NaN,3.815869e-01,NaN,1,0,2,1
11,146,1,130,NaN,NaN,2,NaN,4.393171e-01,NaN,0,0,3,1
11,147,1,133,NaN,NaN,1,NaN,2.714301e-01,NaN,1,0,3,1
11,148,1,69,NaN,NaN,1,NaN,2.543984e-01,NaN,0,1,2,1
11,149,1,53,NaN,NaN,1,NaN,2.618024e-01,NaN,1,1,2,1
11,150,1,34,NaN,NaN,1,NaN,3.085556e-01,NaN,2,0,1,1
11,151,1,84,NaN,NaN,1,NaN,2.416189e-01,NaN,0,0,2,1
11,152,1,28,NaN,NaN,1,NaN,5.135407e-01,NaN,0,0,1,1
11,153,1,136,NaN,NaN,1,NaN,2.945294e-01,NaN,0,0,3,1
11,154,1,129,NaN,NaN,2,NaN,4.445459e-01,NaN,2,0,3,1
11,155,1,113,NaN,NaN,1,NaN,3.483962e-01,NaN,0,0,3,1
11,156,1,40,NaN,NaN,1,NaN,4.878487e-01,NaN,2,0,1,1
11,157,1,4,NaN,NaN,1,NaN,3.737767e-01,NaN,0,0,1,1
11,158,1,62,NaN,NaN,1,NaN,3.842863e-01,NaN,0,0,2,1
11,159,1,31,NaN,NaN,1,NaN,3.388410e-01,NaN,0,1,1,1
11,160,1,67,NaN,NaN,1,NaN,2.865456e-01,NaN,2,1,2,1
11,161,1,67,NaN,NaN,1,NaN,2.129314e-01,NaN,0,1,2,1
11,162,1,23,NaN,NaN,1,NaN,2.853367e-01,NaN,0,0,1,1
11,163,1,144,NaN,NaN,1,NaN,1.553507e-01,NaN,0,1,3,1
11,164,1,17,NaN,NaN,1,NaN,6.869496e-01,NaN,0,0,1,1
11,165,1,139,NaN,NaN,1,NaN,1.728083e-01,NaN,0,0,3,1
11,166,1,3,NaN,NaN,2,NaN,4.155518e-01,NaN,0,0,1,1
11,167,1,17,NaN,NaN,1,NaN,2.481647e-01,NaN,2,0,1,1
11,168,1,30,NaN,NaN,2,NaN,3.355787e-01,NaN,0,1,1,1
11,169,1,23,NaN,NaN,1,NaN,2.277430e-01,NaN,1,0,1,1
11,170,1,100,NaN,NaN,1,NaN,2.443047e-01,NaN,0,0,3,1
11,171,1,11,NaN,NaN,1,NaN,2.043584e-01,NaN,2,1,1,1
11,172,1,24,NaN,NaN,1,NaN,3.337712e-01,NaN,1,0,1,1
11,173,1,11,NaN,NaN,1,NaN,3.305421e-01,NaN,0,1,1,1
11,174,1,117,NaN,NaN,1,NaN,3.497455e-01,NaN,0,0,3,1
11,175,1,143,NaN,NaN,2,NaN,4.573898e-01,NaN,0,0,3,1
11,176,1,55,NaN,NaN,1,NaN,3.765286e-01,NaN,2,0,2,1
11,177,1,74,NaN,NaN,1,NaN,2.431369e-01,NaN,0,0,2,1
11,178,1,142,NaN,NaN,1,NaN,1.035339e+00,NaN,0,0,3,1
11,179,1,70,NaN,NaN,1,NaN,5.793050e-01,NaN,2,1,2,1
11,180,1,123,NaN,NaN,1,NaN,3.096890e-01,NaN,0,0,3,1
11,181,1,46,NaN,NaN,1,NaN,4.347776e-01,NaN,1,0,1,1
11,182,1,78,NaN,NaN,1,NaN,2.749677e-01,NaN,1,1,2,1
11,183,1,54,NaN,NaN,1,NaN,2.816708e-01,NaN,0,1,2,1
11,184,1,73,NaN,NaN,1,NaN,3.995175e-01,NaN,0,0,2,1
11,185,1,138,NaN,NaN,1,NaN,3.609147e-01,NaN,1,0,3,1
11,186,1,79,NaN,NaN,1,NaN,2.926221e-01,NaN,2,1,2,1
11,187,1,108,NaN,NaN,1,NaN,4.186228e-01,NaN,0,0,3,1
11,188,1,109,NaN,NaN,1,NaN,2.673156e-01,NaN,1,0,3,1
11,189,1,102,NaN,NaN,1,NaN,4.016956e-01,NaN,0,0,3,1
11,190,1,137,NaN,NaN,1,NaN,3.952328e-01,NaN,2,0,3,1
11,191,1,59,NaN,NaN,1,NaN,2.925572e-01,NaN,0,0,2,1
11,192,1,122,NaN,NaN,2,NaN,4.265752e-01,NaN,0,0,3,1
11,193,1,80,NaN,NaN,1,NaN,3.153154e-01,NaN,1,0,2,1
11,194,1,64,NaN,NaN,1,NaN,2.238667e-01,NaN,2,0,2,1
11,195,1,106,NaN,NaN,1,NaN,3.365735e-01,NaN,2,0,3,1
11,196,1,116,NaN,NaN,1,NaN,2.606786e-01,NaN,1,1,3,1
11,197,1,122,NaN,NaN,1,NaN,1.123938e+00,NaN,2,0,3,1
11,198,1,132,NaN,NaN,1,NaN,5.047219e-01,NaN,2,0,3,1
11,199,1,89,NaN,NaN,1,NaN,2.382074e-01,NaN,0,0,2,1
11,200,1,43,NaN,NaN,1,NaN,1.901701e-01,NaN,0,1,1,1
11,201,1,28,NaN,NaN,1,NaN,2.480506e-01,NaN,2,0,1,1
11,202,1,76,NaN,NaN,1,NaN,2.475486e-01,NaN,2,0,2,1
11,203,1,82,NaN,NaN,1,NaN,2.312106e-01,NaN,0,0,2,1
11,204,1,12,NaN,NaN,1,NaN,2.549891e-01,NaN,0,0,1,1
11,205,1,126,NaN,NaN,1,NaN,4.545654e-01,NaN,0,0,3,1
11,206,1,20,NaN,NaN,1,NaN,3.178570e-01,NaN,2,0,1,1
11,207,1,124,NaN,NaN,1,NaN,4.507102e-01,NaN,0,0,3,1
11,208,1,115,NaN,NaN,2,NaN,4.337607e-01,NaN,1,0,3,1
11,209,1,76,NaN,NaN,1,NaN,2.978835e-01,NaN,0,0,2,1
11,210,1,113,NaN,NaN,1,NaN,4.873115e-01,NaN,2,0,3,1
11,211,1,121,NaN,NaN,1,NaN,2.453741e-01,NaN,1,0,3,1
11,212,1,41,NaN,NaN,2,NaN,2.767085e-01,NaN,0,0,1,1
11,213,1,98,NaN,NaN,1,NaN,2.836606e-01,NaN,2,1,3,1
11,214,1,61,NaN,NaN,1,NaN,4.335895e-01,NaN,0,0,2,1
11,215,1,105,NaN,NaN,1,NaN,5.375978e-01,NaN,2,0,3,1
11,216,1,74,NaN,NaN,1,NaN,2.618081e-01,NaN,1,0,2,1
11,217,1,83,NaN,NaN,1,NaN,2.922728e-01,NaN,2,0,2,1
11,218,1,6,NaN,NaN,1,NaN,1.946480e-01,NaN,1,1,1,1
11,219,1,75,NaN,NaN,1,NaN,5.234952e-01,NaN,2,0,2,1
11,220,1,54,NaN,NaN,1,NaN,2.963770e-01,NaN,1,1,2,1
11,221,1,81,NaN,NaN,1,NaN,1.976719e-01,NaN,0,0,2,1
11,222,1,15,NaN,NaN,1,NaN,1.272697e-01,NaN,0,1,1,1
11,223,1,10,NaN,NaN,1,NaN,2.356737e-01,NaN,0,0,1,1
11,224,1,60,NaN,NaN,1,NaN,2.517434e-01,NaN,2,1,2,1
11,225,1,59,NaN,NaN,1,NaN,2.674357e-01,NaN,1,0,2,1
11,226,1,71,NaN,NaN,1,NaN,2.418187e-01,NaN,0,0,2,1
11,227,1,108,NaN,NaN,1,NaN,1.299133e-01,NaN,1,0,3,1
11,228,1,141,NaN,NaN,1,NaN,3.500045e-01,NaN,1,0,3,1
11,229,1,45,NaN,NaN,1,NaN,2.332997e-01,NaN,1,0,1,1
11,230,1,16,NaN,NaN,1,NaN,2.896441e-01,NaN,1,0,1,1
11,231,1,130,NaN,NaN,2,NaN,3.916966e-01,NaN,2,0,3,1
11,232,1,2,NaN,NaN,2,NaN,5.214125e-01,NaN,1,0,1,1
11,233,1,14,NaN,NaN,1,NaN,3.507093e-01,NaN,0,0,1,1
11,234,1,96,NaN,NaN,1,NaN,2.974667e-01,NaN,0,0,2,1
11,235,1,107,NaN,NaN,1,NaN,3.111796e-01,NaN,0,0,3,1
11,236,1,137,NaN,NaN,1,NaN,2.203384e-01,NaN,0,0,3,1
11,237,1,46,NaN,NaN,1,NaN,3.089239e-01,NaN,0,0,1,1
11,238,1,121,NaN,NaN,1,NaN,2.183173e-01,NaN,0,0,3,1
11,239,1,21,NaN,NaN,1,NaN,3.150387e-01,NaN,0,0,1,1
11,240,1,26,NaN,NaN,1,NaN,2.476437e-01,NaN,0,0,1,1
11,241,1,27,NaN,NaN,1,NaN,4.472574e-01,NaN,0,0,1,1
11,242,1,144,NaN,NaN,1,NaN,3.264717e-01,NaN,1,1,3,1
11,243,1,66,NaN,NaN,1,NaN,2.991456e-01,NaN,1,1,2,1
11,244,1,65,NaN,NaN,1,NaN,2.729227e-01,NaN,0,1,2,1
11,245,1,37,NaN,NaN,1,NaN,2.712143e-01,NaN,0,0,1,1
11,246,1,75,NaN,NaN,1,NaN,3.098738e-01,NaN,0,0,2,1
11,247,1,84,NaN,NaN,1,NaN,3.471864e-01,NaN,1,0,2,1
11,248,1,134,NaN,NaN,1,NaN,3.346499e-01,NaN,0,0,3,1
11,249,1,31,NaN,NaN,1,NaN,3.068013e-01,NaN,1,1,1,1
11,250,1,47,NaN,NaN,1,NaN,3.121723e-01,NaN,0,1,1,1
11,251,1,32,NaN,NaN,1,NaN,4.530661e-01,NaN,1,1,1,1
11,252,1,116,NaN,NaN,1,NaN,3.084844e-01,NaN,0,1,3,1
11,253,1,43,NaN,NaN,1,NaN,3.375422e-01,NaN,2,1,1,1
11,254,1,107,NaN,NaN,1,NaN,5.016093e-01,NaN,2,0,3,1
11,255,1,18,NaN,NaN,1,NaN,2.591700e-01,NaN,1,0,1,1
11,256,1,131,NaN,NaN,2,NaN,5.792434e-01,NaN,0,1,3,1
11,257,1,101,NaN,NaN,1,NaN,2.044961e-01,NaN,0,1,3,1
11,258,1,9,NaN,NaN,1,NaN,2.377350e-01,NaN,0,0,1,1
11,259,1,32,NaN,NaN,1,NaN,3.337920e-01,NaN,0,1,1,1
11,260,1,139,NaN,NaN,1,NaN,2.580568e-01,NaN,1,0,3,1
11,261,1,119,NaN,NaN,1,NaN,4.176599e-01,NaN,0,0,3,1
11,262,1,41,NaN,NaN,2,NaN,4.579461e-01,NaN,2,0,1,1
11,263,1,143,NaN,NaN,1,NaN,3.935035e-01,NaN,1,0,3,1
11,264,1,39,NaN,NaN,2,NaN,3.793032e-01,NaN,0,1,1,1
11,265,1,18,NaN,NaN,1,NaN,2.533694e-01,NaN,0,0,1,1
11,266,1,33,NaN,NaN,1,NaN,2.127745e-01,NaN,2,0,1,1
11,267,1,72,NaN,NaN,1,NaN,3.103259e-01,NaN,0,0,2,1
11,268,1,58,NaN,NaN,1,NaN,7.227724e-01,NaN,0,1,2,1
11,269,1,99,NaN,NaN,2,NaN,4.718150e-01,NaN,2,1,3,1
11,270,1,25,NaN,NaN,1,NaN,3.580372e-01,NaN,2,1,1,1
11,271,1,40,NaN,NaN,1,NaN,5.456392e-01,NaN,0,0,1,1
11,272,1,98,NaN,NaN,1,NaN,3.652232e-01,NaN,0,1,3,1
11,273,1,6,NaN,NaN,1,NaN,2.717479e-01,NaN,0,1,1,1
11,274,1,16,NaN,NaN,1,NaN,2.144920e-01,NaN,0,0,1,1
11,275,1,38,NaN,NaN,1,NaN,3.670567e-01,NaN,2,0,1,1
11,276,1,87,NaN,NaN,1,NaN,3.220110e-01,NaN,0,0,2,1
11,277,1,70,NaN,NaN,1,NaN,5.425154e-01,NaN,0,1,2,1
11,278,1,119,NaN,NaN,1,NaN,3.545781e-01,NaN,2,0,3,1
11,279,1,14,NaN,NaN,1,NaN,2.299725e-01,NaN,2,0,1,1
11,280,1,114,NaN,NaN,1,NaN,2.379789e-01,NaN,0,0,3,1
11,281,1,20,NaN,NaN,1,NaN,2.700256e-01,NaN,0,0,1,1
11,282,1,50,NaN,NaN,1,NaN,2.767848e-01,NaN,1,0,2,1
11,283,1,132,NaN,NaN,1,NaN,2.358624e-01,NaN,0,0,3,1
11,284,1,103,NaN,NaN,1,NaN,2.434408e-01,NaN,2,0,3,1
11,285,1,69,NaN,NaN,1,NaN,2.194706e-01,NaN,1,1,2,1
11,286,1,128,NaN,NaN,2,NaN,6.923686e-01,NaN,0,0,3,1
11,287,1,24,NaN,NaN,1,NaN,3.382403e-01,NaN,0,0,1,1
11,288,1,77,NaN,NaN,1,NaN,2.467403e-01,NaN,0,0,2,1
11,354,2,69,19,1,1,1,2.030253e+00,NaN,1,1,2,1
11,355,2,9,60,2,1,0,2.475487e+00,NaN,1,0,1,1
11,356,2,23,8,1,1,1,2.277951e+00,NaN,1,0,1,1
11,357,2,115,68,2,2,1,2.128863e+00,NaN,1,0,3,1
11,358,2,104,16,1,1,1,1.768954e+00,NaN,1,1,3,1
11,359,2,26,20,2,2,1,2.007512e+00,NaN,1,0,1,1
11,360,2,46,33,2,2,1,1.581729e+00,NaN,1,0,1,1
11,361,2,124,28,2,2,1,1.387388e+00,NaN,1,0,3,1
11,362,2,32,69,2,2,1,1.521772e+00,NaN,1,1,1,1
11,363,2,108,21,1,1,1,1.226366e+00,NaN,1,0,3,1
11,364,2,71,31,1,1,1,8.950313e-01,NaN,1,0,2,1
11,365,2,139,26,2,2,1,1.344326e+00,NaN,1,0,3,1
11,366,2,66,52,1,1,1,1.056534e+00,NaN,1,1,2,1
11,367,2,80,50,2,2,1,1.483789e+00,NaN,1,0,2,1
11,368,2,74,37,2,2,1,1.382266e+00,NaN,1,0,2,1
11,369,2,109,49,2,2,1,1.484041e+00,NaN,1,0,3,1
11,370,2,117,40,2,2,1,1.686031e+00,NaN,1,0,3,1
11,371,2,22,47,1,2,0,1.944192e+00,NaN,1,0,1,1
11,372,2,1,1,1,1,1,1.512551e+00,NaN,1,1,1,1
11,373,2,82,53,1,1,1,1.897147e+00,NaN,1,0,2,1
11,374,2,63,35,1,1,1,1.578692e+00,NaN,1,0,2,1
11,375,2,39,4,1,2,0,1.280725e+00,NaN,1,1,1,1
11,376,2,53,64,2,2,1,1.219034e+00,NaN,1,1,2,1
11,377,2,88,38,1,1,1,1.279840e+00,NaN,1,0,2,1
11,378,3,22,47,2,2,1,2.470355e+00,NaN,1,0,1,1
11,379,3,39,4,2,2,1,1.329389e+00,NaN,1,1,1,1
11,380,3,32,69,1,1,1,1.473915e+00,NaN,1,1,1,1
11,381,3,80,50,2,2,1,1.236228e+00,NaN,1,0,2,1
11,382,3,109,49,1,1,1,1.120405e+00,NaN,1,0,3,1
11,383,3,9,60,2,2,1,1.929087e+00,NaN,1,0,1,1
11,384,3,26,20,2,2,1,1.169155e+00,NaN,1,0,1,1
11,385,3,66,52,2,2,1,8.639686e-01,NaN,1,1,2,1
11,386,3,53,64,2,2,1,8.430444e-01,NaN,1,1,2,1
11,387,3,1,1,1,1,1,1.110854e+00,NaN,1,1,1,1
11,388,3,71,31,2,2,1,8.243761e-01,NaN,1,0,2,1
11,389,3,23,8,1,1,1,1.644917e+00,NaN,1,0,1,1
11,390,3,46,33,1,2,0,1.017297e+00,NaN,1,0,1,1
11,391,3,115,68,1,1,1,1.365986e+00,NaN,1,0,3,1
11,392,3,108,21,2,2,1,9.734931e-01,NaN,1,0,3,1
11,393,3,88,38,2,2,1,8.036710e-01,NaN,1,0,2,1
11,394,3,117,40,1,1,1,1.265228e+00,NaN,1,0,3,1
11,395,3,74,37,1,2,0,8.677118e-01,NaN,1,0,2,1
11,396,3,63,35,2,2,1,1.030351e+00,NaN,1,0,2,1
11,397,3,124,28,2,2,1,1.842829e+00,NaN,1,0,3,1
11,398,3,139,26,1,1,1,1.662538e+00,NaN,1,0,3,1
11,399,3,82,53,2,2,1,9.699054e-01,NaN,1,0,2,1
11,400,3,104,16,2,2,1,1.144198e+00,NaN,1,1,3,1
11,401,3,69,19,2,2,1,9.364530e-01,NaN,1,1,2,1
11,426,2,59,6,1,1,1,9.551720e-01,NaN,1,0,2,2
11,427,2,24,22,1,1,1,1.186676e+00,NaN,1,0,1,2
11,428,2,92,24,2,2,1,1.193289e+00,NaN,1,0,2,2
11,429,2,100,41,2,2,1,9.269038e-01,NaN,1,0,3,2
11,430,2,138,23,1,1,1,1.088021e+00,NaN,1,0,3,2
11,431,2,16,72,1,1,1,9.857852e-01,NaN,1,0,1,2
11,432,2,10,2,1,1,1,9.684607e-01,NaN,1,0,1,2
11,433,2,52,5,2,2,1,6.070048e-01,NaN,1,0,2,2
11,434,2,133,25,2,2,1,1.172362e+00,NaN,1,0,3,2
11,435,2,31,58,2,2,1,1.442783e+00,NaN,1,1,1,2
11,436,2,58,54,1,1,1,1.262895e+00,NaN,1,1,2,2
11,437,2,50,11,1,1,1,7.535839e-01,NaN,1,0,2,2
11,438,2,91,29,1,1,1,8.810450e-01,NaN,1,0,2,2
11,439,2,62,57,2,2,1,7.554707e-01,NaN,1,0,2,2
11,440,2,111,44,1,1,1,2.362666e+00,NaN,1,0,3,2
11,441,2,6,32,1,2,0,1.569661e+00,NaN,1,1,1,2
11,442,2,54,59,1,1,1,1.128693e+00,NaN,1,1,2,2
11,443,2,78,27,2,2,1,1.064255e+00,NaN,1,1,2,2
11,444,2,114,62,1,1,1,1.594981e+00,NaN,1,0,3,2
11,445,2,118,30,2,1,0,1.704971e+00,NaN,1,0,3,2
11,446,2,128,43,2,2,1,9.618989e-01,NaN,1,0,3,2
11,447,2,96,51,1,1,1,8.327892e-01,NaN,1,0,2,2
11,448,2,18,36,2,2,1,1.260956e+00,NaN,1,0,1,2
11,449,2,144,13,1,1,1,1.112372e+00,NaN,1,1,3,2
11,450,3,92,24,2,2,1,9.757868e-01,NaN,1,0,2,2
11,451,3,59,6,1,1,1,1.398391e+00,NaN,1,0,2,2
11,452,3,16,72,1,2,0,1.451951e+00,NaN,1,0,1,2
11,453,3,118,30,2,2,1,2.127426e+00,NaN,1,0,3,2
11,454,3,54,59,1,1,1,1.032174e+00,NaN,1,1,2,2
11,455,3,18,36,2,2,1,9.961421e-01,NaN,1,0,1,2
11,456,3,24,22,2,2,1,2.129594e+00,NaN,1,0,1,2
11,457,3,114,62,2,2,1,1.337700e+00,NaN,1,0,3,2
11,458,3,91,29,1,1,1,7.857893e-01,NaN,1,0,2,2
11,459,3,50,11,2,2,1,8.400108e-01,NaN,1,0,2,2
11,460,3,128,43,1,1,1,1.388000e+00,NaN,1,0,3,2
11,461,3,6,32,1,2,0,1.898282e+00,NaN,1,1,1,2
11,462,3,96,51,1,1,1,5.798960e-01,NaN,1,0,2,2
11,463,3,10,2,1,1,1,1.225812e+00,NaN,1,0,1,2
11,464,3,133,25,2,2,1,2.118494e+00,NaN,1,0,3,2
11,465,3,31,58,2,2,1,1.631370e+00,NaN,1,1,1,2
11,466,3,144,13,2,2,1,7.955332e-01,NaN,1,1,3,2
11,467,3,52,5,1,1,1,6.966769e-01,NaN,1,0,2,2
11,468,3,62,57,1,1,1,1.274524e+00,NaN,1,0,2,2
11,469,3,138,23,1,1,1,1.860713e+00,NaN,1,0,3,2
11,470,3,111,44,1,2,0,7.526593e-01,NaN,1,0,3,2
11,471,3,100,41,2,2,1,1.287782e+00,NaN,1,0,3,2
11,472,3,78,27,1,1,1,6.581429e-01,NaN,1,1,2,2
11,473,3,58,54,2,2,1,1.141633e+00,NaN,1,1,2,2
11,498,2,65,63,1,1,1,1.129693e+00,NaN,1,1,2,3
11,499,2,27,9,2,2,1,1.466027e+00,NaN,1,0,1,3
11,500,2,121,3,1,1,1,9.805813e-01,NaN,1,0,3,3
11,501,2,35,12,2,2,1,1.330630e+00,NaN,1,0,1,3
11,502,2,12,55,2,2,1,1.219039e+00,NaN,1,0,1,3
11,503,2,116,65,2,2,1,1.183497e+00,NaN,1,1,3,3
11,504,2,84,18,1,1,1,1.013971e+00,NaN,1,0,2,3
11,505,2,143,56,2,2,1,7.704444e-01,NaN,1,0,3,3
11,506,2,112,17,1,1,1,1.153361e+00,NaN,1,1,3,3
11,507,2,123,7,1,1,1,1.360544e+00,NaN,1,0,3,3
11,508,2,21,66,1,1,1,1.912225e+00,NaN,1,0,1,3
11,509,2,141,70,2,2,1,1.097059e+00,NaN,1,0,3,3
11,510,2,89,42,2,2,1,1.002363e+00,NaN,1,0,2,3
11,511,2,93,48,2,2,1,1.039741e+00,NaN,1,0,2,3
11,512,2,47,45,2,2,1,1.547752e+00,NaN,1,1,1,3
11,513,2,142,34,2,2,1,1.515279e+00,NaN,1,0,3,3
11,514,2,5,71,1,1,1,1.212013e+00,NaN,1,0,1,3
11,515,2,72,46,1,1,1,7.209015e-01,NaN,1,0,2,3
11,516,2,2,14,1,1,1,1.417588e+00,NaN,1,0,1,3
11,517,2,42,39,2,2,1,1.366410e+00,NaN,1,1,1,3
11,518,2,136,15,1,1,1,1.309174e+00,NaN,1,0,3,3
11,519,2,37,10,2,2,1,1.726426e+00,NaN,1,0,1,3
11,520,2,135,61,1,1,1,1.175401e+00,NaN,1,0,3,3
11,521,2,45,67,2,2,1,1.550152e+00,NaN,1,0,1,3
11,522,3,5,71,2,2,1,1.218077e+00,NaN,1,0,1,3
11,523,3,135,61,1,1,1,5.030518e-01,NaN,1,0,3,3
11,524,3,121,3,1,1,1,1.144970e+00,NaN,1,0,3,3
11,525,3,84,18,2,1,0,6.961342e-01,NaN,1,0,2,3
11,526,3,141,70,1,1,1,1.313163e+00,NaN,1,0,3,3
11,527,3,37,10,1,1,1,1.345955e+00,NaN,1,0,1,3
11,528,3,42,39,2,2,1,1.457387e+00,NaN,1,1,1,3
11,529,3,93,48,2,2,1,1.156983e+00,NaN,1,0,2,3
11,530,3,112,17,1,1,1,9.082482e-01,NaN,1,1,3,3
11,531,3,136,15,1,1,1,7.338015e-01,NaN,1,0,3,3
11,532,3,2,14,1,1,1,1.174132e+00,NaN,1,0,1,3
11,533,3,72,46,1,1,1,5.805049e-01,NaN,1,0,2,3
11,534,3,142,34,2,2,1,1.002599e+00,NaN,1,0,3,3
11,535,3,89,42,2,2,1,7.841890e-01,NaN,1,0,2,3
11,536,3,27,9,1,1,1,1.942478e+00,NaN,1,0,1,3
11,537,3,65,63,1,1,1,1.054608e+00,NaN,1,1,2,3
11,538,3,123,7,1,1,1,1.481699e+00,NaN,1,0,3,3
11,539,3,116,65,1,1,1,9.638322e-01,NaN,1,1,3,3
11,540,3,35,12,1,1,1,2.506589e+00,NaN,1,0,1,3
11,541,3,45,67,1,2,0,2.067857e+00,NaN,1,0,1,3
11,542,3,21,66,1,1,1,7.667287e-01,NaN,1,0,1,3
11,543,3,47,45,1,2,0,1.317774e+00,NaN,1,1,1,3
11,544,3,143,56,1,1,1,1.214360e+00,NaN,1,0,3,3
11,545,3,12,55,2,2,1,2.155264e+00,NaN,1,0,1,3
11,570,4,44,27,1,2,0,2.188580e+00,NaN,2,1,1,1
11,571,4,70,69,2,2,1,1.042952e+00,NaN,2,1,2,1
11,572,4,20,25,1,1,1,1.239369e+00,NaN,2,0,1,1
11,573,4,73,22,1,1,1,1.403001e+00,NaN,2,0,2,1
11,574,4,56,66,1,1,1,8.404606e-01,NaN,2,0,2,1
11,575,4,86,44,1,1,1,1.012808e+00,NaN,2,0,2,1
11,576,4,33,31,2,2,1,1.521249e+00,NaN,2,0,1,1
11,577,4,127,1,2,2,1,1.346060e+00,NaN,2,1,3,1
11,578,4,110,6,2,2,1,2.081457e+00,NaN,2,0,3,1
11,579,4,7,68,1,1,1,1.235651e+00,NaN,2,0,1,1
11,580,4,43,59,2,2,1,1.735729e+00,NaN,2,1,1,1
11,581,4,113,51,2,2,1,1.383975e+00,NaN,2,0,3,1
11,582,4,90,3,2,2,1,1.277927e+00,NaN,2,0,2,1
11,583,4,8,61,2,2,1,1.288999e+00,NaN,2,0,1,1
11,584,4,105,35,2,2,1,2.698961e+00,NaN,2,0,3,1
11,585,4,14,7,1,1,1,1.876471e+00,NaN,2,0,1,1
11,586,4,126,55,1,1,1,1.598991e+00,NaN,2,0,3,1
11,587,4,4,15,1,2,0,1.580450e+00,NaN,2,0,1,1
11,588,4,25,13,1,1,1,1.234599e+00,NaN,2,1,1,1
11,589,4,99,52,1,1,1,1.534992e+00,NaN,2,1,3,1
11,590,4,85,34,2,2,1,1.414782e+00,NaN,2,0,2,1
11,591,4,17,41,2,2,1,1.468147e+00,NaN,2,0,1,1
11,592,4,19,49,2,2,1,1.502338e+00,NaN,2,0,1,1
11,593,4,77,43,2,2,1,1.023632e+00,NaN,2,0,2,1
11,618,4,34,57,2,2,1,1.102085e+00,NaN,2,0,1,2
11,619,4,137,60,1,1,1,1.023721e+00,NaN,2,0,3,2
11,620,4,13,26,1,1,1,1.100286e+00,NaN,2,0,1,2
11,621,4,76,30,2,2,1,9.261220e-01,NaN,2,0,2,2
11,622,4,134,36,2,2,1,1.798720e+00,NaN,2,0,3,2
11,623,4,38,11,2,2,1,1.036221e+00,NaN,2,0,1,2
11,624,4,131,39,1,1,1,1.008287e+00,NaN,2,1,3,2
11,625,4,120,45,1,1,1,9.336962e-01,NaN,2,1,3,2
11,626,4,15,65,2,2,1,1.205705e+00,NaN,2,1,1,2
11,627,4,55,47,2,2,1,1.411142e+00,NaN,2,0,2,2
11,628,4,95,70,2,2,1,2.288424e+00,NaN,2,0,2,2
11,629,4,125,9,2,2,1,1.890507e+00,NaN,2,0,3,2
11,630,4,68,58,1,1,1,6.370252e-01,NaN,2,1,2,2
11,631,4,60,4,1,1,1,9.927916e-01,NaN,2,1,2,2
11,632,4,97,5,2,2,1,1.479091e+00,NaN,2,0,3,2
11,633,4,49,14,2,2,1,1.265048e+00,NaN,2,0,2,2
11,634,4,119,50,1,1,1,1.035835e+00,NaN,2,0,3,2
11,635,4,130,20,2,2,1,1.359819e+00,NaN,2,0,3,2
11,636,4,107,37,1,1,1,2.951149e+00,NaN,2,0,3,2
11,637,4,67,32,1,1,1,8.946983e-01,NaN,2,1,2,2
11,638,4,75,23,2,2,1,8.169552e-01,NaN,2,0,2,2
11,639,4,36,54,2,2,1,1.069930e+00,NaN,2,1,1,2
11,640,4,40,46,1,1,1,1.328409e+00,NaN,2,0,1,2
11,641,4,94,21,2,2,1,1.336483e+00,NaN,2,0,2,2
11,666,4,41,24,1,1,1,1.617531e+00,NaN,2,0,1,3
11,667,4,103,29,1,1,1,1.022297e+00,NaN,2,0,3,3
11,668,4,102,38,1,1,1,1.514906e+00,NaN,2,0,3,3
11,669,4,28,42,2,2,1,1.212057e+00,NaN,2,0,1,3
11,670,4,11,16,2,2,1,1.048544e+00,NaN,2,1,1,3
11,671,4,61,71,1,1,1,8.041032e-01,NaN,2,0,2,3
11,672,4,51,8,1,1,1,1.265353e+00,NaN,2,0,2,3
11,673,4,79,17,2,2,1,7.405128e-01,NaN,2,1,2,3
11,674,4,101,63,2,2,1,1.012578e+00,NaN,2,1,3,3
11,675,4,132,72,2,2,1,1.297245e+00,NaN,2,0,3,3
11,676,4,3,62,2,2,1,1.282399e+00,NaN,2,0,1,3
11,677,4,30,19,2,2,1,8.845500e-01,NaN,2,1,1,3
11,678,4,29,48,1,1,1,1.910874e+00,NaN,2,0,1,3
11,679,4,83,40,2,2,1,9.440785e-01,NaN,2,0,2,3
11,680,4,87,28,2,1,0,1.704327e+00,NaN,2,0,2,3
11,681,4,98,64,1,1,1,1.481510e+00,NaN,2,1,3,3
11,682,4,57,67,1,1,1,1.011980e+00,NaN,2,0,2,3
11,683,4,106,18,1,1,1,1.016387e+00,NaN,2,0,3,3
11,684,4,64,10,2,2,1,8.776235e-01,NaN,2,0,2,3
11,685,4,48,53,1,2,0,1.792083e+00,NaN,2,0,1,3
11,686,4,129,12,2,2,1,1.214164e+00,NaN,2,0,3,3
11,687,4,81,56,1,1,1,1.619215e+00,NaN,2,0,2,3
11,688,4,140,2,1,1,1,2.295477e+00,NaN,2,0,3,3
11,689,4,122,33,2,1,0,2.305042e+00,NaN,2,0,3,3
11,690,5,1.732000e+01,72,1,1,1,1.273381e+00,1,1,0,1.300000e+00,1
11,691,5,1.140300e+02,62,3,2,0,1.204306e+00,1,1,0,3.100000e+00,1
11,692,5,1.231400e+02,7,3,3,1,5.256797e-01,1,1,0,3.100000e+00,1
11,693,5,1.140000e+01,2,1,1,1,4.238112e-01,1,1,0,1.300000e+00,1
11,694,5,1.287700e+02,43,3,2,0,1.024489e+00,1,1,0,3.200000e+00,1
11,695,5,5.297000e+01,5,2,2,1,3.463645e-01,1,1,0,2.300000e+00,1
11,696,5,1.391300e+02,26,3,2,0,8.914683e-01,1,1,0,3.100000e+00,1
11,697,5,5.610000e+00,71,1,3,0,4.768006e-01,1,1,0,1.200000e+00,1
11,698,5,7.133000e+01,31,2,2,1,3.348793e-01,1,1,0,2.100000e+00,1
11,699,5,1.350800e+02,61,3,3,1,2.643699e-01,1,1,0,3.100000e+00,1
11,700,5,1.178300e+02,40,3,3,1,5.059858e-01,1,1,0,3.200000e+00,1
11,701,5,1.419500e+02,70,3,0,0,2.500618e+00,1,1,0,3.200000e+00,1
11,702,5,7.507000e+01,37,2,2,1,3.494621e-01,1,1,0,2.300000e+00,1
11,703,5,1.140300e+02,62,3,3,1,2.466235e-01,2,1,0,3.100000e+00,1
11,704,5,5.610000e+00,71,1,3,0,3.525512e-01,2,1,0,1.200000e+00,1
11,705,5,3.629000e+01,12,1,2,0,6.895391e-01,1,1,0,1.300000e+00,1
11,706,5,9.329000e+01,48,2,2,1,3.873060e-01,1,1,0,2.100000e+00,1
11,707,5,1.391300e+02,26,3,1,0,5.163843e-01,2,1,0,3.100000e+00,1
11,708,5,4.557000e+01,67,1,2,0,3.740625e-01,1,1,0,1.200000e+00,1
11,709,5,3.629000e+01,12,1,1,1,3.351878e-01,2,1,0,1.300000e+00,1
11,710,5,2.156000e+01,66,1,2,0,3.371262e-01,1,1,0,1.200000e+00,1
11,711,5,6.234000e+01,57,2,2,1,4.103927e-01,1,1,0,2.100000e+00,1
11,712,5,1.231400e+02,7,3,3,1,3.402600e-01,2,1,0,3.100000e+00,1
11,713,5,4.557000e+01,67,1,1,1,3.177257e-01,2,1,0,1.200000e+00,1
11,714,5,1.287700e+02,43,3,3,1,4.153463e-01,2,1,0,3.200000e+00,1
11,715,5,1.231400e+02,7,3,3,1,3.528820e-01,3,1,0,3.100000e+00,1
11,716,5,9.241000e+01,24,2,2,1,5.218218e-01,1,1,0,2.100000e+00,1
11,717,5,5.038000e+01,11,2,1,0,1.211180e+00,1,1,0,2.100000e+00,1
11,718,5,9.203000e+01,29,2,3,0,1.693447e+00,1,1,0,2.300000e+00,1
11,719,5,1.089400e+02,21,3,2,0,2.874539e-01,1,1,0,3.200000e+00,1
11,720,5,3.764000e+01,10,1,1,1,4.009645e-01,1,1,0,1.200000e+00,1
11,721,5,1.231400e+02,7,3,3,1,3.783644e-01,4,1,0,3.100000e+00,1
11,722,5,1.248700e+02,28,3,3,1,3.718614e-01,1,1,0,3.200000e+00,1
11,723,5,1.934000e+01,36,1,1,1,5.892433e-01,1,1,0,1.300000e+00,1
11,724,5,8.902000e+01,38,2,2,1,3.268526e-01,1,1,0,2.300000e+00,1
11,725,5,3.629000e+01,12,1,1,1,3.205597e-01,3,1,0,1.300000e+00,1
11,726,5,1.140300e+02,62,3,2,0,3.540758e-01,3,1,0,3.100000e+00,1
11,727,5,2.825000e+01,9,1,1,1,3.475390e-01,1,1,0,1.300000e+00,1
11,728,5,9.713000e+01,51,2,2,1,3.170837e-01,1,1,0,2.300000e+00,1
11,729,5,2.351000e+01,8,1,2,0,3.107485e-01,1,1,0,1.200000e+00,1
11,730,5,1.360400e+02,15,3,3,1,2.649099e-01,1,1,0,3.100000e+00,1
11,731,5,8.902000e+01,38,2,2,1,3.539297e-01,2,1,0,2.300000e+00,1
11,732,5,2.255000e+01,47,1,1,1,2.674502e-01,1,1,0,1.200000e+00,1
11,733,5,8.248000e+01,53,2,2,1,4.451418e-01,1,1,0,2.100000e+00,1
11,734,5,5.038000e+01,11,2,3,0,3.181637e-01,2,1,0,2.100000e+00,1
11,735,5,1.350800e+02,61,3,3,1,2.878179e-01,2,1,0,3.100000e+00,1
11,736,5,6.010000e+01,6,2,3,0,4.652821e-01,1,1,0,2.300000e+00,1
11,737,5,1.326000e+01,55,1,2,0,4.103863e-01,1,1,0,1.300000e+00,1
11,738,5,1.419500e+02,70,3,2,0,9.485099e-01,2,1,0,3.200000e+00,1
11,739,5,1.732000e+01,72,1,1,1,3.179678e-01,2,1,0,1.300000e+00,1
11,740,5,1.089400e+02,21,3,1,0,2.874949e-01,2,1,0,3.200000e+00,1
11,741,5,9.713000e+01,51,2,2,1,3.690633e-01,2,1,0,2.300000e+00,1
11,742,5,2.156000e+01,66,1,1,1,7.146603e-01,2,1,0,1.200000e+00,1
11,743,5,1.391300e+02,26,3,2,0,3.155569e-01,3,1,0,3.100000e+00,1
11,744,5,7.133000e+01,31,2,2,1,3.091023e-01,2,1,0,2.100000e+00,1
11,745,5,7.133000e+01,31,2,2,1,2.950036e-01,3,1,0,2.100000e+00,1
11,746,5,1.419500e+02,70,3,3,1,2.965180e-01,3,1,0,3.200000e+00,1
11,747,5,1.219000e+02,3,3,2,0,1.034170e+00,1,1,0,3.200000e+00,1
11,748,5,1.091900e+02,49,3,1,0,3.154778e-01,1,1,0,3.100000e+00,1
11,749,5,9.241000e+01,24,2,2,1,4.128138e-01,2,1,0,2.100000e+00,1
11,750,5,8.248000e+01,53,2,0,0,2.500362e+00,2,1,0,2.100000e+00,1
11,751,5,8.902000e+01,38,2,2,1,4.567176e-01,3,1,0,2.300000e+00,1
11,752,5,2.351000e+01,8,1,2,0,7.697568e-01,2,1,0,1.200000e+00,1
11,753,5,7.507000e+01,37,2,2,1,2.673195e-01,2,1,0,2.300000e+00,1
11,754,5,1.001700e+02,41,3,3,1,6.372416e-01,1,1,0,3.100000e+00,1
11,755,5,2.490000e+00,14,1,3,0,3.499580e-01,1,1,0,1.200000e+00,1
11,756,5,7.240000e+01,46,2,1,0,3.514594e-01,1,1,0,2.100000e+00,1
11,757,5,1.037000e+01,60,1,1,1,3.129167e-01,1,1,0,1.300000e+00,1
11,758,5,6.405000e+01,35,2,2,1,2.904370e-01,1,1,0,2.300000e+00,1
11,759,5,8.506000e+01,18,2,1,0,6.836876e-01,1,1,0,2.300000e+00,1
11,760,5,2.730000e+01,20,1,3,0,4.375434e-01,1,1,0,1.300000e+00,1
11,761,5,8.119000e+01,50,2,2,1,9.109117e-01,1,1,0,2.300000e+00,1
11,762,5,1.438100e+02,56,3,3,1,2.888273e-01,1,1,0,3.200000e+00,1
11,763,5,1.332000e+02,25,3,3,1,3.784341e-01,1,1,0,3.100000e+00,1
11,764,5,2.490000e+00,14,1,1,1,2.277714e-01,2,1,0,1.200000e+00,1
11,765,5,1.350800e+02,61,3,3,1,2.375572e-01,3,1,0,3.100000e+00,1
11,766,5,1.732000e+01,72,1,1,1,3.590360e-01,3,1,0,1.300000e+00,1
11,767,5,1.732000e+01,72,1,1,1,2.655869e-01,4,1,0,1.300000e+00,1
11,768,5,9.713000e+01,51,2,2,1,3.386656e-01,3,1,0,2.300000e+00,1
11,769,5,1.360400e+02,15,3,1,0,5.243582e-01,2,1,0,3.100000e+00,1
11,770,5,1.187600e+02,30,3,3,1,3.174196e-01,1,1,0,3.200000e+00,1
11,771,5,1.438100e+02,56,3,3,1,4.230406e-01,2,1,0,3.200000e+00,1
11,772,5,1.089400e+02,21,3,3,1,6.004771e-01,3,1,0,3.200000e+00,1
11,773,5,5.610000e+00,71,1,1,1,8.017153e-01,3,1,0,1.200000e+00,1
11,774,5,1.326000e+01,55,1,3,0,3.231151e-01,2,1,0,1.300000e+00,1
11,775,5,6.405000e+01,35,2,2,1,3.485931e-01,2,1,0,2.300000e+00,1
11,776,5,8.506000e+01,18,2,3,0,4.459845e-01,2,1,0,2.300000e+00,1
11,777,5,7.240000e+01,46,2,1,0,4.153131e-01,2,1,0,2.100000e+00,1
11,778,5,1.178300e+02,40,3,3,1,2.411830e-01,2,1,0,3.200000e+00,1
11,779,5,2.255000e+01,47,1,1,1,2.501816e-01,2,1,0,1.200000e+00,1
11,780,5,2.351000e+01,8,1,2,0,2.437593e-01,3,1,0,1.200000e+00,1
11,781,5,7.240000e+01,46,2,1,0,2.699009e-01,3,1,0,2.100000e+00,1
11,782,5,2.473000e+01,22,1,3,0,1.407014e+00,1,1,0,1.200000e+00,1
11,783,5,3.764000e+01,10,1,3,0,1.367362e-04,2,1,0,1.200000e+00,1
11,784,5,8.119000e+01,50,2,2,1,4.899550e-01,2,1,0,2.300000e+00,1
11,785,5,7.240000e+01,46,2,2,1,5.396117e-01,4,1,0,2.100000e+00,1
11,786,5,2.825000e+01,9,1,1,1,4.610204e-01,2,1,0,1.300000e+00,1
11,787,5,8.902000e+01,38,2,2,1,3.909049e-01,4,1,0,2.300000e+00,1
11,788,5,5.297000e+01,5,2,2,1,3.766137e-01,2,1,0,2.300000e+00,1
11,789,5,1.428500e+02,34,3,3,1,3.466978e-01,1,1,0,3.200000e+00,1
11,790,5,2.825000e+01,9,1,1,1,3.239582e-01,3,1,0,1.300000e+00,1
11,791,5,6.234000e+01,57,2,2,1,2.773309e-01,2,1,0,2.100000e+00,1
11,792,5,1.428500e+02,34,3,3,1,3.514259e-01,2,1,0,3.200000e+00,1
11,793,5,2.825000e+01,9,1,1,1,2.649126e-01,4,1,0,1.300000e+00,1
11,794,5,8.928000e+01,42,2,2,1,3.462293e-01,1,1,0,2.100000e+00,1
11,795,5,2.730000e+01,20,1,1,1,4.596056e-01,2,1,0,1.300000e+00,1
11,796,5,8.248000e+01,53,2,1,0,3.020406e-01,3,1,0,2.100000e+00,1
11,797,5,1.187600e+02,30,3,3,1,3.435314e-01,2,1,0,3.200000e+00,1
11,798,5,1.387500e+02,23,3,2,0,3.216014e-01,1,1,0,3.200000e+00,1
11,799,5,1.387500e+02,23,3,3,1,3.388084e-01,2,1,0,3.200000e+00,1
11,800,5,8.928000e+01,42,2,2,1,5.080211e-01,2,1,0,2.100000e+00,1
11,801,5,1.187600e+02,30,3,3,1,3.097591e-01,3,1,0,3.200000e+00,1
11,802,5,2.490000e+00,14,1,1,1,3.915901e-01,3,1,0,1.200000e+00,1
11,803,5,2.156000e+01,66,1,1,1,3.453829e-01,3,1,0,1.200000e+00,1
11,804,5,1.219000e+02,3,3,2,0,3.464599e-01,2,1,0,3.200000e+00,1
11,805,5,3.764000e+01,10,1,3,0,2.838800e-01,3,1,0,1.200000e+00,1
11,806,5,9.329000e+01,48,2,1,0,3.415338e-01,2,1,0,2.100000e+00,1
11,807,5,2.473000e+01,22,1,0,0,2.500276e+00,2,1,0,1.200000e+00,1
11,808,5,1.326000e+01,55,1,2,0,4.088521e-01,3,1,0,1.300000e+00,1
11,809,5,1.350800e+02,61,3,3,1,8.830909e-01,4,1,0,3.100000e+00,1
11,810,5,1.287700e+02,43,3,3,1,7.886197e-01,3,1,0,3.200000e+00,1
11,811,5,1.001700e+02,41,3,3,1,2.862193e-01,2,1,0,3.100000e+00,1
11,812,5,1.150700e+02,68,3,1,0,2.557788e-01,1,1,0,3.100000e+00,1
11,813,5,1.118600e+02,44,3,1,0,5.847512e-01,1,1,0,3.200000e+00,1
11,814,5,1.934000e+01,36,1,3,0,1.089952e+00,2,1,0,1.300000e+00,1
11,815,5,8.119000e+01,50,2,2,1,4.836084e-01,3,1,0,2.300000e+00,1
11,816,5,2.730000e+01,20,1,1,1,4.851107e-01,3,1,0,1.300000e+00,1
11,817,5,1.248700e+02,28,3,3,1,3.584417e-01,2,1,0,3.200000e+00,1
11,818,5,1.178300e+02,40,3,3,1,4.403847e-01,3,1,0,3.200000e+00,1
11,819,5,1.150700e+02,68,3,2,0,8.097846e-01,2,1,0,3.100000e+00,1
11,820,5,5.038000e+01,11,2,1,0,4.998806e-01,3,1,0,2.100000e+00,1
11,821,5,5.038000e+01,11,2,2,1,4.613935e-01,4,1,0,2.100000e+00,1
11,822,5,1.091900e+02,49,3,2,0,6.707845e-01,2,1,0,3.100000e+00,1
11,823,5,1.140000e+01,2,1,1,1,3.601604e-01,2,1,0,1.300000e+00,1
11,824,5,9.329000e+01,48,2,3,0,3.062232e-01,3,1,0,2.100000e+00,1
11,825,5,1.934000e+01,36,1,3,0,1.027834e+00,3,1,0,1.300000e+00,1
11,826,5,1.219000e+02,3,3,3,1,3.896221e-01,3,1,0,3.200000e+00,1
11,827,5,4.557000e+01,67,1,2,0,5.584595e-01,3,1,0,1.200000e+00,1
11,828,5,3.629000e+01,12,1,2,0,6.087332e-01,4,1,0,1.300000e+00,1
11,829,5,1.140000e+01,2,1,1,1,6.586920e-01,3,1,0,1.300000e+00,1
11,830,5,8.506000e+01,18,2,2,1,5.008963e-01,3,1,0,2.300000e+00,1
11,831,5,4.557000e+01,67,1,1,1,2.943178e-01,4,1,0,1.200000e+00,1
11,832,5,1.037000e+01,60,1,1,1,3.206198e-01,2,1,0,1.300000e+00,1
11,833,5,2.156000e+01,66,1,1,1,3.615960e-01,4,1,0,1.200000e+00,1
11,834,5,2.255000e+01,47,1,1,1,3.314485e-01,3,1,0,1.200000e+00,1
11,835,5,2.730000e+01,20,1,1,1,4.205278e-01,4,1,0,1.300000e+00,1
11,836,5,5.610000e+00,71,1,1,1,3.262830e-01,4,1,0,1.200000e+00,1
11,837,5,2.351000e+01,8,1,2,0,4.002087e-01,4,1,0,1.200000e+00,1
11,838,5,1.140300e+02,62,3,2,0,2.814686e-01,4,1,0,3.100000e+00,1
11,839,5,1.387500e+02,23,3,1,0,2.749870e-01,3,1,0,3.200000e+00,1
11,840,5,1.360400e+02,15,3,1,0,9.963573e-01,3,1,0,3.100000e+00,1
11,841,5,4.722000e+01,33,1,1,1,2.538977e-01,1,1,0,1.300000e+00,1
11,842,5,5.297000e+01,5,2,2,1,3.675758e-01,3,1,0,2.300000e+00,1
11,843,5,4.722000e+01,33,1,1,1,3.370622e-01,2,1,0,1.300000e+00,1
11,844,5,1.438100e+02,56,3,3,1,2.343426e-01,3,1,0,3.200000e+00,1
11,845,5,1.326000e+01,55,1,3,0,3.394716e-01,4,1,0,1.300000e+00,1
11,846,5,1.150700e+02,68,3,1,0,3.569017e-01,3,1,0,3.100000e+00,1
11,847,5,1.332000e+02,25,3,3,1,2.705629e-01,2,1,0,3.100000e+00,1
11,848,5,1.118600e+02,44,3,3,1,5.042163e-01,2,1,0,3.200000e+00,1
11,849,5,1.140000e+01,2,1,1,1,3.373617e-01,4,1,0,1.300000e+00,1
11,850,5,1.332000e+02,25,3,3,1,3.067261e-01,3,1,0,3.100000e+00,1
11,851,5,1.219000e+02,3,3,3,1,7.403003e-01,4,1,0,3.200000e+00,1
11,852,5,1.118600e+02,44,3,3,1,2.694530e-01,3,1,0,3.200000e+00,1
11,853,5,1.178300e+02,40,3,3,1,1.421694e-04,4,1,0,3.200000e+00,1
11,854,5,8.928000e+01,42,2,2,1,6.564595e-01,3,1,0,2.100000e+00,1
11,855,5,1.287700e+02,43,3,1,0,4.657476e-01,4,1,0,3.200000e+00,1
11,856,5,1.037000e+01,60,1,1,1,3.234381e-01,3,1,0,1.300000e+00,1
11,857,5,6.010000e+01,6,2,2,1,8.366386e-01,2,1,0,2.300000e+00,1
11,858,5,2.490000e+00,14,1,1,1,3.820798e-01,4,1,0,1.200000e+00,1
11,859,5,1.001700e+02,41,3,3,1,3.676253e-01,3,1,0,3.100000e+00,1
11,860,5,1.118600e+02,44,3,3,1,3.053310e-01,4,1,0,3.200000e+00,1
11,861,5,6.234000e+01,57,2,2,1,2.981987e-01,3,1,0,2.100000e+00,1
11,862,5,4.722000e+01,33,1,1,1,2.839549e-01,3,1,0,1.300000e+00,1
11,863,5,1.150700e+02,68,3,1,0,3.813850e-01,4,1,0,3.100000e+00,1
11,864,5,1.001700e+02,41,3,3,1,2.785340e-01,4,1,0,3.100000e+00,1
11,865,5,7.507000e+01,37,2,2,1,4.479523e-01,3,1,0,2.300000e+00,1
11,866,5,5.297000e+01,5,2,2,1,4.736074e-01,4,1,0,2.300000e+00,1
11,867,5,9.203000e+01,29,2,3,0,5.148842e-01,2,1,0,2.300000e+00,1
11,868,5,1.360400e+02,15,3,3,1,8.122790e-01,4,1,0,3.100000e+00,1
11,869,5,1.332000e+02,25,3,3,1,4.300045e-01,4,1,0,3.100000e+00,1
11,870,5,1.187600e+02,30,3,1,0,1.479075e+00,4,1,0,3.200000e+00,1
11,871,5,6.010000e+01,6,2,3,0,2.483476e-01,3,1,0,2.300000e+00,1
11,872,5,1.248700e+02,28,3,3,1,2.181078e-01,3,1,0,3.200000e+00,1
11,873,5,1.387500e+02,23,3,2,0,3.394782e-01,4,1,0,3.200000e+00,1
11,874,5,7.133000e+01,31,2,2,1,2.371775e-01,4,1,0,2.100000e+00,1
11,875,5,6.234000e+01,57,2,2,1,2.702221e-01,4,1,0,2.100000e+00,1
11,876,5,1.934000e+01,36,1,1,1,3.197459e-01,4,1,0,1.300000e+00,1
11,877,5,7.507000e+01,37,2,2,1,2.650270e-01,4,1,0,2.300000e+00,1
11,878,5,1.089400e+02,21,3,1,0,3.947239e-01,4,1,0,3.200000e+00,1
11,879,5,9.329000e+01,48,2,1,0,3.883914e-01,4,1,0,2.100000e+00,1
11,880,5,4.722000e+01,33,1,1,1,2.856893e-01,4,1,0,1.300000e+00,1
11,881,5,9.203000e+01,29,2,2,1,4.308132e-01,3,1,0,2.300000e+00,1
11,882,5,8.506000e+01,18,2,2,1,6.402441e-01,4,1,0,2.300000e+00,1
11,883,5,8.119000e+01,50,2,3,0,2.894883e-01,4,1,0,2.300000e+00,1
11,884,5,9.241000e+01,24,2,2,1,4.513631e-01,3,1,0,2.100000e+00,1
11,885,5,1.248700e+02,28,3,3,1,4.204269e-01,4,1,0,3.200000e+00,1
11,886,5,6.405000e+01,35,2,2,1,3.978283e-01,3,1,0,2.300000e+00,1
11,887,5,1.438100e+02,56,3,3,1,2.952741e-01,4,1,0,3.200000e+00,1
11,888,5,1.037000e+01,60,1,1,1,4.006920e-01,4,1,0,1.300000e+00,1
11,889,5,9.713000e+01,51,2,2,1,4.425704e-01,4,1,0,2.300000e+00,1
11,890,5,8.928000e+01,42,2,1,0,1.212134e+00,4,1,0,2.100000e+00,1
11,891,5,9.203000e+01,29,2,2,1,3.497633e-01,4,1,0,2.300000e+00,1
11,892,5,1.428500e+02,34,3,3,1,2.230753e-01,3,1,0,3.200000e+00,1
11,893,5,2.473000e+01,22,1,1,1,9.204549e-01,3,1,0,1.200000e+00,1
11,894,5,1.091900e+02,49,3,3,1,8.104607e-01,3,1,0,3.100000e+00,1
11,895,5,1.428500e+02,34,3,3,1,5.481114e-01,4,1,0,3.200000e+00,1
11,896,5,1.419500e+02,70,3,1,0,5.574296e-01,4,1,0,3.200000e+00,1
11,897,5,9.241000e+01,24,2,2,1,4.071937e-01,4,1,0,2.100000e+00,1
11,898,5,8.248000e+01,53,2,1,0,1.120384e+00,4,1,0,2.100000e+00,1
11,899,5,2.255000e+01,47,1,1,1,2.498741e-01,4,1,0,1.200000e+00,1
11,900,5,2.473000e+01,22,1,2,0,3.391287e-01,4,1,0,1.200000e+00,1
11,901,5,1.391300e+02,26,3,3,1,2.845383e-01,4,1,0,3.100000e+00,1
11,902,5,6.405000e+01,35,2,2,1,3.823672e-01,4,1,0,2.300000e+00,1
11,903,5,3.764000e+01,10,1,3,0,2.475429e-01,4,1,0,1.200000e+00,1
11,904,5,6.010000e+01,6,2,2,1,2.648094e-01,4,1,0,2.300000e+00,1
11,905,5,1.091900e+02,49,3,3,1,5.623896e-01,4,1,0,3.100000e+00,1
11,906,6,99,52,1,2,0,1.266624e+00,NaN,2,1,3,1
11,907,6,30,19,2,2,1,8.945601e-01,NaN,2,1,1,1
11,908,6,11,16,1,1,1,1.209440e+00,NaN,2,1,1,1
11,909,6,33,31,1,1,1,1.063264e+00,NaN,2,0,1,1
11,910,6,68,58,1,1,1,6.988683e-01,NaN,2,1,2,1
11,911,6,15,65,1,1,1,1.268974e+00,NaN,2,1,1,1
11,912,6,140,2,1,1,1,1.079981e+00,NaN,2,0,3,1
11,913,6,64,10,2,2,1,8.510484e-01,NaN,2,0,2,1
11,914,6,3,62,1,2,0,1.167033e+00,NaN,2,0,1,1
11,915,6,77,43,2,2,1,8.781412e-01,NaN,2,0,2,1
11,916,6,70,69,1,1,1,9.299419e-01,NaN,2,1,2,1
11,917,6,98,64,2,2,1,1.050191e+00,NaN,2,1,3,1
11,918,6,49,14,1,1,1,7.741028e-01,NaN,2,0,2,1
11,919,6,57,67,2,2,1,7.338347e-01,NaN,2,0,2,1
11,920,6,86,44,1,1,1,7.902491e-01,NaN,2,0,2,1
11,921,6,79,17,2,2,1,6.691700e-01,NaN,2,1,2,1
11,922,6,126,55,1,2,0,8.322341e-01,NaN,2,0,3,1
11,923,6,81,56,2,2,1,6.932386e-01,NaN,2,0,2,1
11,924,6,87,28,2,2,1,1.047967e+00,NaN,2,0,2,1
11,925,6,48,53,2,2,1,8.602106e-01,NaN,2,0,1,1
11,926,6,25,13,2,1,0,6.961073e-01,NaN,2,1,1,1
11,927,6,97,5,1,2,0,8.737098e-01,NaN,2,0,3,1
11,928,6,95,70,2,1,0,1.133467e+00,NaN,2,0,2,1
11,929,6,8,61,1,1,1,1.005978e+00,NaN,2,0,1,1
11,930,6,120,45,2,2,1,8.920596e-01,NaN,2,1,3,1
11,931,6,103,29,2,2,1,8.709180e-01,NaN,2,0,3,1
11,932,6,130,20,2,2,1,8.580872e-01,NaN,2,0,3,1
11,933,6,61,71,1,1,1,6.384013e-01,NaN,2,0,2,1
11,934,6,83,40,1,2,0,7.468038e-01,NaN,2,0,2,1
11,935,6,17,41,1,2,0,1.122806e+00,NaN,2,0,1,1
11,936,6,38,11,2,2,1,9.081534e-01,NaN,2,0,1,1
11,937,6,75,23,2,2,1,6.939965e-01,NaN,2,0,2,1
11,938,6,41,24,1,2,0,9.525531e-01,NaN,2,0,1,1
11,939,6,29,48,1,1,1,8.890961e-01,NaN,2,0,1,1
11,940,6,14,7,2,2,1,8.998723e-01,NaN,2,0,1,1
11,941,6,7,68,1,1,1,9.657311e-01,NaN,2,0,1,1
11,942,6,76,30,2,2,1,9.011056e-01,NaN,2,0,2,1
11,943,6,94,21,1,1,1,1.127256e+00,NaN,2,0,2,1
11,944,6,122,33,2,2,1,9.601995e-01,NaN,2,0,3,1
11,945,6,55,47,1,1,1,8.483230e-01,NaN,2,0,2,1
11,946,6,44,27,1,2,0,9.723742e-01,NaN,2,1,1,1
11,947,6,110,6,2,2,1,9.319479e-01,NaN,2,0,3,1
11,948,6,34,57,2,2,1,9.886403e-01,NaN,2,0,1,1
11,949,6,102,38,1,1,1,1.107186e+00,NaN,2,0,3,1
11,950,6,85,34,1,1,1,7.812858e-01,NaN,2,0,2,1
11,951,6,40,46,1,1,1,9.237269e-01,NaN,2,0,1,1
11,952,6,4,15,1,1,1,1.285081e+00,NaN,2,0,1,1
11,953,6,105,35,2,2,1,1.216008e+00,NaN,2,0,3,1
11,954,6,51,8,2,1,0,7.255551e-01,NaN,2,0,2,1
11,955,6,36,54,1,2,0,1.302510e+00,NaN,2,1,1,1
11,956,6,43,59,2,2,1,9.606013e-01,NaN,2,1,1,1
11,957,6,119,50,1,1,1,9.769664e-01,NaN,2,0,3,1
11,958,6,19,49,1,1,1,9.279195e-01,NaN,2,0,1,1
11,959,6,60,4,2,2,1,9.852787e-01,NaN,2,1,2,1
11,960,6,127,1,2,2,1,1.655974e+00,NaN,2,1,3,1
11,961,6,137,60,1,1,1,9.083137e-01,NaN,2,0,3,1
11,962,6,132,72,2,2,1,9.340808e-01,NaN,2,0,3,1
11,963,6,28,42,2,2,1,9.512051e-01,NaN,2,0,1,1
11,964,6,134,36,1,1,1,1.271013e+00,NaN,2,0,3,1
11,965,6,67,32,1,1,1,1.138477e+00,NaN,2,1,2,1
11,966,6,113,51,1,1,1,1.387047e+00,NaN,2,0,3,1
11,967,6,125,9,2,1,0,1.633639e+00,NaN,2,0,3,1
11,968,6,101,63,1,1,1,1.262546e+00,NaN,2,1,3,1
11,969,6,13,26,1,1,1,1.025878e+00,NaN,2,0,1,1
11,970,6,20,25,2,2,1,1.175135e+00,NaN,2,0,1,1
11,971,6,90,3,1,1,1,1.334704e+00,NaN,2,0,2,1
11,972,6,106,18,1,1,1,1.271127e+00,NaN,2,0,3,1
11,973,6,107,37,2,1,0,1.106654e+00,NaN,2,0,3,1
11,974,6,73,22,1,1,1,1.092622e+00,NaN,2,0,2,1
11,975,6,129,12,1,1,1,1.223101e+00,NaN,2,0,3,1
11,976,6,56,66,1,1,1,9.086068e-01,NaN,2,0,2,1
11,977,6,131,39,2,1,0,9.425928e-01,NaN,2,1,3,1
11,978,6,35,12,2,2,1,1.463463e+00,NaN,1,0,1,1
11,979,6,2,14,2,1,0,7.387461e-01,NaN,1,0,1,1
11,980,6,78,27,1,1,1,1.763590e+00,NaN,1,1,2,1
11,981,6,117,40,1,1,1,1.426612e+00,NaN,1,0,3,1
11,982,6,26,20,2,2,1,1.128106e+00,NaN,1,0,1,1
11,983,6,143,56,2,2,1,1.329711e+00,NaN,1,0,3,1
11,984,6,82,53,2,2,1,1.354046e+00,NaN,1,0,2,1
11,985,6,93,48,1,1,1,1.130145e+00,NaN,1,0,2,1
11,986,6,115,68,2,1,0,1.666887e+00,NaN,1,0,3,1
11,987,6,10,2,1,1,1,1.798292e+00,NaN,1,0,1,1
11,988,6,74,37,1,2,0,1.300296e+00,NaN,1,0,2,1
11,989,6,116,65,1,1,1,1.598584e+00,NaN,1,1,3,1
11,990,6,118,30,1,2,0,1.732419e+00,NaN,1,0,3,1
11,991,6,39,4,1,2,0,1.253358e+00,NaN,1,1,1,1
11,992,6,109,49,1,2,0,1.553259e+00,NaN,1,0,3,1
11,993,6,92,24,2,2,1,1.417190e+00,NaN,1,0,2,1
11,994,6,88,38,1,1,1,8.543935e-01,NaN,1,0,2,1
11,995,6,18,36,2,2,1,1.386471e+00,NaN,1,0,1,1
11,996,6,80,50,2,2,1,1.129336e+00,NaN,1,0,2,1
11,997,6,42,39,1,2,0,1.249816e+00,NaN,1,1,1,1
11,998,6,23,8,2,1,0,1.366148e+00,NaN,1,0,1,1
11,999,6,139,26,2,1,0,1.957469e+00,NaN,1,0,3,1
11,1000,6,72,46,2,2,1,8.696560e-01,NaN,1,0,2,1
11,1001,6,89,42,2,2,1,8.327460e-01,NaN,1,0,2,1
11,1002,6,123,7,2,2,1,1.453289e+00,NaN,1,0,3,1
11,1003,6,24,22,2,2,1,1.297798e+00,NaN,1,0,1,1
11,1004,6,133,25,1,1,1,1.555344e+00,NaN,1,0,3,1
11,1005,6,65,63,2,2,1,1.515658e+00,NaN,1,1,2,1
11,1006,6,111,44,1,2,0,1.268791e+00,NaN,1,0,3,1
11,1007,6,121,3,1,1,1,1.200136e+00,NaN,1,0,3,1
11,1008,6,142,34,1,1,1,1.110633e+00,NaN,1,0,3,1
11,1009,6,50,11,2,2,1,9.362710e-01,NaN,1,0,2,1
11,1010,6,108,21,2,2,1,2.304862e+00,NaN,1,0,3,1
11,1011,6,71,31,2,2,1,1.147118e+00,NaN,1,0,2,1
11,1012,6,1,1,1,1,1,1.227080e+00,NaN,1,1,1,1
11,1013,6,66,52,1,1,1,1.336717e+00,NaN,1,1,2,1
11,1014,6,53,64,1,1,1,1.600946e+00,NaN,1,1,2,1
11,1015,6,63,35,1,1,1,1.271262e+00,NaN,1,0,2,1
11,1016,6,47,45,2,1,0,1.330413e+00,NaN,1,1,1,1
11,1017,6,59,6,1,1,1,1.899473e+00,NaN,1,0,2,1
11,1018,6,114,62,2,2,1,1.141099e+00,NaN,1,0,3,1
11,1019,6,91,29,2,2,1,8.619426e-01,NaN,1,0,2,1
11,1020,6,96,51,2,2,1,7.778695e-01,NaN,1,0,2,1
11,1021,6,21,66,2,2,1,1.041401e+00,NaN,1,0,1,1
11,1022,6,54,59,1,1,1,9.103533e-01,NaN,1,1,2,1
11,1023,6,144,13,2,2,1,8.880037e-01,NaN,1,1,3,1
11,1024,6,6,32,2,2,1,1.178699e+00,NaN,1,1,1,1
11,1025,6,58,54,1,1,1,1.057458e+00,NaN,1,1,2,1
11,1026,6,45,67,1,2,0,1.133701e+00,NaN,1,0,1,1
11,1027,6,9,60,1,2,0,1.046153e+00,NaN,1,0,1,1
11,1028,6,32,69,1,2,0,1.226181e+00,NaN,1,1,1,1
11,1029,6,69,19,2,2,1,8.878108e-01,NaN,1,1,2,1
11,1030,6,31,58,2,2,1,1.114432e+00,NaN,1,1,1,1
11,1031,6,112,17,2,2,1,1.548088e+00,NaN,1,1,3,1
11,1032,6,22,47,1,1,1,1.835849e+00,NaN,1,0,1,1
11,1033,6,124,28,2,2,1,1.864647e+00,NaN,1,0,3,1
11,1034,6,128,43,2,2,1,1.555642e+00,NaN,1,0,3,1
11,1035,6,135,61,2,2,1,1.115742e+00,NaN,1,0,3,1
11,1036,6,104,16,1,1,1,1.229099e+00,NaN,1,1,3,1
11,1037,6,5,71,2,2,1,1.241688e+00,NaN,1,0,1,1
11,1038,6,27,9,1,1,1,1.382623e+00,NaN,1,0,1,1
11,1039,6,84,18,2,2,1,1.021051e+00,NaN,1,0,2,1
11,1040,6,100,41,2,2,1,1.210517e+00,NaN,1,0,3,1
11,1041,6,136,15,1,1,1,8.810256e-01,NaN,1,0,3,1
11,1042,6,138,23,2,2,1,1.195239e+00,NaN,1,0,3,1
11,1043,6,37,10,1,1,1,1.210126e+00,NaN,1,0,1,1
11,1044,6,52,5,1,1,1,9.120780e-01,NaN,1,0,2,1
11,1045,6,46,33,1,2,0,1.042576e+00,NaN,1,0,1,1
11,1046,6,141,70,2,2,1,1.086655e+00,NaN,1,0,3,1
11,1047,6,62,57,1,1,1,1.025748e+00,NaN,1,0,2,1
11,1048,6,12,55,2,2,1,1.134993e+00,NaN,1,0,1,1
11,1049,6,16,72,1,2,0,1.039452e+00,NaN,1,0,1,1
