Subject,Trial,Cond,ImageNum,CueNum,Correct,Resp,Accuracy,RT,CueRep,ImageType,Baseline,Category,Block
61,1,1,110,NaN,NaN,1,NaN,3.330349e+00,NaN,2,0,3,1
61,2,1,29,NaN,NaN,1,NaN,7.868757e-01,NaN,1,1,1,1
61,3,1,44,NaN,NaN,1,NaN,9.400212e-01,NaN,0,0,1,1
61,4,1,82,NaN,NaN,1,NaN,2.067381e+00,NaN,0,1,2,1
61,5,1,115,NaN,NaN,1,NaN,9.570800e-01,NaN,2,0,3,1
61,6,1,139,NaN,NaN,2,NaN,1.155328e+00,NaN,2,0,3,1
61,7,1,36,NaN,NaN,1,NaN,5.655970e-01,NaN,1,0,1,1
61,8,1,32,NaN,NaN,1,NaN,2.370249e-01,NaN,2,1,1,1
61,9,1,72,NaN,NaN,1,NaN,1.670664e+00,NaN,1,1,2,1
61,10,1,37,NaN,NaN,1,NaN,1.345742e-01,NaN,0,0,1,1
61,11,1,123,NaN,NaN,1,NaN,6.541375e-01,NaN,0,1,3,1
61,12,1,53,NaN,NaN,1,NaN,3.175746e-01,NaN,0,1,2,1
61,13,1,142,NaN,NaN,1,NaN,1.066554e+00,NaN,0,0,3,1
61,14,1,18,NaN,NaN,1,NaN,1.918809e+00,NaN,0,0,1,1
61,15,1,102,NaN,NaN,1,NaN,2.237327e+00,NaN,2,1,3,1
61,16,1,5,NaN,NaN,1,NaN,4.236358e-01,NaN,0,1,1,1
61,17,1,65,NaN,NaN,1,NaN,4.957316e-01,NaN,1,1,2,1
61,18,1,118,NaN,NaN,1,NaN,3.222342e-01,NaN,0,1,3,1
61,19,1,21,NaN,NaN,1,NaN,1.787343e-01,NaN,0,0,1,1
61,20,1,75,NaN,NaN,1,NaN,3.292082e-01,NaN,2,0,2,1
61,21,1,84,NaN,NaN,1,NaN,3.272976e-01,NaN,2,0,2,1
61,22,1,64,NaN,NaN,1,NaN,8.799603e-01,NaN,1,0,2,1
61,23,1,138,NaN,NaN,1,NaN,8.673630e-01,NaN,2,1,3,1
61,24,1,73,NaN,NaN,1,NaN,1.767971e-01,NaN,0,0,2,1
61,25,1,60,NaN,NaN,1,NaN,6.151962e-01,NaN,0,0,2,1
61,26,1,59,NaN,NaN,1,NaN,2.495335e-01,NaN,0,1,2,1
61,27,1,134,NaN,NaN,1,NaN,2.558336e-01,NaN,0,0,3,1
61,28,1,37,NaN,NaN,1,NaN,3.788794e+00,NaN,1,0,1,1
61,29,1,122,NaN,NaN,1,NaN,1.593836e+00,NaN,0,1,3,1
61,30,1,34,NaN,NaN,1,NaN,9.423529e-01,NaN,0,0,1,1
61,31,1,86,NaN,NaN,1,NaN,7.951532e-01,NaN,0,0,2,1
61,32,1,137,NaN,NaN,1,NaN,4.673371e-01,NaN,2,0,3,1
61,33,1,67,NaN,NaN,1,NaN,1.021744e+00,NaN,2,0,2,1
61,34,1,61,NaN,NaN,2,NaN,4.478047e-01,NaN,2,0,2,1
61,35,1,11,NaN,NaN,1,NaN,2.631992e-01,NaN,0,0,1,1
61,36,1,50,NaN,NaN,1,NaN,6.514471e-01,NaN,1,0,2,1
61,37,1,79,NaN,NaN,1,NaN,1.808170e+00,NaN,1,0,2,1
61,38,1,120,NaN,NaN,1,NaN,7.634642e-01,NaN,2,1,3,1
61,39,1,130,NaN,NaN,1,NaN,4.238925e-01,NaN,1,0,3,1
61,40,1,35,NaN,NaN,1,NaN,5.817205e-01,NaN,2,0,1,1
61,41,1,82,NaN,NaN,1,NaN,8.128326e-01,NaN,1,1,2,1
61,42,1,38,NaN,NaN,1,NaN,1.473573e+00,NaN,1,0,1,1
61,43,1,116,NaN,NaN,1,NaN,1.006132e+00,NaN,1,0,3,1
61,44,1,74,NaN,NaN,1,NaN,4.098827e-01,NaN,0,0,2,1
61,45,1,48,NaN,NaN,1,NaN,2.490172e-01,NaN,0,0,1,1
61,46,1,97,NaN,NaN,1,NaN,4.336144e-01,NaN,1,0,3,1
61,47,1,10,NaN,NaN,1,NaN,4.079230e-01,NaN,2,0,1,1
61,48,1,91,NaN,NaN,1,NaN,1.199334e+00,NaN,0,0,2,1
61,49,1,136,NaN,NaN,1,NaN,3.268535e-01,NaN,2,0,3,1
61,50,1,66,NaN,NaN,1,NaN,1.426288e+00,NaN,0,1,2,1
61,51,1,58,NaN,NaN,1,NaN,1.917445e-01,NaN,1,0,2,1
61,52,1,33,NaN,NaN,1,NaN,2.200482e-01,NaN,1,0,1,1
61,53,1,89,NaN,NaN,1,NaN,7.589627e-01,NaN,1,1,2,1
61,54,1,50,NaN,NaN,1,NaN,2.191965e-01,NaN,0,0,2,1
61,55,1,23,NaN,NaN,1,NaN,4.029752e-01,NaN,0,0,1,1
61,56,1,68,NaN,NaN,1,NaN,6.165967e-01,NaN,0,0,2,1
61,57,1,93,NaN,NaN,1,NaN,7.623986e-01,NaN,2,1,2,1
61,58,1,98,NaN,NaN,1,NaN,3.470354e-01,NaN,1,0,3,1
61,59,1,11,NaN,NaN,2,NaN,7.402316e-01,NaN,2,0,1,1
61,60,1,114,NaN,NaN,1,NaN,6.430916e-01,NaN,2,0,3,1
61,61,1,33,NaN,NaN,1,NaN,6.741867e-01,NaN,0,0,1,1
61,62,1,80,NaN,NaN,1,NaN,8.599680e-01,NaN,2,0,2,1
61,63,1,71,NaN,NaN,1,NaN,2.851402e-01,NaN,0,0,2,1
61,64,1,65,NaN,NaN,1,NaN,2.214727e-01,NaN,0,1,2,1
61,65,1,22,NaN,NaN,1,NaN,5.029055e-01,NaN,0,1,1,1
61,66,1,40,NaN,NaN,1,NaN,1.358873e-01,NaN,0,0,1,1
61,67,1,98,NaN,NaN,1,NaN,5.617573e-01,NaN,0,0,3,1
61,68,1,85,NaN,NaN,1,NaN,3.546151e-01,NaN,1,0,2,1
61,69,1,140,NaN,NaN,1,NaN,5.362234e-01,NaN,2,0,3,1
61,70,1,19,NaN,NaN,1,NaN,6.088628e-01,NaN,0,0,1,1
61,71,1,39,NaN,NaN,1,NaN,8.619274e-01,NaN,0,1,1,1
61,72,1,106,NaN,NaN,1,NaN,1.133552e+00,NaN,1,0,3,1
61,73,1,143,NaN,NaN,1,NaN,2.475801e-01,NaN,0,0,3,1
61,74,1,30,NaN,NaN,1,NaN,5.651203e-01,NaN,0,0,1,1
61,75,1,3,NaN,NaN,1,NaN,3.996814e-01,NaN,2,0,1,1
61,76,1,12,NaN,NaN,1,NaN,7.718249e-01,NaN,1,1,1,1
61,77,1,135,NaN,NaN,1,NaN,5.969750e-01,NaN,0,0,3,1
61,78,1,20,NaN,NaN,1,NaN,3.092346e-01,NaN,2,0,1,1
61,79,1,47,NaN,NaN,1,NaN,2.859979e-01,NaN,0,0,1,1
61,80,1,121,NaN,NaN,2,NaN,8.376675e-01,NaN,2,0,3,1
61,81,1,132,NaN,NaN,1,NaN,2.051759e-01,NaN,2,1,3,1
61,82,1,118,NaN,NaN,1,NaN,4.161868e-01,NaN,1,1,3,1
61,83,1,53,NaN,NaN,1,NaN,1.103031e+00,NaN,2,1,2,1
61,84,1,64,NaN,NaN,1,NaN,2.811027e+00,NaN,0,0,2,1
61,85,1,124,NaN,NaN,1,NaN,1.698063e+00,NaN,0,0,3,1
61,86,1,46,NaN,NaN,1,NaN,3.093013e-01,NaN,0,0,1,1
61,87,1,133,NaN,NaN,2,NaN,5.389362e-01,NaN,0,0,3,1
61,88,1,124,NaN,NaN,1,NaN,6.667103e+00,NaN,1,0,3,1
61,89,1,21,NaN,NaN,1,NaN,1.044112e+00,NaN,1,0,1,1
61,90,1,55,NaN,NaN,1,NaN,1.119221e+00,NaN,0,0,2,1
61,91,1,19,NaN,NaN,2,NaN,9.288247e-01,NaN,1,0,1,1
61,92,1,25,NaN,NaN,1,NaN,4.439377e-01,NaN,0,0,1,1
61,93,1,95,NaN,NaN,1,NaN,1.721526e-01,NaN,0,0,2,1
61,94,1,131,NaN,NaN,1,NaN,6.244838e-01,NaN,0,0,3,1
61,95,1,27,NaN,NaN,1,NaN,5.084957e-01,NaN,0,0,1,1
61,96,1,128,NaN,NaN,1,NaN,1.146411e+00,NaN,2,0,3,1
61,97,1,96,NaN,NaN,1,NaN,7.174508e-01,NaN,2,0,2,1
61,98,1,107,NaN,NaN,1,NaN,2.006306e-01,NaN,1,0,3,1
61,99,1,49,NaN,NaN,1,NaN,1.795487e+00,NaN,2,0,2,1
61,100,1,109,NaN,NaN,1,NaN,1.314534e+00,NaN,0,0,3,1
61,101,1,63,NaN,NaN,1,NaN,6.494000e-01,NaN,0,0,2,1
61,102,1,54,NaN,NaN,1,NaN,4.190609e-01,NaN,2,0,2,1
61,103,1,114,NaN,NaN,1,NaN,2.281207e-01,NaN,0,0,3,1
61,104,1,94,NaN,NaN,1,NaN,1.454388e-01,NaN,0,0,2,1
61,105,1,99,NaN,NaN,1,NaN,1.959178e+00,NaN,0,0,3,1
61,106,1,90,NaN,NaN,1,NaN,1.974362e+00,NaN,2,0,2,1
61,107,1,61,NaN,NaN,1,NaN,2.956853e-01,NaN,0,0,2,1
61,108,1,84,NaN,NaN,2,NaN,5.212929e-01,NaN,0,0,2,1
61,109,1,71,NaN,NaN,1,NaN,3.188730e+00,NaN,2,0,2,1
61,110,1,18,NaN,NaN,1,NaN,1.658412e+00,NaN,1,0,1,1
61,111,1,24,NaN,NaN,1,NaN,2.996874e-01,NaN,0,0,1,1
61,112,1,127,NaN,NaN,1,NaN,8.205099e-01,NaN,0,1,3,1
61,113,1,113,NaN,NaN,1,NaN,6.753100e-01,NaN,1,0,3,1
61,114,1,121,NaN,NaN,1,NaN,1.121395e+00,NaN,0,0,3,1
61,115,1,52,NaN,NaN,1,NaN,1.646319e-01,NaN,2,1,2,1
61,116,1,109,NaN,NaN,1,NaN,6.241889e-01,NaN,1,0,3,1
61,117,1,42,NaN,NaN,1,NaN,2.012771e+00,NaN,1,0,1,1
61,118,1,9,NaN,NaN,1,NaN,4.301349e-01,NaN,0,0,1,1
61,119,1,115,NaN,NaN,1,NaN,4.260134e-01,NaN,0,0,3,1
61,120,1,95,NaN,NaN,1,NaN,3.494065e-01,NaN,1,0,2,1
61,121,1,14,NaN,NaN,1,NaN,3.789232e-01,NaN,0,1,1,1
61,122,1,42,NaN,NaN,1,NaN,1.255494e+00,NaN,0,0,1,1
61,123,1,32,NaN,NaN,1,NaN,1.104633e+00,NaN,0,1,1,1
61,124,1,1,NaN,NaN,1,NaN,1.504918e+00,NaN,2,1,1,1
61,125,1,131,NaN,NaN,1,NaN,2.893546e-01,NaN,2,0,3,1
61,126,1,107,NaN,NaN,1,NaN,1.187337e+00,NaN,0,0,3,1
61,127,1,126,NaN,NaN,1,NaN,1.111426e+00,NaN,0,0,3,1
61,128,1,7,NaN,NaN,1,NaN,5.815768e-01,NaN,2,1,1,1
61,129,1,35,NaN,NaN,1,NaN,4.336833e-01,NaN,0,0,1,1
61,130,1,16,NaN,NaN,1,NaN,4.157169e-01,NaN,0,1,1,1
61,131,1,28,NaN,NaN,1,NaN,5.577332e+00,NaN,0,0,1,1
61,132,1,12,NaN,NaN,1,NaN,4.691965e-01,NaN,0,1,1,1
61,133,1,43,NaN,NaN,1,NaN,1.331810e+00,NaN,1,0,1,1
61,134,1,117,NaN,NaN,1,NaN,7.651575e-01,NaN,1,0,3,1
61,135,1,96,NaN,NaN,1,NaN,7.931948e-01,NaN,0,0,2,1
61,136,1,4,NaN,NaN,1,NaN,3.974315e-01,NaN,0,0,1,1
61,137,1,83,NaN,NaN,1,NaN,6.510124e-01,NaN,0,0,2,1
61,138,1,22,NaN,NaN,1,NaN,8.330812e-01,NaN,1,1,1,1
61,139,1,46,NaN,NaN,1,NaN,4.531298e-01,NaN,2,0,1,1
61,140,1,29,NaN,NaN,1,NaN,5.483968e-01,NaN,0,1,1,1
61,141,1,134,NaN,NaN,1,NaN,7.139977e-01,NaN,2,0,3,1
61,142,1,101,NaN,NaN,1,NaN,4.687406e-01,NaN,0,0,3,1
61,143,1,141,NaN,NaN,1,NaN,7.957182e-01,NaN,0,0,3,1
61,144,1,78,NaN,NaN,1,NaN,1.502323e-01,NaN,2,0,2,1
61,145,1,87,NaN,NaN,1,NaN,2.242878e+00,NaN,1,0,2,1
61,146,1,77,NaN,NaN,1,NaN,1.037383e+00,NaN,0,1,2,1
61,147,1,14,NaN,NaN,2,NaN,4.127916e-01,NaN,2,1,1,1
61,148,1,1,NaN,NaN,1,NaN,1.193513e+00,NaN,0,1,1,1
61,149,1,108,NaN,NaN,1,NaN,1.150453e+00,NaN,0,0,3,1
61,150,1,26,NaN,NaN,1,NaN,7.587791e-01,NaN,2,0,1,1
61,151,1,17,NaN,NaN,1,NaN,6.373695e-01,NaN,2,0,1,1
61,152,1,129,NaN,NaN,1,NaN,1.658824e+00,NaN,0,1,3,1
61,153,1,120,NaN,NaN,1,NaN,3.284152e-01,NaN,0,1,3,1
61,154,1,111,NaN,NaN,1,NaN,2.787166e-01,NaN,1,1,3,1
61,155,1,108,NaN,NaN,1,NaN,5.437966e-01,NaN,1,0,3,1
61,156,1,15,NaN,NaN,1,NaN,2.456113e-01,NaN,0,0,1,1
61,157,1,91,NaN,NaN,1,NaN,1.963448e-01,NaN,1,0,2,1
61,158,1,48,NaN,NaN,1,NaN,1.264922e+00,NaN,2,0,1,1
61,159,1,99,NaN,NaN,1,NaN,4.452089e+00,NaN,1,0,3,1
61,160,1,80,NaN,NaN,1,NaN,5.143243e-01,NaN,0,0,2,1
61,161,1,88,NaN,NaN,1,NaN,6.509729e-01,NaN,0,0,2,1
61,162,1,117,NaN,NaN,1,NaN,1.785799e-01,NaN,0,0,3,1
61,163,1,24,NaN,NaN,1,NaN,1.106030e+00,NaN,2,0,1,1
61,164,1,90,NaN,NaN,1,NaN,2.002371e+00,NaN,0,0,2,1
61,165,1,8,NaN,NaN,1,NaN,7.110173e-01,NaN,2,0,1,1
61,166,1,143,NaN,NaN,1,NaN,6.158705e-01,NaN,2,0,3,1
61,167,1,13,NaN,NaN,1,NaN,2.724154e-01,NaN,2,0,1,1
61,168,1,70,NaN,NaN,1,NaN,2.855446e-01,NaN,2,0,2,1
61,169,1,105,NaN,NaN,1,NaN,3.306211e-01,NaN,1,0,3,1
61,170,1,23,NaN,NaN,1,NaN,1.298920e+00,NaN,1,0,1,1
61,171,1,141,NaN,NaN,1,NaN,8.607145e-01,NaN,1,0,3,1
61,172,1,27,NaN,NaN,1,NaN,1.435778e-01,NaN,1,0,1,1
61,173,1,31,NaN,NaN,2,NaN,2.319581e+00,NaN,1,1,1,1
61,174,1,40,NaN,NaN,1,NaN,2.709890e-01,NaN,2,0,1,1
61,175,1,94,NaN,NaN,1,NaN,3.683354e-01,NaN,1,0,2,1
61,176,1,89,NaN,NaN,1,NaN,9.091148e-01,NaN,0,1,2,1
61,177,1,92,NaN,NaN,1,NaN,1.446451e+00,NaN,1,0,2,1
61,178,1,132,NaN,NaN,1,NaN,1.407053e-01,NaN,0,1,3,1
61,179,1,105,NaN,NaN,1,NaN,2.936197e-01,NaN,0,0,3,1
61,180,1,127,NaN,NaN,1,NaN,8.267967e-01,NaN,1,1,3,1
61,181,1,76,NaN,NaN,1,NaN,1.209421e+00,NaN,0,0,2,1
61,182,1,44,NaN,NaN,1,NaN,6.309721e-01,NaN,1,0,1,1
61,183,1,112,NaN,NaN,1,NaN,2.784693e+00,NaN,0,1,3,1
61,184,1,62,NaN,NaN,1,NaN,6.468047e+00,NaN,2,0,2,1
61,185,1,122,NaN,NaN,1,NaN,3.612074e-01,NaN,2,1,3,1
61,186,1,15,NaN,NaN,1,NaN,6.344725e-01,NaN,2,0,1,1
61,187,1,25,NaN,NaN,1,NaN,4.922248e-01,NaN,1,0,1,1
61,188,1,78,NaN,NaN,1,NaN,3.522912e-01,NaN,0,0,2,1
61,189,1,67,NaN,NaN,1,NaN,4.940815e+00,NaN,0,0,2,1
61,190,1,75,NaN,NaN,1,NaN,3.090516e-01,NaN,0,0,2,1
61,191,1,20,NaN,NaN,1,NaN,2.659074e-01,NaN,0,0,1,1
61,192,1,129,NaN,NaN,1,NaN,3.235800e+00,NaN,2,1,3,1
61,193,1,93,NaN,NaN,1,NaN,3.949116e-01,NaN,0,1,2,1
61,194,1,86,NaN,NaN,1,NaN,5.547901e-01,NaN,1,0,2,1
61,195,1,73,NaN,NaN,1,NaN,4.480875e-01,NaN,1,0,2,1
61,196,1,41,NaN,NaN,1,NaN,2.000312e+00,NaN,2,0,1,1
61,197,1,81,NaN,NaN,1,NaN,6.811031e-01,NaN,0,0,2,1
61,198,1,88,NaN,NaN,1,NaN,6.648814e-01,NaN,2,0,2,1
61,199,1,110,NaN,NaN,1,NaN,8.268491e-01,NaN,0,0,3,1
61,200,1,13,NaN,NaN,1,NaN,2.573743e-01,NaN,0,0,1,1
61,201,1,49,NaN,NaN,1,NaN,6.028468e-01,NaN,0,0,2,1
61,202,1,5,NaN,NaN,1,NaN,1.692479e-01,NaN,1,1,1,1
61,203,1,76,NaN,NaN,2,NaN,1.140716e+00,NaN,2,0,2,1
61,204,1,55,NaN,NaN,1,NaN,3.768591e-01,NaN,1,0,2,1
61,205,1,79,NaN,NaN,1,NaN,3.250550e-01,NaN,0,0,2,1
61,206,1,125,NaN,NaN,1,NaN,4.711547e-01,NaN,0,1,3,1
61,207,1,68,NaN,NaN,1,NaN,4.376450e-01,NaN,2,0,2,1
61,208,1,103,NaN,NaN,1,NaN,4.854532e+00,NaN,2,1,3,1
61,209,1,57,NaN,NaN,1,NaN,4.213946e-01,NaN,2,0,2,1
61,210,1,119,NaN,NaN,1,NaN,8.529059e-01,NaN,0,1,3,1
61,211,1,101,NaN,NaN,1,NaN,3.039890e-01,NaN,1,0,3,1
61,212,1,144,NaN,NaN,1,NaN,2.221101e+00,NaN,0,0,3,1
61,213,1,59,NaN,NaN,2,NaN,9.345544e-01,NaN,1,1,2,1
61,214,1,62,NaN,NaN,1,NaN,2.947491e+00,NaN,0,0,2,1
61,215,1,133,NaN,NaN,1,NaN,1.813117e-01,NaN,1,0,3,1
61,216,1,142,NaN,NaN,1,NaN,4.209177e-01,NaN,2,0,3,1
61,217,1,92,NaN,NaN,1,NaN,2.304956e-01,NaN,0,0,2,1
61,218,1,85,NaN,NaN,1,NaN,2.278655e+00,NaN,0,0,2,1
61,219,1,36,NaN,NaN,1,NaN,5.997148e-01,NaN,0,0,1,1
61,220,1,4,NaN,NaN,1,NaN,1.199375e+00,NaN,1,0,1,1
61,221,1,135,NaN,NaN,1,NaN,1.937229e+00,NaN,1,0,3,1
61,222,1,66,NaN,NaN,1,NaN,2.930268e+00,NaN,2,1,2,1
61,223,1,111,NaN,NaN,1,NaN,7.727057e-01,NaN,0,1,3,1
61,224,1,6,NaN,NaN,1,NaN,1.334597e+00,NaN,1,0,1,1
61,225,1,51,NaN,NaN,1,NaN,7.940905e-01,NaN,1,0,2,1
61,226,1,51,NaN,NaN,2,NaN,1.618034e-01,NaN,0,0,2,1
61,227,1,77,NaN,NaN,1,NaN,4.335296e-01,NaN,1,1,2,1
61,228,1,63,NaN,NaN,1,NaN,3.662097e+00,NaN,1,0,2,1
61,229,1,38,NaN,NaN,1,NaN,7.930730e-01,NaN,0,0,1,1
61,230,1,54,NaN,NaN,1,NaN,4.534524e+00,NaN,0,0,2,1
61,231,1,97,NaN,NaN,2,NaN,6.507484e-01,NaN,0,0,3,1
61,232,1,70,NaN,NaN,1,NaN,1.143902e+00,NaN,0,0,2,1
61,233,1,39,NaN,NaN,1,NaN,1.261263e+00,NaN,2,1,1,1
61,234,1,16,NaN,NaN,1,NaN,1.072260e+00,NaN,1,1,1,1
61,235,1,56,NaN,NaN,1,NaN,2.252380e+00,NaN,2,0,2,1
61,236,1,45,NaN,NaN,1,NaN,1.669047e+00,NaN,2,0,1,1
61,237,1,106,NaN,NaN,1,NaN,2.307537e-01,NaN,0,0,3,1
61,238,1,125,NaN,NaN,1,NaN,5.320327e-01,NaN,2,1,3,1
61,239,1,137,NaN,NaN,1,NaN,7.742436e-01,NaN,0,0,3,1
61,240,1,113,NaN,NaN,1,NaN,4.438112e-01,NaN,0,0,3,1
61,241,1,56,NaN,NaN,1,NaN,4.562027e-01,NaN,0,0,2,1
61,242,1,47,NaN,NaN,1,NaN,4.493254e-01,NaN,2,0,1,1
61,243,1,119,NaN,NaN,1,NaN,1.393421e+00,NaN,1,1,3,1
61,244,1,58,NaN,NaN,2,NaN,8.103280e-01,NaN,0,0,2,1
61,245,1,60,NaN,NaN,1,NaN,5.162980e-01,NaN,1,0,2,1
61,246,1,31,NaN,NaN,1,NaN,1.444280e+00,NaN,0,1,1,1
61,247,1,100,NaN,NaN,1,NaN,1.772325e-01,NaN,1,0,3,1
61,248,1,57,NaN,NaN,1,NaN,1.867973e+00,NaN,0,0,2,1
61,249,1,9,NaN,NaN,1,NaN,1.107736e+00,NaN,2,0,1,1
61,250,1,139,NaN,NaN,1,NaN,2.938377e+00,NaN,0,0,3,1
61,251,1,81,NaN,NaN,1,NaN,1.333877e-01,NaN,2,0,2,1
61,252,1,69,NaN,NaN,1,NaN,3.442186e+00,NaN,1,0,2,1
61,253,1,103,NaN,NaN,1,NaN,1.053359e+00,NaN,0,1,3,1
61,254,1,144,NaN,NaN,1,NaN,1.050549e+00,NaN,1,0,3,1
61,255,1,26,NaN,NaN,1,NaN,6.765520e-01,NaN,0,0,1,1
61,256,1,136,NaN,NaN,1,NaN,6.921458e-01,NaN,0,0,3,1
61,257,1,17,NaN,NaN,1,NaN,3.258101e-01,NaN,0,0,1,1
61,258,1,69,NaN,NaN,1,NaN,1.032925e+00,NaN,0,0,2,1
61,259,1,83,NaN,NaN,1,NaN,9.690393e-01,NaN,1,0,2,1
61,260,1,52,NaN,NaN,1,NaN,9.599144e-01,NaN,0,1,2,1
61,261,1,72,NaN,NaN,1,NaN,2.302490e+00,NaN,0,1,2,1
61,262,1,138,NaN,NaN,1,NaN,4.346259e-01,NaN,0,1,3,1
61,263,1,128,NaN,NaN,1,NaN,5.931904e-01,NaN,0,0,3,1
61,264,1,3,NaN,NaN,1,NaN,9.941368e-01,NaN,0,0,1,1
61,265,1,100,NaN,NaN,1,NaN,8.242213e-01,NaN,0,0,3,1
61,266,1,104,NaN,NaN,1,NaN,7.041122e-01,NaN,0,0,3,1
61,267,1,2,NaN,NaN,1,NaN,7.670813e-01,NaN,1,1,1,1
61,268,1,116,NaN,NaN,1,NaN,1.854998e-01,NaN,0,0,3,1
61,269,1,126,NaN,NaN,1,NaN,8.503250e-01,NaN,2,0,3,1
61,270,1,123,NaN,NaN,1,NaN,4.501411e-01,NaN,1,1,3,1
61,271,1,112,NaN,NaN,1,NaN,9.901640e-01,NaN,2,1,3,1
61,272,1,74,NaN,NaN,1,NaN,2.853504e+00,NaN,2,0,2,1
61,273,1,30,NaN,NaN,1,NaN,1.000378e+00,NaN,2,0,1,1
61,274,1,6,NaN,NaN,1,NaN,2.840952e+00,NaN,0,0,1,1
61,275,1,41,NaN,NaN,1,NaN,5.847313e-01,NaN,0,0,1,1
61,276,1,104,NaN,NaN,1,NaN,5.187082e-01,NaN,2,0,3,1
61,277,1,45,NaN,NaN,1,NaN,8.970920e-01,NaN,0,0,1,1
61,278,1,7,NaN,NaN,1,NaN,3.031595e+00,NaN,0,1,1,1
61,279,1,10,NaN,NaN,1,NaN,6.670343e-01,NaN,0,0,1,1
61,280,1,130,NaN,NaN,1,NaN,7.965659e-01,NaN,0,0,3,1
61,281,1,8,NaN,NaN,1,NaN,1.481766e+00,NaN,0,0,1,1
61,282,1,140,NaN,NaN,1,NaN,3.267540e+00,NaN,0,0,3,1
61,283,1,28,NaN,NaN,1,NaN,2.483857e-01,NaN,1,0,1,1
61,284,1,43,NaN,NaN,1,NaN,7.898782e-01,NaN,0,0,1,1
61,285,1,2,NaN,NaN,1,NaN,8.496125e-01,NaN,0,1,1,1
61,286,1,87,NaN,NaN,1,NaN,7.714040e-01,NaN,0,0,2,1
61,287,1,102,NaN,NaN,1,NaN,6.521817e-01,NaN,0,1,3,1
61,288,1,34,NaN,NaN,1,NaN,1.436319e+00,NaN,1,0,1,1
61,327,2,6,38,1,1,1,2.483315e-01,NaN,1,0,1,1
61,328,2,43,26,2,2,1,2.131577e+00,NaN,1,0,1,1
61,329,2,141,66,1,1,1,5.350795e-01,NaN,1,0,3,1
61,330,2,98,48,2,2,1,5.901151e-01,NaN,1,0,3,1
61,331,2,73,3,1,1,1,3.466701e-01,NaN,1,0,2,1
61,332,2,36,47,1,1,1,8.431519e-01,NaN,1,0,1,1
61,333,2,83,61,2,2,1,1.534070e+00,NaN,1,0,2,1
61,334,2,118,59,2,2,1,6.544823e-01,NaN,1,1,3,1
61,335,2,106,72,2,2,1,2.065517e+00,NaN,1,0,3,1
61,336,2,65,29,1,1,1,4.481548e-01,NaN,1,1,2,1
61,337,2,5,31,1,1,1,4.818958e-01,NaN,1,1,1,1
61,338,2,77,35,2,2,1,1.224110e+00,NaN,1,1,2,1
61,339,2,23,54,2,2,1,1.610436e+00,NaN,1,0,1,1
61,340,2,97,22,2,2,1,1.114795e+00,NaN,1,0,3,1
61,341,2,63,28,2,1,0,5.435012e-01,NaN,1,0,2,1
61,342,2,4,16,1,2,0,1.413978e+00,NaN,1,0,1,1
61,343,2,21,68,2,2,1,5.420844e+00,NaN,1,0,1,1
61,344,2,33,4,2,2,1,2.379589e-01,NaN,1,0,1,1
61,345,2,89,51,2,1,0,4.122012e-01,NaN,1,1,2,1
61,346,2,87,30,2,1,0,5.575982e+00,NaN,1,0,2,1
61,347,2,28,56,1,1,1,1.503292e+00,NaN,1,0,1,1
61,348,2,37,32,1,1,1,4.768576e-01,NaN,1,0,1,1
61,349,2,116,19,1,1,1,4.206119e+00,NaN,1,0,3,1
61,350,2,59,53,1,2,0,1.537156e-01,NaN,1,1,2,1
61,351,3,6,38,1,1,1,3.931147e-01,NaN,1,0,1,1
61,352,3,106,72,1,1,1,6.866578e-01,NaN,1,0,3,1
61,353,3,5,31,1,2,0,9.034621e-01,NaN,1,1,1,1
61,354,3,87,30,1,1,1,6.806784e-01,NaN,1,0,2,1
61,355,3,83,61,2,2,1,6.532918e-01,NaN,1,0,2,1
61,356,3,4,16,1,2,0,2.231499e-01,NaN,1,0,1,1
61,357,3,118,59,2,1,0,2.714805e+00,NaN,1,1,3,1
61,358,3,141,66,1,2,0,5.852836e-01,NaN,1,0,3,1
61,359,3,37,32,2,2,1,2.040468e+00,NaN,1,0,1,1
61,360,3,36,47,2,2,1,9.322325e-01,NaN,1,0,1,1
61,361,3,89,51,2,1,0,7.769768e-01,NaN,1,1,2,1
61,362,3,116,19,1,2,0,3.950368e-01,NaN,1,0,3,1
61,363,3,73,3,2,2,1,1.207193e+00,NaN,1,0,2,1
61,364,3,23,54,2,2,1,2.358545e-01,NaN,1,0,1,1
61,365,3,63,28,2,2,1,2.315572e-01,NaN,1,0,2,1
61,366,3,77,35,1,1,1,1.786544e+00,NaN,1,1,2,1
61,367,3,98,48,1,2,0,1.149786e+00,NaN,1,0,3,1
61,368,3,21,68,2,2,1,1.979312e-01,NaN,1,0,1,1
61,369,3,97,22,1,1,1,5.584841e-01,NaN,1,0,3,1
61,370,3,28,56,1,1,1,7.819523e-01,NaN,1,0,1,1
61,371,3,33,4,1,1,1,8.287298e-01,NaN,1,0,1,1
61,372,3,43,26,2,2,1,1.475009e+00,NaN,1,0,1,1
61,373,3,59,53,2,1,0,3.471573e-01,NaN,1,1,2,1
61,374,3,65,29,2,2,1,9.796663e-01,NaN,1,1,2,1
61,399,2,31,45,2,2,1,6.821148e-01,NaN,1,1,1,2
61,400,2,92,57,2,1,0,1.707583e-01,NaN,1,0,2,2
61,401,2,38,42,1,2,0,1.210809e+00,NaN,1,0,1,2
61,402,2,60,63,1,1,1,7.209407e-01,NaN,1,0,2,2
61,403,2,16,40,2,2,1,1.073146e+00,NaN,1,1,1,2
61,404,2,44,43,2,2,1,1.514754e-01,NaN,1,0,1,2
61,405,2,50,27,1,1,1,1.298326e+00,NaN,1,0,2,2
61,406,2,109,60,2,1,0,3.538473e-01,NaN,1,0,3,2
61,407,2,29,1,1,1,1,2.042862e+00,NaN,1,1,1,2
61,408,2,91,65,2,1,0,1.380244e+00,NaN,1,0,2,2
61,409,2,86,20,2,2,1,5.259290e-01,NaN,1,0,2,2
61,410,2,72,70,2,2,1,3.862580e+00,NaN,1,1,2,2
61,411,2,117,17,1,1,1,7.277057e-01,NaN,1,0,3,2
61,412,2,25,24,1,1,1,5.785558e-01,NaN,1,0,1,2
61,413,2,124,41,2,2,1,7.436781e-01,NaN,1,0,3,2
61,414,2,127,13,2,2,1,5.599759e-01,NaN,1,1,3,2
61,415,2,133,67,2,2,1,3.501550e-01,NaN,1,0,3,2
61,416,2,42,55,2,2,1,6.941902e-01,NaN,1,0,1,2
61,417,2,95,6,2,2,1,4.582200e-01,NaN,1,0,2,2
61,418,2,123,21,2,2,1,2.086266e-01,NaN,1,1,3,2
61,419,2,79,62,1,2,0,2.129803e+00,NaN,1,0,2,2
61,420,2,19,15,2,2,1,8.678846e-01,NaN,1,0,1,2
61,421,2,108,9,1,2,0,3.529878e-01,NaN,1,0,3,2
61,422,2,64,64,2,1,0,7.729793e-01,NaN,1,0,2,2
61,423,3,31,45,2,1,0,2.700279e-01,NaN,1,1,1,2
61,424,3,25,24,1,1,1,5.365120e-01,NaN,1,0,1,2
61,425,3,95,6,1,1,1,7.059933e-01,NaN,1,0,2,2
61,426,3,19,15,1,1,1,4.237782e-01,NaN,1,0,1,2
61,427,3,91,65,2,2,1,9.260978e-01,NaN,1,0,2,2
61,428,3,38,42,1,1,1,2.909926e-01,NaN,1,0,1,2
61,429,3,86,20,1,2,0,1.475583e+00,NaN,1,0,2,2
61,430,3,44,43,2,2,1,1.555866e-01,NaN,1,0,1,2
61,431,3,123,21,1,2,0,3.859038e-01,NaN,1,1,3,2
61,432,3,72,70,2,2,1,4.451159e-01,NaN,1,1,2,2
61,433,3,127,13,2,2,1,2.011691e-01,NaN,1,1,3,2
61,434,3,60,63,1,1,1,5.476368e-01,NaN,1,0,2,2
61,435,3,16,40,1,2,0,2.839431e-01,NaN,1,1,1,2
61,436,3,117,17,1,1,1,3.650983e+00,NaN,1,0,3,2
61,437,3,124,41,2,1,0,9.418113e-01,NaN,1,0,3,2
61,438,3,133,67,1,1,1,9.892640e-01,NaN,1,0,3,2
61,439,3,79,62,2,2,1,4.133992e-01,NaN,1,0,2,2
61,440,3,108,9,1,1,1,2.260151e-01,NaN,1,0,3,2
61,441,3,64,64,2,1,0,4.053806e-01,NaN,1,0,2,2
61,442,3,92,57,2,1,0,1.634120e-01,NaN,1,0,2,2
61,443,3,50,27,1,2,0,2.746653e-01,NaN,1,0,2,2
61,444,3,42,55,2,1,0,1.417403e+00,NaN,1,0,1,2
61,445,3,109,60,2,1,0,1.541756e+00,NaN,1,0,3,2
61,446,3,29,1,1,2,0,1.323611e+00,NaN,1,1,1,2
61,471,2,135,49,1,2,0,8.346985e-01,NaN,1,0,3,3
61,472,2,34,2,1,1,1,6.259731e-01,NaN,1,0,1,3
61,473,2,101,12,1,1,1,1.660485e+00,NaN,1,0,3,3
61,474,2,12,8,2,1,0,1.849773e+00,NaN,1,1,1,3
61,475,2,22,7,2,1,0,2.676936e+00,NaN,1,1,1,3
61,476,2,58,50,2,2,1,2.107768e-01,NaN,1,0,2,3
61,477,2,27,11,1,1,1,2.695504e-01,NaN,1,0,1,3
61,478,2,2,71,2,2,1,7.828091e-01,NaN,1,1,1,3
61,479,2,144,33,2,2,1,3.507968e-01,NaN,1,0,3,3
61,480,2,119,18,1,2,0,2.837381e-01,NaN,1,1,3,3
61,481,2,105,37,1,1,1,1.546786e+00,NaN,1,0,3,3
61,482,2,107,36,2,2,1,7.789034e-01,NaN,1,0,3,3
61,483,2,69,58,1,1,1,8.558809e-01,NaN,1,0,2,3
61,484,2,113,69,2,2,1,6.231120e-01,NaN,1,0,3,3
61,485,2,85,14,2,1,0,2.701614e+00,NaN,1,0,2,3
61,486,2,18,46,1,1,1,7.761641e-01,NaN,1,0,1,3
61,487,2,130,44,2,2,1,5.571717e-01,NaN,1,0,3,3
61,488,2,82,5,2,1,0,1.196344e+00,NaN,1,1,2,3
61,489,2,99,25,2,2,1,2.139909e-01,NaN,1,0,3,3
61,490,2,51,23,2,1,0,2.317450e-01,NaN,1,0,2,3
61,491,2,111,34,1,1,1,3.171083e-01,NaN,1,1,3,3
61,492,2,100,52,1,1,1,2.174377e+00,NaN,1,0,3,3
61,493,2,55,10,2,1,0,8.599868e-01,NaN,1,0,2,3
61,494,2,94,39,2,2,1,2.263714e+00,NaN,1,0,2,3
61,495,3,69,58,1,1,1,3.181123e-01,NaN,1,0,2,3
61,496,3,22,7,1,1,1,8.880757e-01,NaN,1,1,1,3
61,497,3,18,46,2,2,1,2.958056e-01,NaN,1,0,1,3
61,498,3,111,34,2,2,1,9.534631e-01,NaN,1,1,3,3
61,499,3,34,2,2,2,1,1.209720e+00,NaN,1,0,1,3
61,500,3,94,39,1,1,1,9.152574e-01,NaN,1,0,2,3
61,501,3,58,50,2,2,1,3.975062e-01,NaN,1,0,2,3
61,502,3,100,52,1,1,1,1.527160e+00,NaN,1,0,3,3
61,503,3,85,14,1,2,0,2.870442e-01,NaN,1,0,2,3
61,504,3,144,33,2,2,1,2.659758e-01,NaN,1,0,3,3
61,505,3,12,8,2,1,0,1.304136e+00,NaN,1,1,1,3
61,506,3,82,5,1,1,1,7.131722e-01,NaN,1,1,2,3
61,507,3,119,18,1,2,0,2.015368e-01,NaN,1,1,3,3
61,508,3,55,10,1,1,1,7.893555e-01,NaN,1,0,2,3
61,509,3,27,11,1,1,1,3.936419e-01,NaN,1,0,1,3
61,510,3,135,49,2,2,1,1.299171e+00,NaN,1,0,3,3
61,511,3,107,36,2,2,1,7.483818e-01,NaN,1,0,3,3
61,512,3,105,37,1,1,1,6.254213e-01,NaN,1,0,3,3
61,513,3,101,12,2,2,1,3.183223e-01,NaN,1,0,3,3
61,514,3,113,69,1,1,1,1.123809e-01,NaN,1,0,3,3
61,515,3,51,23,1,2,0,1.001645e+00,NaN,1,0,2,3
61,516,3,130,44,1,1,1,1.455700e-01,NaN,1,0,3,3
61,517,3,99,25,1,2,0,2.357859e+00,NaN,1,0,3,3
61,518,3,2,71,1,1,1,2.902832e-01,NaN,1,1,1,3
61,543,4,15,3,1,1,1,1.207203e+00,NaN,2,0,1,1
61,544,4,40,12,2,2,1,1.063188e-01,NaN,2,0,1,1
61,545,4,121,46,2,1,0,3.824657e-01,NaN,2,0,3,1
61,546,4,52,13,2,2,1,1.186622e+00,NaN,2,1,2,1
61,547,4,13,64,1,2,0,7.096871e-01,NaN,2,0,1,1
61,548,4,57,67,1,1,1,3.605223e-01,NaN,2,0,2,1
61,549,4,32,18,1,1,1,1.035566e+00,NaN,2,1,1,1
61,550,4,35,17,1,2,0,4.666347e-01,NaN,2,0,1,1
61,551,4,70,37,1,1,1,8.650323e-01,NaN,2,0,2,1
61,552,4,102,45,2,2,1,5.605608e-01,NaN,2,1,3,1
61,553,4,26,19,2,2,1,7.453190e-01,NaN,2,0,1,1
61,554,4,67,25,2,2,1,1.793661e+00,NaN,2,0,2,1
61,555,4,8,39,1,1,1,6.875010e-01,NaN,2,0,1,1
61,556,4,132,53,1,1,1,1.886794e-01,NaN,2,1,3,1
61,557,4,88,11,2,1,0,1.453207e-01,NaN,2,0,2,1
61,558,4,61,9,2,2,1,1.793428e+00,NaN,2,0,2,1
61,559,4,56,33,1,1,1,2.601055e-01,NaN,2,0,2,1
61,560,4,62,60,1,1,1,3.623178e-01,NaN,2,0,2,1
61,561,4,138,51,2,1,0,2.001250e+00,NaN,2,1,3,1
61,562,4,68,36,2,2,1,2.390427e+00,NaN,2,0,2,1
61,563,4,14,70,1,1,1,6.926387e-01,NaN,2,1,1,1
61,564,4,122,1,1,2,0,9.836574e-01,NaN,2,1,3,1
61,565,4,66,34,2,1,0,1.263475e+00,NaN,2,1,2,1
61,566,4,143,6,2,2,1,5.160994e-01,NaN,2,0,3,1
61,591,4,128,58,2,2,1,1.443096e+00,NaN,2,0,3,2
61,592,4,1,35,1,1,1,1.069611e+00,NaN,2,1,1,2
61,593,4,110,24,2,2,1,2.930842e-01,NaN,2,0,3,2
61,594,4,131,27,1,1,1,3.420715e-01,NaN,2,0,3,2
61,595,4,17,23,1,1,1,3.249338e-01,NaN,2,0,1,2
61,596,4,115,32,2,2,1,1.148105e+00,NaN,2,0,3,2
61,597,4,45,22,1,1,1,7.542468e-01,NaN,2,0,1,2
61,598,4,53,21,2,1,0,7.261766e-01,NaN,2,1,2,2
61,599,4,76,2,2,2,1,3.830242e+00,NaN,2,0,2,2
61,600,4,46,66,1,1,1,5.695791e+00,NaN,2,0,1,2
61,601,4,81,56,2,2,1,4.770992e-01,NaN,2,0,2,2
61,602,4,75,68,1,1,1,4.581628e-01,NaN,2,0,2,2
61,603,4,140,50,2,2,1,2.508927e+00,NaN,2,0,3,2
61,604,4,139,61,1,1,1,2.095402e+00,NaN,2,0,3,2
61,605,4,114,4,2,2,1,1.607977e-01,NaN,2,0,3,2
61,606,4,3,63,2,2,1,6.173727e-01,NaN,2,0,1,2
61,607,4,30,48,2,2,1,5.871013e-01,NaN,2,0,1,2
61,608,4,39,59,1,1,1,4.008983e-01,NaN,2,1,1,2
61,609,4,90,38,1,1,1,5.638500e-01,NaN,2,0,2,2
61,610,4,20,57,1,1,1,9.677929e-01,NaN,2,0,1,2
61,611,4,96,55,2,2,1,2.099568e+00,NaN,2,0,2,2
61,612,4,84,26,2,2,1,2.647387e+00,NaN,2,0,2,2
61,613,4,93,71,1,1,1,3.459261e-01,NaN,2,1,2,2
61,614,4,129,5,2,2,1,9.334059e-01,NaN,2,1,3,2
61,639,4,49,49,2,2,1,3.205531e-01,NaN,2,0,2,3
61,640,4,11,28,1,1,1,2.480833e+00,NaN,2,0,1,3
61,641,4,9,62,2,2,1,9.799552e-01,NaN,2,0,1,3
61,642,4,136,10,2,2,1,4.782623e-01,NaN,2,0,3,3
61,643,4,47,69,2,1,0,8.486679e-01,NaN,2,0,1,3
61,644,4,103,8,2,2,1,9.124456e-01,NaN,2,1,3,3
61,645,4,24,44,1,1,1,3.641813e-01,NaN,2,0,1,3
61,646,4,74,15,1,1,1,1.196051e+00,NaN,2,0,2,3
61,647,4,137,14,2,2,1,1.108992e+00,NaN,2,0,3,3
61,648,4,126,43,2,2,1,4.332934e-01,NaN,2,0,3,3
61,649,4,80,16,2,2,1,8.572686e-01,NaN,2,0,2,3
61,650,4,112,7,2,1,0,2.703829e+00,NaN,2,1,3,3
61,651,4,41,72,1,1,1,2.574736e-01,NaN,2,0,1,3
61,652,4,125,40,2,2,1,1.240464e+00,NaN,2,1,3,3
61,653,4,54,41,2,2,1,8.716272e-01,NaN,2,0,2,3
61,654,4,71,47,1,1,1,4.286507e-01,NaN,2,0,2,3
61,655,4,142,30,2,1,0,8.549090e-01,NaN,2,0,3,3
61,656,4,10,65,1,1,1,2.066891e-01,NaN,2,0,1,3
61,657,4,134,20,1,2,0,1.279462e+00,NaN,2,0,3,3
61,658,4,78,42,1,2,0,4.814872e-01,NaN,2,0,2,3
61,659,4,7,29,1,1,1,7.888446e-01,NaN,2,1,1,3
61,660,4,48,52,1,2,0,7.478702e-01,NaN,2,0,1,3
61,661,4,120,31,2,2,1,3.306310e+00,NaN,2,1,3,3
61,662,4,104,54,2,2,1,2.290487e-01,NaN,2,0,3,3
61,663,4,1.335700e+02,67,3,3,1,2.259751e-01,1,1,0,3.200000e+00,1
61,664,4,4.800000e+00,16,1,1,1,8.583390e-01,1,1,0,1.200000e+00,1
61,665,4,9.643000e+01,6,2,2,1,1.855217e-01,1,1,0,2.300000e+00,1
61,666,4,5.131000e+01,27,2,3,0,4.956860e-01,1,1,0,2.300000e+00,1
61,667,4,1.335700e+02,67,3,3,1,6.198806e-01,2,1,0,3.200000e+00,1
61,668,4,7.028000e+01,58,2,2,1,4.683123e-01,1,1,0,2.300000e+00,1
61,669,4,1.974000e+01,15,1,1,1,6.394442e-01,1,1,0,1.200000e+00,1
61,670,4,9.220000e+01,57,2,2,1,1.880209e-01,1,1,0,2.100000e+00,1
61,671,4,8.439000e+01,61,2,2,1,2.278298e-01,1,1,0,2.300000e+00,1
61,672,4,1.014000e+02,12,3,3,1,1.290609e-01,1,1,0,3.100000e+00,1
61,673,4,1.245400e+02,41,3,3,1,1.789269e+00,1,1,0,3.200000e+00,1
61,674,4,1.921000e+01,46,1,1,1,3.403718e-01,1,1,0,1.300000e+00,1
61,675,4,9.408000e+01,39,2,2,1,9.291130e-01,1,1,0,2.100000e+00,1
61,676,4,6.900000e+00,38,1,3,0,6.558492e-01,1,1,0,1.200000e+00,1
61,677,4,1.245400e+02,41,3,2,0,2.473867e-01,2,1,0,3.200000e+00,1
61,678,4,1.014000e+02,12,3,3,1,2.363883e-01,2,1,0,3.100000e+00,1
61,679,4,1.302400e+02,44,3,3,1,2.583933e-01,1,1,0,3.100000e+00,1
61,680,4,8.439000e+01,61,2,1,0,5.883827e-01,2,1,0,2.300000e+00,1
61,681,4,1.354900e+02,49,3,3,1,1.793729e-01,1,1,0,3.200000e+00,1
61,682,4,1.064100e+02,72,3,4,0,6.337441e-01,1,1,0,3.100000e+00,1
61,683,4,7.315000e+01,3,2,2,1,2.409579e-01,1,1,0,2.100000e+00,1
61,684,4,1.096200e+02,60,3,3,1,3.988630e-01,1,1,0,3.200000e+00,1
61,685,4,3.671000e+01,47,1,2,0,2.973205e-01,1,1,0,1.200000e+00,1
61,686,4,1.414600e+02,66,3,3,1,2.923043e-01,1,1,0,3.100000e+00,1
61,687,4,1.974000e+01,15,1,1,1,1.538051e-01,2,1,0,1.200000e+00,1
61,688,4,4.384000e+01,26,1,1,1,2.993533e-01,1,1,0,1.200000e+00,1
61,689,4,1.004800e+02,52,3,3,1,1.169624e+00,1,1,0,3.100000e+00,1
61,690,4,5.940000e+01,50,2,2,1,1.273964e-01,1,1,0,2.300000e+00,1
61,691,4,1.162600e+02,19,3,3,1,8.929772e-01,1,1,0,3.100000e+00,1
61,692,4,9.745000e+01,22,3,3,1,1.088958e-01,1,1,0,3.100000e+00,1
61,693,4,8.842000e+01,30,2,2,1,4.670817e-01,1,1,0,2.300000e+00,1
61,694,4,1.057000e+02,37,3,3,1,6.685641e-01,1,1,0,3.200000e+00,1
61,695,4,1.414600e+02,66,3,3,1,6.253255e-01,2,1,0,3.100000e+00,1
61,696,4,7.315000e+01,3,2,2,1,1.462835e-01,2,1,0,2.100000e+00,1
61,697,4,1.057000e+02,37,3,3,1,8.274301e-01,2,1,0,3.200000e+00,1
61,698,4,9.745000e+01,22,3,3,1,2.624860e-01,2,1,0,3.100000e+00,1
61,699,4,3.414000e+01,4,1,1,1,3.047038e-01,1,1,0,1.300000e+00,1
61,700,4,9.830000e+01,48,3,2,0,2.246302e-01,1,1,0,3.100000e+00,1
61,701,4,8.637000e+01,14,2,2,1,7.854699e-01,1,1,0,2.300000e+00,1
61,702,4,3.671000e+01,47,1,1,1,2.990066e+00,2,1,0,1.200000e+00,1
61,703,4,6.003000e+01,63,2,2,1,2.145755e-01,1,1,0,2.100000e+00,1
61,704,4,1.004800e+02,52,3,3,1,2.927171e-01,2,1,0,3.100000e+00,1
61,705,4,5.117000e+01,23,2,2,1,3.285257e-01,1,1,0,2.100000e+00,1
61,706,4,2.881000e+01,56,1,1,1,6.093034e-01,1,1,0,1.200000e+00,1
61,707,4,6.900000e+00,38,1,1,1,1.953775e-01,2,1,0,1.200000e+00,1
61,708,4,7.028000e+01,58,2,2,1,5.964391e-01,2,1,0,2.300000e+00,1
61,709,4,9.110000e+01,65,2,2,1,6.668236e-01,1,1,0,2.100000e+00,1
61,710,4,1.134700e+02,69,3,3,1,4.242441e-01,1,1,0,3.100000e+00,1
61,711,4,4.384000e+01,26,1,1,1,1.139843e-01,2,1,0,1.200000e+00,1
61,712,4,9.830000e+01,48,3,3,1,8.859896e-02,2,1,0,3.100000e+00,1
61,713,4,2.404000e+01,54,1,1,1,3.614253e-01,1,1,0,1.300000e+00,1
61,714,4,5.636000e+01,10,2,2,1,8.397940e-01,1,1,0,2.300000e+00,1
61,715,4,1.302400e+02,44,3,3,1,3.990150e-01,2,1,0,3.100000e+00,1
61,716,4,1.096200e+02,60,3,3,1,2.520191e-01,2,1,0,3.200000e+00,1
61,717,4,9.110000e+01,65,2,2,1,3.401212e-01,2,1,0,2.100000e+00,1
61,718,4,3.476000e+01,2,1,2,0,4.327240e-01,1,1,0,1.200000e+00,1
61,719,4,1.076800e+02,36,3,3,1,4.479199e-01,1,1,0,3.200000e+00,1
61,720,4,7.909000e+01,62,2,2,1,5.368040e-01,1,1,0,2.100000e+00,1
61,721,4,2.175000e+01,68,1,1,1,1.178129e+00,1,1,0,1.200000e+00,1
61,722,4,5.636000e+01,10,2,2,1,3.193185e-01,2,1,0,2.300000e+00,1
61,723,4,7.909000e+01,62,2,2,1,2.057817e+00,2,1,0,2.100000e+00,1
61,724,4,3.476000e+01,2,1,1,1,2.188499e-01,2,1,0,1.200000e+00,1
61,725,4,4.800000e+00,16,1,3,0,6.302382e-02,2,1,0,1.200000e+00,1
61,726,4,2.175000e+01,68,1,2,0,1.878883e+00,2,1,0,1.200000e+00,1
61,727,4,1.057000e+02,37,3,3,1,5.005023e-01,3,1,0,3.200000e+00,1
61,728,4,8.734000e+01,20,2,2,1,1.062118e-01,1,1,0,2.300000e+00,1
61,729,4,4.296000e+01,55,1,3,0,1.626263e-01,1,1,0,1.200000e+00,1
61,730,4,4.296000e+01,55,1,1,1,1.701983e-01,2,1,0,1.200000e+00,1
61,731,4,6.311000e+01,28,2,2,1,3.560893e-01,1,1,0,2.100000e+00,1
61,732,4,7.028000e+01,58,2,2,1,3.537119e-01,3,1,0,2.300000e+00,1
61,733,4,3.671000e+01,47,1,1,1,1.188923e+00,3,1,0,1.200000e+00,1
61,734,4,4.800000e+00,16,1,2,0,1.601658e-01,3,1,0,1.200000e+00,1
61,735,4,3.815000e+01,32,1,3,0,5.015573e-01,1,1,0,1.300000e+00,1
61,736,4,8.637000e+01,14,2,1,0,8.174184e-01,2,1,0,2.300000e+00,1
61,737,4,1.086100e+02,9,3,4,0,1.852480e-01,1,1,0,3.200000e+00,1
61,738,4,1.004800e+02,52,3,3,1,6.286790e-01,3,1,0,3.100000e+00,1
61,739,4,1.096200e+02,60,3,3,1,2.517284e-01,3,1,0,3.200000e+00,1
61,740,4,6.413000e+01,64,2,2,1,3.823296e-01,1,1,0,2.100000e+00,1
61,741,4,5.131000e+01,27,2,1,0,7.464121e-01,2,1,0,2.300000e+00,1
61,742,4,2.881000e+01,56,1,3,0,4.668936e-01,2,1,0,1.200000e+00,1
61,743,4,7.315000e+01,3,2,2,1,9.060312e-01,3,1,0,2.100000e+00,1
61,744,4,1.354900e+02,49,3,3,1,2.973378e-01,2,1,0,3.200000e+00,1
61,745,4,1.134700e+02,69,3,3,1,4.415940e-01,2,1,0,3.100000e+00,1
61,746,4,1.162600e+02,19,3,3,1,1.737700e+00,2,1,0,3.100000e+00,1
61,747,4,3.878000e+01,42,1,1,1,1.868560e-01,1,1,0,1.200000e+00,1
61,748,4,3.476000e+01,2,1,1,1,2.684398e-01,3,1,0,1.200000e+00,1
61,749,4,6.413000e+01,64,2,2,1,4.754813e-01,2,1,0,2.100000e+00,1
61,750,4,9.643000e+01,6,2,2,1,2.746545e-01,2,1,0,2.300000e+00,1
61,751,4,1.302400e+02,44,3,3,1,2.181725e-01,3,1,0,3.100000e+00,1
61,752,4,2.610000e+01,24,1,1,1,2.369351e-01,1,1,0,1.300000e+00,1
61,753,4,1.921000e+01,46,1,1,1,2.282500e+00,2,1,0,1.300000e+00,1
61,754,4,1.173500e+02,17,3,3,1,2.998018e-01,1,1,0,3.100000e+00,1
61,755,4,6.900000e+00,38,1,2,0,4.411848e-01,3,1,0,1.200000e+00,1
61,756,4,1.921000e+01,46,1,4,0,4.602683e-01,3,1,0,1.300000e+00,1
61,757,4,6.413000e+01,64,2,2,1,1.010760e+00,3,1,0,2.100000e+00,1
61,758,4,1.086100e+02,9,3,3,1,4.996223e-01,2,1,0,3.200000e+00,1
61,759,4,6.311000e+01,28,2,1,0,2.911628e-01,2,1,0,2.100000e+00,1
61,760,4,9.220000e+01,57,2,4,0,4.880458e-01,2,1,0,2.100000e+00,1
61,761,4,1.086100e+02,9,3,2,0,6.145020e-01,3,1,0,3.200000e+00,1
61,762,4,7.315000e+01,3,2,1,0,1.567999e-01,4,1,0,2.100000e+00,1
61,763,4,1.086100e+02,9,3,2,0,1.036930e+00,4,1,0,3.200000e+00,1
61,764,4,6.311000e+01,28,2,2,1,8.853166e-01,3,1,0,2.100000e+00,1
61,765,4,1.173500e+02,17,3,3,1,6.509657e-01,2,1,0,3.100000e+00,1
61,766,4,1.064100e+02,72,3,3,1,3.504113e+00,2,1,0,3.100000e+00,1
61,767,4,1.354900e+02,49,3,3,1,4.495979e-01,3,1,0,3.200000e+00,1
61,768,4,9.220000e+01,57,2,4,0,5.301940e-01,3,1,0,2.100000e+00,1
61,769,4,6.311000e+01,28,2,1,0,4.325955e-01,4,1,0,2.100000e+00,1
61,770,4,8.842000e+01,30,2,2,1,3.394926e-01,2,1,0,2.300000e+00,1
61,771,4,9.643000e+01,6,2,2,1,3.263895e-01,3,1,0,2.300000e+00,1
61,772,4,2.404000e+01,54,1,1,1,5.399863e-01,2,1,0,1.300000e+00,1
61,773,4,8.842000e+01,30,2,3,0,2.249878e+00,3,1,0,2.300000e+00,1
61,774,4,6.003000e+01,63,2,2,1,5.628947e-01,2,1,0,2.100000e+00,1
61,775,4,2.610000e+01,24,1,1,1,2.854691e-01,2,1,0,1.300000e+00,1
61,776,4,9.967000e+01,25,3,1,0,5.093185e-01,1,1,0,3.200000e+00,1
61,777,4,9.408000e+01,39,2,2,1,1.540047e+00,2,1,0,2.100000e+00,1
61,778,4,1.162600e+02,19,3,1,0,2.087553e-01,3,1,0,3.100000e+00,1
61,779,4,8.734000e+01,20,2,2,1,4.407089e-01,2,1,0,2.300000e+00,1
61,780,4,1.014000e+02,12,3,1,0,1.099957e+00,3,1,0,3.100000e+00,1
61,781,4,3.878000e+01,42,1,1,1,1.751253e-01,2,1,0,1.200000e+00,1
61,782,4,5.636000e+01,10,2,2,1,9.038677e-01,3,1,0,2.300000e+00,1
61,783,4,3.815000e+01,32,1,1,1,3.839766e-01,2,1,0,1.300000e+00,1
61,784,4,8.637000e+01,14,2,3,0,1.101392e-01,3,1,0,2.300000e+00,1
61,785,4,4.526000e+01,43,1,1,1,1.357112e+00,1,1,0,1.300000e+00,1
61,786,4,8.637000e+01,14,2,2,1,1.896218e-01,4,1,0,2.300000e+00,1
61,787,4,9.110000e+01,65,2,2,1,2.755793e-01,3,1,0,2.100000e+00,1
61,788,4,2.881000e+01,56,1,1,1,1.511710e-01,3,1,0,1.200000e+00,1
61,789,4,1.354900e+02,49,3,3,1,2.390118e-01,4,1,0,3.200000e+00,1
61,790,4,1.134700e+02,69,3,3,1,8.482151e-01,3,1,0,3.100000e+00,1
61,791,4,4.526000e+01,43,1,1,1,1.901306e-01,2,1,0,1.300000e+00,1
61,792,4,6.413000e+01,64,2,2,1,2.514714e-01,4,1,0,2.100000e+00,1
61,793,4,2.404000e+01,54,1,1,1,2.544151e-01,3,1,0,1.300000e+00,1
61,794,4,5.636000e+01,10,2,2,1,1.100472e-01,4,1,0,2.300000e+00,1
61,795,4,4.384000e+01,26,1,1,1,2.280533e-01,3,1,0,1.200000e+00,1
61,796,4,5.117000e+01,23,2,2,1,6.894176e-02,2,1,0,2.100000e+00,1
61,797,4,3.815000e+01,32,1,1,1,1.988673e-01,3,1,0,1.300000e+00,1
61,798,4,3.671000e+01,47,1,1,1,6.005225e-01,4,1,0,1.200000e+00,1
61,799,4,6.003000e+01,63,2,2,1,3.949788e-01,3,1,0,2.100000e+00,1
61,800,4,1.974000e+01,15,1,1,1,6.029668e-01,3,1,0,1.200000e+00,1
61,801,4,1.445600e+02,33,3,2,0,4.457996e-01,1,1,0,3.200000e+00,1
61,802,4,3.414000e+01,4,1,2,0,1.132670e+00,2,1,0,1.300000e+00,1
61,803,4,1.162600e+02,19,3,3,1,1.263936e-01,4,1,0,3.100000e+00,1
61,804,4,7.028000e+01,58,2,2,1,8.647536e-01,4,1,0,2.300000e+00,1
61,805,4,1.414600e+02,66,3,3,1,2.640553e-01,3,1,0,3.100000e+00,1
61,806,4,3.414000e+01,4,1,1,1,3.177825e+00,3,1,0,1.300000e+00,1
61,807,4,1.096200e+02,60,3,2,0,2.938931e-01,4,1,0,3.200000e+00,1
61,808,4,9.408000e+01,39,2,4,0,9.086976e-01,3,1,0,2.100000e+00,1
61,809,4,3.815000e+01,32,1,1,1,1.388376e-01,4,1,0,1.300000e+00,1
61,810,4,9.830000e+01,48,3,4,0,5.439422e-01,3,1,0,3.100000e+00,1
61,811,4,3.878000e+01,42,1,2,0,1.742382e-01,3,1,0,1.200000e+00,1
61,812,4,5.940000e+01,50,2,2,1,8.930860e-01,2,1,0,2.300000e+00,1
61,813,4,4.384000e+01,26,1,4,0,9.091040e-01,4,1,0,1.200000e+00,1
61,814,4,4.296000e+01,55,1,2,0,4.373950e-01,3,1,0,1.200000e+00,1
61,815,4,9.408000e+01,39,2,2,1,5.279986e-01,4,1,0,2.100000e+00,1
61,816,4,1.414600e+02,66,3,3,1,3.077574e-01,4,1,0,3.100000e+00,1
61,817,4,2.788000e+01,11,1,1,1,1.291083e-01,1,1,0,1.200000e+00,1
61,818,4,9.643000e+01,6,2,3,0,7.765820e-02,4,1,0,2.300000e+00,1
61,819,4,1.974000e+01,15,1,1,1,1.407698e+00,4,1,0,1.200000e+00,1
61,820,4,8.842000e+01,30,2,2,1,5.099142e-01,4,1,0,2.300000e+00,1
61,821,4,2.788000e+01,11,1,1,1,2.365178e-01,2,1,0,1.200000e+00,1
61,822,4,2.404000e+01,54,1,1,1,5.913311e-01,4,1,0,1.300000e+00,1
61,823,4,2.788000e+01,11,1,2,0,9.713979e-01,3,1,0,1.200000e+00,1
61,824,4,3.476000e+01,2,1,1,1,9.553691e-01,4,1,0,1.200000e+00,1
61,825,4,1.057000e+02,37,3,3,1,9.690618e-01,4,1,0,3.200000e+00,1
61,826,4,9.967000e+01,25,3,3,1,2.269453e-01,2,1,0,3.200000e+00,1
61,827,4,1.173500e+02,17,3,3,1,1.244026e-01,3,1,0,3.100000e+00,1
61,828,4,1.921000e+01,46,1,1,1,2.952034e-01,4,1,0,1.300000e+00,1
61,829,4,1.076800e+02,36,3,1,0,2.350743e-01,2,1,0,3.200000e+00,1
61,830,4,5.117000e+01,23,2,2,1,7.825668e-01,3,1,0,2.100000e+00,1
61,831,4,9.830000e+01,48,3,3,1,9.464815e-01,4,1,0,3.100000e+00,1
61,832,4,9.967000e+01,25,3,3,1,1.947947e+00,3,1,0,3.200000e+00,1
61,833,4,4.800000e+00,16,1,1,1,1.084774e+00,4,1,0,1.200000e+00,1
61,834,4,1.245400e+02,41,3,3,1,7.221426e-01,3,1,0,3.200000e+00,1
61,835,4,7.909000e+01,62,2,1,0,7.190887e-01,3,1,0,2.100000e+00,1
61,836,4,2.175000e+01,68,1,1,1,4.434617e-01,3,1,0,1.200000e+00,1
61,837,4,5.117000e+01,23,2,2,1,1.860201e-01,4,1,0,2.100000e+00,1
61,838,4,4.296000e+01,55,1,1,1,2.850149e-01,4,1,0,1.200000e+00,1
61,839,4,8.734000e+01,20,2,2,1,5.286055e-01,3,1,0,2.300000e+00,1
61,840,4,1.014000e+02,12,3,3,1,1.705788e+00,4,1,0,3.100000e+00,1
61,841,4,2.175000e+01,68,1,1,1,1.503968e-01,4,1,0,1.200000e+00,1
61,842,4,1.445600e+02,33,3,3,1,1.869178e-01,2,1,0,3.200000e+00,1
61,843,4,7.909000e+01,62,2,2,1,3.307453e-01,4,1,0,2.100000e+00,1
61,844,4,1.335700e+02,67,3,2,0,2.957592e-01,3,1,0,3.200000e+00,1
61,845,4,5.940000e+01,50,2,2,1,3.195153e-01,3,1,0,2.300000e+00,1
61,846,4,3.414000e+01,4,1,1,1,1.343463e-01,4,1,0,1.300000e+00,1
61,847,4,9.110000e+01,65,2,2,1,1.759780e+00,4,1,0,2.100000e+00,1
61,848,4,1.335700e+02,67,3,3,1,1.812557e-01,4,1,0,3.200000e+00,1
61,849,4,4.526000e+01,43,1,1,1,4.624282e-01,3,1,0,1.300000e+00,1
61,850,4,9.220000e+01,57,2,2,1,5.122483e-01,4,1,0,2.100000e+00,1
61,851,4,2.881000e+01,56,1,1,1,4.782002e-01,4,1,0,1.200000e+00,1
61,852,4,2.610000e+01,24,1,3,0,1.470768e-01,3,1,0,1.300000e+00,1
61,853,4,8.439000e+01,61,2,2,1,1.869746e-01,3,1,0,2.300000e+00,1
61,854,4,1.445600e+02,33,3,3,1,9.259514e-01,3,1,0,3.200000e+00,1
61,855,4,8.734000e+01,20,2,2,1,3.070454e-01,4,1,0,2.300000e+00,1
61,856,4,9.745000e+01,22,3,3,1,1.198128e-01,3,1,0,3.100000e+00,1
61,857,4,5.940000e+01,50,2,2,1,3.332371e-01,4,1,0,2.300000e+00,1
61,858,4,6.900000e+00,38,1,1,1,2.940995e-01,4,1,0,1.200000e+00,1
61,859,4,1.245400e+02,41,3,3,1,5.645952e-01,4,1,0,3.200000e+00,1
61,860,4,1.076800e+02,36,3,3,1,3.449600e-01,3,1,0,3.200000e+00,1
61,861,4,1.064100e+02,72,3,3,1,1.671793e+00,3,1,0,3.100000e+00,1
61,862,4,9.745000e+01,22,3,3,1,3.615218e-01,4,1,0,3.100000e+00,1
61,863,4,8.439000e+01,61,2,3,0,1.140673e+00,4,1,0,2.300000e+00,1
61,864,4,2.788000e+01,11,1,2,0,1.941181e-01,4,1,0,1.200000e+00,1
61,865,4,2.610000e+01,24,1,1,1,2.103565e-01,4,1,0,1.300000e+00,1
61,866,4,1.064100e+02,72,3,3,1,5.919907e-01,4,1,0,3.100000e+00,1
61,867,4,1.004800e+02,52,3,3,1,1.625083e+00,4,1,0,3.100000e+00,1
61,868,4,5.131000e+01,27,2,2,1,5.631537e-01,3,1,0,2.300000e+00,1
61,869,4,1.134700e+02,69,3,3,1,1.493554e-01,4,1,0,3.100000e+00,1
61,870,4,1.076800e+02,36,3,3,1,2.547250e+00,4,1,0,3.200000e+00,1
61,871,4,9.967000e+01,25,3,2,0,1.669681e-01,4,1,0,3.200000e+00,1
61,872,4,6.003000e+01,63,2,2,1,2.128271e-01,4,1,0,2.100000e+00,1
61,873,4,1.173500e+02,17,3,3,1,5.126077e-01,4,1,0,3.100000e+00,1
61,874,4,3.878000e+01,42,1,1,1,9.637457e-01,4,1,0,1.200000e+00,1
61,875,4,1.302400e+02,44,3,3,1,2.158222e-01,4,1,0,3.100000e+00,1
61,876,4,4.526000e+01,43,1,1,1,6.628858e-01,4,1,0,1.300000e+00,1
61,877,4,1.445600e+02,33,3,2,0,1.956573e-01,4,1,0,3.200000e+00,1
61,878,4,5.131000e+01,27,2,2,1,5.108777e-01,4,1,0,2.300000e+00,1
61,879,6,136,10,1,1,1,4.014782e-01,NaN,2,0,3,1
61,880,6,26,19,2,2,1,3.788357e+00,NaN,2,0,1,1
61,881,6,104,54,1,1,1,7.964197e-01,NaN,2,0,3,1
61,882,6,137,14,2,2,1,1.953513e-01,NaN,2,0,3,1
61,883,6,115,32,2,2,1,2.769363e-01,NaN,2,0,3,1
61,884,6,66,34,1,1,1,3.325342e-01,NaN,2,1,2,1
61,885,6,56,33,1,2,0,4.139519e-01,NaN,2,0,2,1
61,886,6,134,20,2,2,1,2.700093e-01,NaN,2,0,3,1
61,887,6,3,63,2,2,1,1.066496e+00,NaN,2,0,1,1
61,888,6,10,65,1,1,1,8.228405e-01,NaN,2,0,1,1
61,889,6,121,46,1,1,1,1.611126e-01,NaN,2,0,3,1
61,890,6,78,42,1,1,1,9.048936e-02,NaN,2,0,2,1
61,891,6,112,7,1,1,1,2.154194e-01,NaN,2,1,3,1
61,892,6,140,50,2,2,1,3.539890e-01,NaN,2,0,3,1
61,893,6,129,5,2,2,1,2.728351e-01,NaN,2,1,3,1
61,894,6,45,22,2,2,1,1.764629e-01,NaN,2,0,1,1
61,895,6,88,11,2,2,1,1.030594e+00,NaN,2,0,2,1
61,896,6,114,4,1,2,0,2.882998e+00,NaN,2,0,3,1
61,897,6,52,13,1,1,1,5.131408e-01,NaN,2,1,2,1
61,898,6,71,47,1,1,1,3.226030e-01,NaN,2,0,2,1
61,899,6,30,48,1,1,1,1.019281e+00,NaN,2,0,1,1
61,900,6,17,23,1,1,1,3.192537e-01,NaN,2,0,1,1
61,901,6,46,66,1,1,1,1.192579e+00,NaN,2,0,1,1
61,902,6,93,71,2,2,1,9.033293e-01,NaN,2,1,2,1
61,903,6,11,28,2,1,0,2.562955e+00,NaN,2,0,1,1
61,904,6,68,36,1,1,1,2.737882e-01,NaN,2,0,2,1
61,905,6,139,61,2,2,1,1.740576e+00,NaN,2,0,3,1
61,906,6,35,17,1,2,0,5.822492e-01,NaN,2,0,1,1
61,907,6,120,31,1,1,1,7.855767e-01,NaN,2,1,3,1
61,908,6,1,35,2,2,1,1.199959e+00,NaN,2,1,1,1
61,909,6,49,49,1,1,1,3.588867e-01,NaN,2,0,2,1
61,910,6,122,1,1,1,1,5.357602e-01,NaN,2,1,3,1
61,911,6,84,26,1,1,1,1.645717e+00,NaN,2,0,2,1
61,912,6,102,45,1,1,1,3.523731e-01,NaN,2,1,3,1
61,913,6,13,64,2,2,1,1.290564e+00,NaN,2,0,1,1
61,914,6,62,60,2,2,1,1.038479e+00,NaN,2,0,2,1
61,915,6,15,3,2,2,1,1.475466e+00,NaN,2,0,1,1
61,916,6,138,51,1,1,1,1.749217e+00,NaN,2,1,3,1
61,917,6,53,21,2,2,1,1.532665e+00,NaN,2,1,2,1
61,918,6,75,68,2,2,1,1.634299e+00,NaN,2,0,2,1
61,919,6,128,58,2,2,1,4.064035e-01,NaN,2,0,3,1
61,920,6,96,55,1,1,1,1.634852e-01,NaN,2,0,2,1
61,921,6,8,39,1,1,1,6.320831e-01,NaN,2,0,1,1
61,922,6,70,37,1,1,1,1.651447e-01,NaN,2,0,2,1
61,923,6,67,25,2,2,1,1.328177e+00,NaN,2,0,2,1
61,924,6,32,18,2,2,1,6.834263e-01,NaN,2,1,1,1
61,925,6,131,27,1,1,1,8.419733e-01,NaN,2,0,3,1
61,926,6,40,12,2,2,1,9.438455e-01,NaN,2,0,1,1
61,927,6,103,8,2,2,1,5.904614e-01,NaN,2,1,3,1
61,928,6,143,6,2,2,1,4.055171e-01,NaN,2,0,3,1
61,929,6,39,59,1,1,1,1.885782e-01,NaN,2,1,1,1
61,930,6,9,62,1,1,1,2.605423e-01,NaN,2,0,1,1
61,931,6,110,24,1,1,1,3.698054e-01,NaN,2,0,3,1
61,932,6,54,41,1,1,1,4.417449e-01,NaN,2,0,2,1
61,933,6,90,38,2,1,0,9.298182e-01,NaN,2,0,2,1
61,934,6,125,40,2,2,1,4.048880e-01,NaN,2,1,3,1
61,935,6,57,67,1,2,0,1.795839e+00,NaN,2,0,2,1
61,936,6,74,15,1,1,1,2.609115e-01,NaN,2,0,2,1
61,937,6,142,30,1,2,0,6.678303e-01,NaN,2,0,3,1
61,938,6,61,9,2,1,0,4.481640e-01,NaN,2,0,2,1
61,939,6,126,43,2,2,1,9.921086e-01,NaN,2,0,3,1
61,940,6,41,72,2,1,0,2.986231e-01,NaN,2,0,1,1
61,941,6,132,53,2,1,0,7.037947e-01,NaN,2,1,3,1
61,942,6,80,16,2,2,1,2.389433e-01,NaN,2,0,2,1
61,943,6,81,56,2,2,1,1.189838e+00,NaN,2,0,2,1
61,944,6,48,52,1,1,1,2.408259e-01,NaN,2,0,1,1
61,945,6,24,44,1,1,1,6.351791e-01,NaN,2,0,1,1
61,946,6,76,2,2,2,1,3.076406e-01,NaN,2,0,2,1
61,947,6,7,29,2,2,1,4.308695e-01,NaN,2,1,1,1
61,948,6,14,70,1,1,1,4.713910e-01,NaN,2,1,1,1
61,949,6,20,57,2,2,1,2.171052e+00,NaN,2,0,1,1
61,950,6,47,69,1,1,1,1.827148e+00,NaN,2,0,1,1
61,951,6,119,18,2,2,1,2.557363e-01,NaN,1,1,3,1
61,952,6,42,55,2,2,1,1.129326e+00,NaN,1,0,1,1
61,953,6,65,29,2,2,1,8.857199e-01,NaN,1,1,2,1
61,954,6,141,66,1,1,1,4.143822e-01,NaN,1,0,3,1
61,955,6,69,58,2,2,1,2.391322e-01,NaN,1,0,2,1
61,956,6,12,8,1,1,1,2.340341e+00,NaN,1,1,1,1
61,957,6,27,11,1,2,0,7.021836e-01,NaN,1,0,1,1
61,958,6,58,50,2,1,0,1.194582e+00,NaN,1,0,2,1
61,959,6,23,54,2,2,1,3.516237e-01,NaN,1,0,1,1
61,960,6,116,19,2,2,1,1.679714e+00,NaN,1,0,3,1
61,961,6,28,56,1,1,1,1.296760e+00,NaN,1,0,1,1
61,962,6,63,28,1,1,1,1.589427e+00,NaN,1,0,2,1
61,963,6,99,25,2,2,1,9.332390e-01,NaN,1,0,3,1
61,964,6,105,37,1,1,1,8.720832e-01,NaN,1,0,3,1
61,965,6,33,4,2,2,1,3.471619e+00,NaN,1,0,1,1
61,966,6,4,16,1,1,1,2.687465e-01,NaN,1,0,1,1
61,967,6,95,6,2,2,1,5.043598e-01,NaN,1,0,2,1
61,968,6,44,43,2,2,1,1.172926e-01,NaN,1,0,1,1
61,969,6,118,59,2,2,1,4.430298e-01,NaN,1,1,3,1
61,970,6,130,44,2,2,1,3.059126e-01,NaN,1,0,3,1
61,971,6,109,60,2,2,1,2.521781e+00,NaN,1,0,3,1
61,972,6,91,65,2,1,0,3.132105e-01,NaN,1,0,2,1
61,973,6,107,36,1,1,1,9.000367e-01,NaN,1,0,3,1
61,974,6,36,47,2,2,1,4.406904e-01,NaN,1,0,1,1
61,975,6,101,12,1,2,0,1.878864e-01,NaN,1,0,3,1
61,976,6,18,46,1,1,1,1.221121e+00,NaN,1,0,1,1
61,977,6,73,3,2,2,1,1.618346e-01,NaN,1,0,2,1
61,978,6,51,23,1,1,1,3.612451e-01,NaN,1,0,2,1
61,979,6,29,1,1,1,1,1.666571e+00,NaN,1,1,1,1
61,980,6,64,64,1,1,1,1.990837e-01,NaN,1,0,2,1
61,981,6,92,57,2,2,1,3.142785e-01,NaN,1,0,2,1
61,982,6,38,42,1,1,1,1.813411e+00,NaN,1,0,1,1
61,983,6,5,31,1,1,1,1.164770e+00,NaN,1,1,1,1
61,984,6,34,2,1,1,1,4.559685e-01,NaN,1,0,1,1
61,985,6,43,26,2,2,1,4.608156e-01,NaN,1,0,1,1
61,986,6,133,67,2,2,1,9.350049e-01,NaN,1,0,3,1
61,987,6,83,61,2,2,1,6.451763e-01,NaN,1,0,2,1
61,988,6,124,41,2,2,1,2.645759e-01,NaN,1,0,3,1
61,989,6,21,68,1,1,1,7.364970e-01,NaN,1,0,1,1
61,990,6,22,7,1,2,0,1.550734e+00,NaN,1,1,1,1
61,991,6,97,22,1,1,1,5.661835e-01,NaN,1,0,3,1
61,992,6,100,52,1,1,1,2.960373e+00,NaN,1,0,3,1
61,993,6,79,62,1,1,1,2.034043e-01,NaN,1,0,2,1
61,994,6,127,13,1,2,0,1.565653e-01,NaN,1,1,3,1
61,995,6,25,24,1,1,1,3.927250e-01,NaN,1,0,1,1
61,996,6,37,32,2,2,1,9.107151e-01,NaN,1,0,1,1
61,997,6,86,20,2,2,1,1.676217e+00,NaN,1,0,2,1
61,998,6,50,27,2,2,1,2.412984e-01,NaN,1,0,2,1
61,999,6,117,17,1,1,1,1.042981e+00,NaN,1,0,3,1
61,1000,6,123,21,1,1,1,1.962331e+00,NaN,1,1,3,1
61,1001,6,55,10,2,1,0,8.943372e-01,NaN,1,0,2,1
61,1002,6,144,33,1,1,1,4.350454e-01,NaN,1,0,3,1
61,1003,6,85,14,2,2,1,2.246335e-01,NaN,1,0,2,1
61,1004,6,98,48,1,1,1,1.970746e+00,NaN,1,0,3,1
61,1005,6,113,69,2,2,1,3.659597e+00,NaN,1,0,3,1
61,1006,6,111,34,1,1,1,6.768499e-01,NaN,1,1,3,1
61,1007,6,77,35,1,1,1,1.701392e-01,NaN,1,1,2,1
61,1008,6,106,72,2,2,1,7.285262e-01,NaN,1,0,3,1
61,1009,6,94,39,1,2,0,1.897049e-01,NaN,1,0,2,1
61,1010,6,59,53,2,2,1,2.851742e-01,NaN,1,1,2,1
61,1011,6,82,5,2,1,0,7.554358e-01,NaN,1,1,2,1
61,1012,6,108,9,2,2,1,3.245564e-01,NaN,1,0,3,1
61,1013,6,72,70,1,2,0,1.005343e+00,NaN,1,1,2,1
61,1014,6,6,38,1,1,1,3.061972e+00,NaN,1,0,1,1
61,1015,6,19,15,2,2,1,2.525784e-01,NaN,1,0,1,1
61,1016,6,31,45,2,1,0,1.264957e-01,NaN,1,1,1,1
61,1017,6,87,30,1,1,1,4.803485e-01,NaN,1,0,2,1
61,1018,6,60,63,2,2,1,1.395270e+00,NaN,1,0,2,1
61,1019,6,135,49,2,2,1,4.553972e-01,NaN,1,0,3,1
61,1020,6,2,71,2,2,1,4.359963e-01,NaN,1,1,1,1
61,1021,6,89,51,1,1,1,1.028577e+00,NaN,1,1,2,1
61,1022,6,16,40,2,1,0,2.363177e-01,NaN,1,1,1,1
