Subject,Trial,Cond,ImageNum,CueNum,Correct,Resp,Accuracy,RT,CueRep,ImageType,Baseline,Category,Block
58,1,1,13,NaN,NaN,1,NaN,3.163646e-01,NaN,0,0,1,1
58,2,1,116,NaN,NaN,1,NaN,3.380152e-01,NaN,1,1,3,1
58,3,1,24,NaN,NaN,2,NaN,9.948009e-01,NaN,0,1,1,1
58,4,1,7,NaN,NaN,1,NaN,3.510211e-01,NaN,2,1,1,1
58,5,1,82,NaN,NaN,1,NaN,8.074351e-01,NaN,2,0,2,1
58,6,1,140,NaN,NaN,1,NaN,3.743479e-01,NaN,0,0,3,1
58,7,1,105,NaN,NaN,1,NaN,1.691796e-01,NaN,2,0,3,1
58,8,1,142,NaN,NaN,1,NaN,2.653561e+00,NaN,1,0,3,1
58,9,1,50,NaN,NaN,1,NaN,3.788789e-01,NaN,1,0,2,1
58,10,1,64,NaN,NaN,1,NaN,3.145999e-01,NaN,2,1,2,1
58,11,1,94,NaN,NaN,1,NaN,5.989635e-01,NaN,0,0,2,1
58,12,1,69,NaN,NaN,1,NaN,5.153963e-01,NaN,0,0,2,1
58,13,1,9,NaN,NaN,1,NaN,1.381787e+00,NaN,2,1,1,1
58,14,1,15,NaN,NaN,1,NaN,3.928328e-01,NaN,1,0,1,1
58,15,1,12,NaN,NaN,1,NaN,2.285457e+00,NaN,0,0,1,1
58,16,1,32,NaN,NaN,1,NaN,2.035731e+00,NaN,0,0,1,1
58,17,1,114,NaN,NaN,1,NaN,3.721512e-01,NaN,0,0,3,1
58,18,1,119,NaN,NaN,1,NaN,5.918632e-01,NaN,0,0,3,1
58,19,1,132,NaN,NaN,1,NaN,2.571572e-01,NaN,0,0,3,1
58,20,1,42,NaN,NaN,1,NaN,9.383239e-01,NaN,0,1,1,1
58,21,1,14,NaN,NaN,1,NaN,1.076583e+00,NaN,2,1,1,1
58,22,1,75,NaN,NaN,1,NaN,8.009913e-01,NaN,0,0,2,1
58,23,1,65,NaN,NaN,1,NaN,5.330723e-01,NaN,0,0,2,1
58,24,1,23,NaN,NaN,1,NaN,1.396083e+00,NaN,1,0,1,1
58,25,1,115,NaN,NaN,1,NaN,1.742063e-01,NaN,2,1,3,1
58,26,1,48,NaN,NaN,1,NaN,1.763665e+00,NaN,0,0,1,1
58,27,1,52,NaN,NaN,1,NaN,2.321750e-01,NaN,0,1,2,1
58,28,1,143,NaN,NaN,1,NaN,1.802114e+00,NaN,2,0,3,1
58,29,1,106,NaN,NaN,1,NaN,1.874319e-01,NaN,2,0,3,1
58,30,1,59,NaN,NaN,1,NaN,3.609427e-01,NaN,0,0,2,1
58,31,1,101,NaN,NaN,1,NaN,2.206961e+00,NaN,0,1,3,1
58,32,1,134,NaN,NaN,1,NaN,2.225394e+00,NaN,2,0,3,1
58,33,1,100,NaN,NaN,1,NaN,4.020187e-01,NaN,0,0,3,1
58,34,1,136,NaN,NaN,1,NaN,1.661261e+00,NaN,0,0,3,1
58,35,1,102,NaN,NaN,1,NaN,3.826573e-01,NaN,2,0,3,1
58,36,1,48,NaN,NaN,1,NaN,4.366812e-01,NaN,1,0,1,1
58,37,1,122,NaN,NaN,1,NaN,9.262293e-01,NaN,1,0,3,1
58,38,1,109,NaN,NaN,1,NaN,2.151045e-01,NaN,0,0,3,1
58,39,1,56,NaN,NaN,1,NaN,1.636832e+00,NaN,2,0,2,1
58,40,1,47,NaN,NaN,1,NaN,1.734512e+00,NaN,0,0,1,1
58,41,1,136,NaN,NaN,1,NaN,1.815364e-01,NaN,1,0,3,1
58,42,1,3,NaN,NaN,1,NaN,1.941493e+00,NaN,0,0,1,1
58,43,1,15,NaN,NaN,1,NaN,1.418221e+00,NaN,0,0,1,1
58,44,1,80,NaN,NaN,1,NaN,8.019311e-01,NaN,0,0,2,1
58,45,1,50,NaN,NaN,1,NaN,3.185596e+00,NaN,0,0,2,1
58,46,1,6,NaN,NaN,2,NaN,3.194643e-01,NaN,0,0,1,1
58,47,1,131,NaN,NaN,1,NaN,4.982447e-01,NaN,1,0,3,1
58,48,1,78,NaN,NaN,1,NaN,2.258709e-01,NaN,0,0,2,1
58,49,1,124,NaN,NaN,1,NaN,1.496401e+00,NaN,2,1,3,1
58,50,1,127,NaN,NaN,1,NaN,2.572588e-01,NaN,2,0,3,1
58,51,1,46,NaN,NaN,1,NaN,3.405560e+00,NaN,1,1,1,1
58,52,1,9,NaN,NaN,1,NaN,7.296362e-01,NaN,0,1,1,1
58,53,1,34,NaN,NaN,1,NaN,3.275237e-01,NaN,0,0,1,1
58,54,1,130,NaN,NaN,1,NaN,2.635436e+00,NaN,0,0,3,1
58,55,1,22,NaN,NaN,1,NaN,1.563914e-01,NaN,0,1,1,1
58,56,1,8,NaN,NaN,1,NaN,1.365850e+00,NaN,0,0,1,1
58,57,1,17,NaN,NaN,1,NaN,1.442122e+00,NaN,2,0,1,1
58,58,1,138,NaN,NaN,1,NaN,4.927304e-01,NaN,0,0,3,1
58,59,1,23,NaN,NaN,1,NaN,1.824775e-01,NaN,0,0,1,1
58,60,1,26,NaN,NaN,1,NaN,1.413006e+00,NaN,0,1,1,1
58,61,1,88,NaN,NaN,1,NaN,1.188320e+00,NaN,0,0,2,1
58,62,1,27,NaN,NaN,1,NaN,1.923595e+00,NaN,2,0,1,1
58,63,1,43,NaN,NaN,1,NaN,5.538362e-01,NaN,0,1,1,1
58,64,1,103,NaN,NaN,1,NaN,8.420851e-01,NaN,0,0,3,1
58,65,1,80,NaN,NaN,1,NaN,6.509052e-01,NaN,2,0,2,1
58,66,1,140,NaN,NaN,1,NaN,6.144390e-01,NaN,2,0,3,1
58,67,1,75,NaN,NaN,1,NaN,1.090946e+00,NaN,1,0,2,1
58,68,1,57,NaN,NaN,1,NaN,1.157853e-01,NaN,0,1,2,1
58,69,1,54,NaN,NaN,1,NaN,1.066883e+00,NaN,2,0,2,1
58,70,1,138,NaN,NaN,1,NaN,6.131629e-01,NaN,1,0,3,1
58,71,1,61,NaN,NaN,1,NaN,6.073515e-01,NaN,0,1,2,1
58,72,1,90,NaN,NaN,1,NaN,7.274418e-01,NaN,0,1,2,1
58,73,1,74,NaN,NaN,1,NaN,9.430230e-01,NaN,1,0,2,1
58,74,1,113,NaN,NaN,2,NaN,2.103336e+00,NaN,0,0,3,1
58,75,1,12,NaN,NaN,1,NaN,4.314160e-01,NaN,2,0,1,1
58,76,1,77,NaN,NaN,1,NaN,8.750103e-01,NaN,1,0,2,1
58,77,1,19,NaN,NaN,1,NaN,1.381036e+00,NaN,0,0,1,1
58,78,1,6,NaN,NaN,1,NaN,4.883217e-01,NaN,1,0,1,1
58,79,1,99,NaN,NaN,1,NaN,1.748585e+00,NaN,0,1,3,1
58,80,1,81,NaN,NaN,1,NaN,2.227524e+00,NaN,0,0,2,1
58,81,1,51,NaN,NaN,1,NaN,8.110124e-01,NaN,0,0,2,1
58,82,1,120,NaN,NaN,1,NaN,6.348893e-01,NaN,0,0,3,1
58,83,1,41,NaN,NaN,1,NaN,1.833024e+00,NaN,1,0,1,1
58,84,1,5,NaN,NaN,1,NaN,9.068745e-01,NaN,1,0,1,1
58,85,1,81,NaN,NaN,1,NaN,1.887721e+00,NaN,1,0,2,1
58,86,1,38,NaN,NaN,1,NaN,1.252827e+00,NaN,0,0,1,1
58,87,1,11,NaN,NaN,1,NaN,1.912768e-01,NaN,1,1,1,1
58,88,1,113,NaN,NaN,1,NaN,2.678437e+00,NaN,1,0,3,1
58,89,1,118,NaN,NaN,1,NaN,1.696473e+00,NaN,1,1,3,1
58,90,1,104,NaN,NaN,1,NaN,2.266238e-01,NaN,1,0,3,1
58,91,1,73,NaN,NaN,2,NaN,7.377986e-01,NaN,2,0,2,1
58,92,1,123,NaN,NaN,1,NaN,6.642129e-01,NaN,2,0,3,1
58,93,1,90,NaN,NaN,1,NaN,2.189365e+00,NaN,2,1,2,1
58,94,1,125,NaN,NaN,1,NaN,2.223558e-01,NaN,2,0,3,1
58,95,1,55,NaN,NaN,1,NaN,4.431267e-01,NaN,1,0,2,1
58,96,1,117,NaN,NaN,1,NaN,6.996867e-01,NaN,0,1,3,1
58,97,1,2,NaN,NaN,1,NaN,3.624973e-01,NaN,2,0,1,1
58,98,1,134,NaN,NaN,1,NaN,2.278076e+00,NaN,0,0,3,1
58,99,1,25,NaN,NaN,1,NaN,4.951368e-01,NaN,0,0,1,1
58,100,1,76,NaN,NaN,1,NaN,1.639531e+00,NaN,1,1,2,1
58,101,1,41,NaN,NaN,1,NaN,1.685034e-01,NaN,0,0,1,1
58,102,1,66,NaN,NaN,1,NaN,6.262694e-01,NaN,1,1,2,1
58,103,1,20,NaN,NaN,1,NaN,6.549748e-01,NaN,0,0,1,1
58,104,1,111,NaN,NaN,2,NaN,2.672135e-01,NaN,2,0,3,1
58,105,1,70,NaN,NaN,1,NaN,2.304828e-01,NaN,0,0,2,1
58,106,1,78,NaN,NaN,1,NaN,7.755444e-01,NaN,1,0,2,1
58,107,1,96,NaN,NaN,1,NaN,2.880817e-01,NaN,1,0,2,1
58,108,1,128,NaN,NaN,1,NaN,1.839274e+00,NaN,0,0,3,1
58,109,1,36,NaN,NaN,1,NaN,3.506007e-01,NaN,2,0,1,1
58,110,1,110,NaN,NaN,1,NaN,9.061288e-01,NaN,1,1,3,1
58,111,1,1,NaN,NaN,1,NaN,3.884896e-01,NaN,0,0,1,1
58,112,1,10,NaN,NaN,2,NaN,1.443282e-01,NaN,2,0,1,1
58,113,1,53,NaN,NaN,1,NaN,1.027222e+00,NaN,0,1,2,1
58,114,1,92,NaN,NaN,1,NaN,3.742127e-01,NaN,1,0,2,1
58,115,1,61,NaN,NaN,1,NaN,6.319037e-01,NaN,2,1,2,1
58,116,1,139,NaN,NaN,1,NaN,1.159020e+00,NaN,1,0,3,1
58,117,1,35,NaN,NaN,1,NaN,4.149884e-01,NaN,0,0,1,1
58,118,1,94,NaN,NaN,1,NaN,2.470100e+00,NaN,2,0,2,1
58,119,1,88,NaN,NaN,1,NaN,2.077789e+00,NaN,2,0,2,1
58,120,1,79,NaN,NaN,1,NaN,9.625401e-01,NaN,0,0,2,1
58,121,1,144,NaN,NaN,1,NaN,1.321589e+00,NaN,0,0,3,1
58,122,1,8,NaN,NaN,1,NaN,2.226815e+00,NaN,2,0,1,1
58,123,1,36,NaN,NaN,1,NaN,3.842205e-01,NaN,0,0,1,1
58,124,1,82,NaN,NaN,1,NaN,2.594004e-01,NaN,0,0,2,1
58,125,1,38,NaN,NaN,1,NaN,7.375527e-01,NaN,2,0,1,1
58,126,1,55,NaN,NaN,1,NaN,2.022811e-01,NaN,0,0,2,1
58,127,1,37,NaN,NaN,1,NaN,8.913926e-01,NaN,2,0,1,1
58,128,1,33,NaN,NaN,1,NaN,4.121469e-01,NaN,1,0,1,1
58,129,1,87,NaN,NaN,1,NaN,3.412916e+00,NaN,0,0,2,1
58,130,1,110,NaN,NaN,1,NaN,6.192379e-01,NaN,0,1,3,1
58,131,1,27,NaN,NaN,1,NaN,4.138585e-01,NaN,0,0,1,1
58,132,1,11,NaN,NaN,1,NaN,1.558112e+00,NaN,0,1,1,1
58,133,1,29,NaN,NaN,1,NaN,1.716323e+00,NaN,0,0,1,1
58,134,1,77,NaN,NaN,1,NaN,3.672964e-01,NaN,0,0,2,1
58,135,1,18,NaN,NaN,1,NaN,2.106305e+00,NaN,2,1,1,1
58,136,1,85,NaN,NaN,1,NaN,5.759227e-01,NaN,0,0,2,1
58,137,1,7,NaN,NaN,1,NaN,3.195682e+00,NaN,0,1,1,1
58,138,1,72,NaN,NaN,1,NaN,1.899665e-01,NaN,0,0,2,1
58,139,1,74,NaN,NaN,1,NaN,3.947592e-01,NaN,0,0,2,1
58,140,1,137,NaN,NaN,1,NaN,4.613491e-01,NaN,1,0,3,1
58,141,1,31,NaN,NaN,1,NaN,1.137130e+00,NaN,0,0,1,1
58,142,1,93,NaN,NaN,2,NaN,9.246059e-01,NaN,0,1,2,1
58,143,1,47,NaN,NaN,1,NaN,5.862624e-01,NaN,1,0,1,1
58,144,1,51,NaN,NaN,1,NaN,4.169785e+00,NaN,2,0,2,1
58,145,1,107,NaN,NaN,1,NaN,3.233490e-01,NaN,0,1,3,1
58,146,1,60,NaN,NaN,1,NaN,3.741876e-01,NaN,0,0,2,1
58,147,1,126,NaN,NaN,1,NaN,6.297695e-01,NaN,1,0,3,1
58,148,1,21,NaN,NaN,1,NaN,6.897020e-01,NaN,0,0,1,1
58,149,1,68,NaN,NaN,1,NaN,7.105027e-01,NaN,1,1,2,1
58,150,1,108,NaN,NaN,1,NaN,5.656599e-01,NaN,1,0,3,1
58,151,1,119,NaN,NaN,1,NaN,3.025605e-01,NaN,1,0,3,1
58,152,1,5,NaN,NaN,1,NaN,2.950063e-01,NaN,0,0,1,1
58,153,1,98,NaN,NaN,1,NaN,5.854992e-01,NaN,2,0,3,1
58,154,1,33,NaN,NaN,1,NaN,8.658576e-01,NaN,0,0,1,1
58,155,1,143,NaN,NaN,1,NaN,1.026180e+00,NaN,0,0,3,1
58,156,1,1,NaN,NaN,1,NaN,1.396820e+00,NaN,2,0,1,1
58,157,1,13,NaN,NaN,1,NaN,9.618530e-01,NaN,1,0,1,1
58,158,1,65,NaN,NaN,1,NaN,6.895203e-01,NaN,1,0,2,1
58,159,1,31,NaN,NaN,1,NaN,9.091755e-01,NaN,2,0,1,1
58,160,1,121,NaN,NaN,1,NaN,1.397648e-01,NaN,1,0,3,1
58,161,1,96,NaN,NaN,1,NaN,6.318190e-01,NaN,0,0,2,1
58,162,1,30,NaN,NaN,1,NaN,1.062915e+00,NaN,1,0,1,1
58,163,1,106,NaN,NaN,2,NaN,2.185618e-01,NaN,0,0,3,1
58,164,1,63,NaN,NaN,1,NaN,3.507145e-01,NaN,0,0,2,1
58,165,1,73,NaN,NaN,1,NaN,1.192952e+00,NaN,0,0,2,1
58,166,1,132,NaN,NaN,1,NaN,7.492252e-01,NaN,1,0,3,1
58,167,1,28,NaN,NaN,1,NaN,3.111947e-01,NaN,0,0,1,1
58,168,1,104,NaN,NaN,1,NaN,2.661053e+00,NaN,0,0,3,1
58,169,1,116,NaN,NaN,1,NaN,8.318628e-01,NaN,0,1,3,1
58,170,1,63,NaN,NaN,1,NaN,1.160285e+00,NaN,1,0,2,1
58,171,1,35,NaN,NaN,1,NaN,1.977474e+00,NaN,1,0,1,1
58,172,1,58,NaN,NaN,1,NaN,1.482655e+00,NaN,0,1,2,1
58,173,1,127,NaN,NaN,1,NaN,1.101509e+00,NaN,0,0,3,1
58,174,1,25,NaN,NaN,2,NaN,3.293462e+00,NaN,1,0,1,1
58,175,1,72,NaN,NaN,1,NaN,8.187989e-01,NaN,2,0,2,1
58,176,1,118,NaN,NaN,1,NaN,6.325548e-01,NaN,0,1,3,1
58,177,1,101,NaN,NaN,1,NaN,1.348266e+00,NaN,1,1,3,1
58,178,1,105,NaN,NaN,1,NaN,3.214867e+00,NaN,0,0,3,1
58,179,1,87,NaN,NaN,1,NaN,4.411479e-01,NaN,2,0,2,1
58,180,1,62,NaN,NaN,1,NaN,4.911602e-01,NaN,0,0,2,1
58,181,1,69,NaN,NaN,1,NaN,2.335460e+00,NaN,2,0,2,1
58,182,1,86,NaN,NaN,1,NaN,2.978575e+00,NaN,1,0,2,1
58,183,1,112,NaN,NaN,1,NaN,5.399502e-01,NaN,0,1,3,1
58,184,1,58,NaN,NaN,1,NaN,1.404778e+00,NaN,1,1,2,1
58,185,1,34,NaN,NaN,1,NaN,1.472353e-01,NaN,2,0,1,1
58,186,1,89,NaN,NaN,1,NaN,6.829693e-01,NaN,0,1,2,1
58,187,1,109,NaN,NaN,1,NaN,1.018662e+00,NaN,2,0,3,1
58,188,1,20,NaN,NaN,1,NaN,3.742524e-01,NaN,1,0,1,1
58,189,1,19,NaN,NaN,1,NaN,1.818606e-01,NaN,2,0,1,1
58,190,1,43,NaN,NaN,1,NaN,1.976573e+00,NaN,1,1,1,1
58,191,1,84,NaN,NaN,1,NaN,2.183426e+00,NaN,2,0,2,1
58,192,1,64,NaN,NaN,1,NaN,8.047838e-01,NaN,0,1,2,1
58,193,1,10,NaN,NaN,1,NaN,2.170130e+00,NaN,0,0,1,1
58,194,1,121,NaN,NaN,1,NaN,2.070414e+00,NaN,0,0,3,1
58,195,1,76,NaN,NaN,1,NaN,1.494334e+00,NaN,0,1,2,1
58,196,1,100,NaN,NaN,1,NaN,1.013238e+00,NaN,1,0,3,1
58,197,1,86,NaN,NaN,1,NaN,2.792509e+00,NaN,0,0,2,1
58,198,1,71,NaN,NaN,1,NaN,1.156190e+00,NaN,0,0,2,1
58,199,1,85,NaN,NaN,1,NaN,1.488406e+00,NaN,1,0,2,1
58,200,1,124,NaN,NaN,1,NaN,6.049087e-01,NaN,0,1,3,1
58,201,1,21,NaN,NaN,1,NaN,1.416769e+00,NaN,1,0,1,1
58,202,1,97,NaN,NaN,1,NaN,7.675800e-02,NaN,0,0,3,1
58,203,1,89,NaN,NaN,1,NaN,1.374871e+00,NaN,2,1,2,1
58,204,1,95,NaN,NaN,1,NaN,7.025639e-01,NaN,0,0,2,1
58,205,1,128,NaN,NaN,1,NaN,9.328665e+00,NaN,2,0,3,1
58,206,1,28,NaN,NaN,1,NaN,1.344818e-01,NaN,2,0,1,1
58,207,1,130,NaN,NaN,1,NaN,1.042764e+00,NaN,2,0,3,1
58,208,1,129,NaN,NaN,1,NaN,1.151416e+00,NaN,0,0,3,1
58,209,1,122,NaN,NaN,1,NaN,9.947063e-01,NaN,0,0,3,1
58,210,1,141,NaN,NaN,1,NaN,2.582511e-01,NaN,0,0,3,1
58,211,1,44,NaN,NaN,1,NaN,5.138411e-01,NaN,2,0,1,1
58,212,1,39,NaN,NaN,1,NaN,5.795470e-01,NaN,0,0,1,1
58,213,1,68,NaN,NaN,1,NaN,2.048550e+00,NaN,0,1,2,1
58,214,1,14,NaN,NaN,1,NaN,9.641860e-01,NaN,0,1,1,1
58,215,1,62,NaN,NaN,1,NaN,8.713026e-01,NaN,1,0,2,1
58,216,1,107,NaN,NaN,1,NaN,5.224792e-01,NaN,1,1,3,1
58,217,1,98,NaN,NaN,1,NaN,1.101648e+00,NaN,0,0,3,1
58,218,1,18,NaN,NaN,1,NaN,9.934785e-01,NaN,0,1,1,1
58,219,1,144,NaN,NaN,1,NaN,5.350449e-01,NaN,2,0,3,1
58,220,1,54,NaN,NaN,1,NaN,4.268426e-01,NaN,0,0,2,1
58,221,1,49,NaN,NaN,1,NaN,1.773327e-01,NaN,0,0,2,1
58,222,1,95,NaN,NaN,1,NaN,1.190902e+00,NaN,2,0,2,1
58,223,1,26,NaN,NaN,1,NaN,7.735193e-01,NaN,2,1,1,1
58,224,1,120,NaN,NaN,1,NaN,8.856964e-01,NaN,2,0,3,1
58,225,1,40,NaN,NaN,1,NaN,7.532110e-01,NaN,1,0,1,1
58,226,1,111,NaN,NaN,1,NaN,2.079527e+00,NaN,0,0,3,1
58,227,1,135,NaN,NaN,1,NaN,2.469094e+00,NaN,1,0,3,1
58,228,1,4,NaN,NaN,1,NaN,9.802144e-01,NaN,0,0,1,1
58,229,1,4,NaN,NaN,1,NaN,7.610824e-01,NaN,1,0,1,1
58,230,1,3,NaN,NaN,1,NaN,3.291164e-01,NaN,1,0,1,1
58,231,1,45,NaN,NaN,1,NaN,1.592544e-01,NaN,0,1,1,1
58,232,1,44,NaN,NaN,2,NaN,2.193284e+00,NaN,0,0,1,1
58,233,1,24,NaN,NaN,1,NaN,3.360611e-01,NaN,1,1,1,1
58,234,1,30,NaN,NaN,1,NaN,3.047304e-01,NaN,0,0,1,1
58,235,1,22,NaN,NaN,1,NaN,1.427896e+00,NaN,1,1,1,1
58,236,1,133,NaN,NaN,1,NaN,1.267681e+00,NaN,1,0,3,1
58,237,1,112,NaN,NaN,1,NaN,1.652478e+00,NaN,2,1,3,1
58,238,1,103,NaN,NaN,1,NaN,3.667105e-01,NaN,2,0,3,1
58,239,1,139,NaN,NaN,1,NaN,7.964746e-01,NaN,0,0,3,1
58,240,1,117,NaN,NaN,2,NaN,2.051672e-01,NaN,2,1,3,1
58,241,1,93,NaN,NaN,1,NaN,5.924841e-01,NaN,2,1,2,1
58,242,1,141,NaN,NaN,1,NaN,9.472014e-01,NaN,1,0,3,1
58,243,1,45,NaN,NaN,1,NaN,2.246521e+00,NaN,2,1,1,1
58,244,1,42,NaN,NaN,1,NaN,2.937699e+00,NaN,2,1,1,1
58,245,1,83,NaN,NaN,2,NaN,1.836998e-01,NaN,0,1,2,1
58,246,1,108,NaN,NaN,1,NaN,6.830211e-01,NaN,0,0,3,1
58,247,1,102,NaN,NaN,1,NaN,3.174301e-01,NaN,0,0,3,1
58,248,1,32,NaN,NaN,1,NaN,5.298204e-01,NaN,2,0,1,1
58,249,1,115,NaN,NaN,1,NaN,5.137059e-01,NaN,0,1,3,1
58,250,1,135,NaN,NaN,1,NaN,1.122067e+00,NaN,0,0,3,1
58,251,1,137,NaN,NaN,1,NaN,8.331113e-01,NaN,0,0,3,1
58,252,1,83,NaN,NaN,1,NaN,1.925524e-01,NaN,1,1,2,1
58,253,1,91,NaN,NaN,1,NaN,3.121254e-01,NaN,1,1,2,1
58,254,1,123,NaN,NaN,1,NaN,2.708872e-01,NaN,0,0,3,1
58,255,1,91,NaN,NaN,1,NaN,9.077693e-01,NaN,0,1,2,1
58,256,1,59,NaN,NaN,1,NaN,1.427289e-01,NaN,2,0,2,1
58,257,1,92,NaN,NaN,1,NaN,6.196493e-01,NaN,0,0,2,1
58,258,1,70,NaN,NaN,2,NaN,2.102552e+00,NaN,2,0,2,1
58,259,1,99,NaN,NaN,1,NaN,1.633518e-01,NaN,1,1,3,1
58,260,1,52,NaN,NaN,1,NaN,9.773391e-01,NaN,2,1,2,1
58,261,1,16,NaN,NaN,1,NaN,5.247478e-01,NaN,0,0,1,1
58,262,1,29,NaN,NaN,1,NaN,2.967097e-01,NaN,1,0,1,1
58,263,1,71,NaN,NaN,1,NaN,2.362934e-01,NaN,2,0,2,1
58,264,1,17,NaN,NaN,1,NaN,3.090147e-01,NaN,0,0,1,1
58,265,1,60,NaN,NaN,1,NaN,5.191509e-01,NaN,1,0,2,1
58,266,1,133,NaN,NaN,1,NaN,1.208781e+00,NaN,0,0,3,1
58,267,1,79,NaN,NaN,1,NaN,1.723519e-01,NaN,1,0,2,1
58,268,1,126,NaN,NaN,1,NaN,1.741578e+00,NaN,0,0,3,1
58,269,1,84,NaN,NaN,1,NaN,5.573833e-01,NaN,0,0,2,1
58,270,1,46,NaN,NaN,1,NaN,2.318635e-01,NaN,0,1,1,1
58,271,1,131,NaN,NaN,1,NaN,1.042673e+00,NaN,0,0,3,1
58,272,1,142,NaN,NaN,1,NaN,1.455781e-01,NaN,0,0,3,1
58,273,1,57,NaN,NaN,1,NaN,7.974373e-01,NaN,1,1,2,1
58,274,1,16,NaN,NaN,1,NaN,2.760065e-01,NaN,2,0,1,1
58,275,1,97,NaN,NaN,1,NaN,4.859250e-01,NaN,2,0,3,1
58,276,1,40,NaN,NaN,1,NaN,1.889167e+00,NaN,0,0,1,1
58,277,1,53,NaN,NaN,1,NaN,4.918091e-01,NaN,2,1,2,1
58,278,1,67,NaN,NaN,1,NaN,4.208041e-01,NaN,2,0,2,1
58,279,1,66,NaN,NaN,1,NaN,1.708500e-01,NaN,0,1,2,1
58,280,1,129,NaN,NaN,1,NaN,5.358147e-01,NaN,2,0,3,1
58,281,1,125,NaN,NaN,1,NaN,9.643860e-01,NaN,0,0,3,1
58,282,1,49,NaN,NaN,1,NaN,1.264317e+00,NaN,1,0,2,1
58,283,1,39,NaN,NaN,2,NaN,1.229065e+00,NaN,1,0,1,1
58,284,1,67,NaN,NaN,1,NaN,4.812252e-01,NaN,0,0,2,1
58,285,1,37,NaN,NaN,1,NaN,1.119014e+00,NaN,0,0,1,1
58,286,1,2,NaN,NaN,2,NaN,9.687451e-01,NaN,0,0,1,1
58,287,1,114,NaN,NaN,1,NaN,6.127511e-01,NaN,2,0,3,1
58,288,1,56,NaN,NaN,1,NaN,6.748872e-01,NaN,0,0,2,1
58,328,2,39,55,1,1,1,1.733065e+00,NaN,1,0,1,1
58,329,2,91,62,1,1,1,2.358846e+00,NaN,1,1,2,1
58,330,2,49,24,2,2,1,1.071698e+00,NaN,1,0,2,1
58,331,2,66,65,2,2,1,1.335269e+00,NaN,1,1,2,1
58,332,2,29,3,2,2,1,2.297385e+00,NaN,1,0,1,1
58,333,2,121,41,2,2,1,2.841630e+00,NaN,1,0,3,1
58,334,2,108,54,1,1,1,2.677722e-01,NaN,1,0,3,1
58,335,2,110,23,1,1,1,4.609302e-01,NaN,1,1,3,1
58,336,2,68,18,2,2,1,4.164481e+00,NaN,1,1,2,1
58,337,2,47,45,1,1,1,6.946844e-01,NaN,1,0,1,1
58,338,2,126,16,1,1,1,2.339825e+00,NaN,1,0,3,1
58,339,2,81,30,2,2,1,9.396800e-01,NaN,1,0,2,1
58,340,2,104,39,1,1,1,3.330578e+00,NaN,1,0,3,1
58,341,2,142,63,1,1,1,1.426817e+00,NaN,1,0,3,1
58,342,2,6,36,2,2,1,1.710433e+00,NaN,1,0,1,1
58,343,2,3,17,2,2,1,2.005673e-01,NaN,1,0,1,1
58,344,2,100,25,2,1,0,2.406561e+00,NaN,1,0,3,1
58,345,2,40,44,2,1,0,2.287157e+00,NaN,1,0,1,1
58,346,2,46,70,1,1,1,1.390185e+00,NaN,1,1,1,1
58,347,2,122,20,2,2,1,3.642943e-01,NaN,1,0,3,1
58,348,2,119,56,2,1,0,1.350117e+00,NaN,1,0,3,1
58,349,2,65,1,1,1,1,4.013259e-01,NaN,1,0,2,1
58,350,2,25,69,1,1,1,6.161726e-01,NaN,1,0,1,1
58,351,2,92,21,1,1,1,2.158682e-01,NaN,1,0,2,1
58,352,3,39,55,1,1,1,3.822895e+00,NaN,1,0,1,1
58,353,3,65,1,1,2,0,2.874527e-01,NaN,1,0,2,1
58,354,3,122,20,1,2,0,5.642754e-01,NaN,1,0,3,1
58,355,3,40,44,2,2,1,8.054897e-01,NaN,1,0,1,1
58,356,3,49,24,1,2,0,3.881095e-01,NaN,1,0,2,1
58,357,3,66,65,1,1,1,2.519728e-01,NaN,1,1,2,1
58,358,3,29,3,1,1,1,1.962054e-01,NaN,1,0,1,1
58,359,3,119,56,1,1,1,4.087761e-01,NaN,1,0,3,1
58,360,3,104,39,1,1,1,5.132204e-01,NaN,1,0,3,1
58,361,3,121,41,2,2,1,2.198140e-01,NaN,1,0,3,1
58,362,3,142,63,1,2,0,1.944259e-01,NaN,1,0,3,1
58,363,3,68,18,2,1,0,1.995484e+00,NaN,1,1,2,1
58,364,3,46,70,2,2,1,1.495258e+00,NaN,1,1,1,1
58,365,3,108,54,1,1,1,4.692960e-01,NaN,1,0,3,1
58,366,3,25,69,2,2,1,9.836624e-01,NaN,1,0,1,1
58,367,3,47,45,1,1,1,4.522217e-01,NaN,1,0,1,1
58,368,3,100,25,1,1,1,1.682875e-01,NaN,1,0,3,1
58,369,3,126,16,2,2,1,9.033056e-01,NaN,1,0,3,1
58,370,3,81,30,2,2,1,8.275947e-01,NaN,1,0,2,1
58,371,3,3,17,1,1,1,2.282834e-01,NaN,1,0,1,1
58,372,3,6,36,1,1,1,4.639490e-01,NaN,1,0,1,1
58,373,3,91,62,1,1,1,1.320645e+00,NaN,1,1,2,1
58,374,3,92,21,1,1,1,1.030347e+00,NaN,1,0,2,1
58,375,3,110,23,2,1,0,8.054102e-01,NaN,1,1,3,1
58,400,2,24,15,1,1,1,6.974460e-01,NaN,1,1,1,2
58,401,2,132,27,1,1,1,6.356109e-01,NaN,1,0,3,2
58,402,2,85,53,2,2,1,9.538206e-01,NaN,1,0,2,2
58,403,2,48,12,2,2,1,2.369193e+00,NaN,1,0,1,2
58,404,2,74,19,1,1,1,1.353608e+00,NaN,1,0,2,2
58,405,2,35,11,1,2,0,2.477647e-01,NaN,1,0,1,2
58,406,2,62,52,2,2,1,2.307568e+00,NaN,1,0,2,2
58,407,2,13,32,2,2,1,6.097638e-01,NaN,1,0,1,2
58,408,2,116,6,2,2,1,2.205253e-01,NaN,1,1,3,2
58,409,2,138,48,1,1,1,3.047902e-01,NaN,1,0,3,2
58,410,2,77,43,2,1,0,6.489243e-01,NaN,1,0,2,2
58,411,2,135,10,2,2,1,1.195660e+00,NaN,1,0,3,2
58,412,2,43,22,2,2,1,6.925335e-01,NaN,1,1,1,2
58,413,2,20,37,1,1,1,9.318646e-01,NaN,1,0,1,2
58,414,2,57,42,2,2,1,1.500335e+00,NaN,1,1,2,2
58,415,2,30,57,1,1,1,3.663590e-01,NaN,1,0,1,2
58,416,2,141,49,1,2,0,1.108023e+00,NaN,1,0,3,2
58,417,2,79,14,2,1,0,2.785679e+00,NaN,1,0,2,2
58,418,2,118,4,1,2,0,3.846073e+00,NaN,1,1,3,2
58,419,2,137,51,1,1,1,1.011924e+00,NaN,1,0,3,2
58,420,2,131,38,1,1,1,1.232987e+00,NaN,1,0,3,2
58,421,2,41,29,1,1,1,1.067147e+00,NaN,1,0,1,2
58,422,2,113,67,2,2,1,2.250948e+00,NaN,1,0,3,2
58,423,2,58,66,2,2,1,6.250961e-01,NaN,1,1,2,2
58,424,3,62,52,1,1,1,2.509699e-01,NaN,1,0,2,2
58,425,3,30,57,1,1,1,5.582697e-01,NaN,1,0,1,2
58,426,3,79,14,2,1,0,6.944041e-01,NaN,1,0,2,2
58,427,3,57,42,1,1,1,6.792085e-01,NaN,1,1,2,2
58,428,3,13,32,2,2,1,2.429899e+00,NaN,1,0,1,2
58,429,3,137,51,2,2,1,1.082313e+00,NaN,1,0,3,2
58,430,3,74,19,2,2,1,1.088400e+00,NaN,1,0,2,2
58,431,3,20,37,2,1,0,4.971513e-01,NaN,1,0,1,2
58,432,3,118,4,2,1,0,3.765099e-01,NaN,1,1,3,2
58,433,3,116,6,1,2,0,2.405680e+00,NaN,1,1,3,2
58,434,3,135,10,1,1,1,2.255803e+00,NaN,1,0,3,2
58,435,3,141,49,1,1,1,5.457163e+00,NaN,1,0,3,2
58,436,3,24,15,1,1,1,2.724912e-01,NaN,1,1,1,2
58,437,3,58,66,2,1,0,1.160286e+00,NaN,1,1,2,2
58,438,3,132,27,1,1,1,6.271664e-01,NaN,1,0,3,2
58,439,3,131,38,2,2,1,3.773071e-01,NaN,1,0,3,2
58,440,3,85,53,2,2,1,6.420070e-01,NaN,1,0,2,2
58,441,3,43,22,2,2,1,5.355141e-01,NaN,1,1,1,2
58,442,3,113,67,1,1,1,1.652371e+00,NaN,1,0,3,2
58,443,3,35,11,1,1,1,7.994927e-01,NaN,1,0,1,2
58,444,3,77,43,2,2,1,1.399040e+00,NaN,1,0,2,2
58,445,3,138,48,2,1,0,1.391763e+00,NaN,1,0,3,2
58,446,3,48,12,2,2,1,1.718880e-01,NaN,1,0,1,2
58,447,3,41,29,2,2,1,2.368379e+00,NaN,1,0,1,2
58,472,2,139,64,2,2,1,3.205213e-01,NaN,1,0,3,3
58,473,2,136,13,2,2,1,2.707510e+00,NaN,1,0,3,3
58,474,2,50,33,1,1,1,1.213024e+00,NaN,1,0,2,3
58,475,2,33,40,2,2,1,1.837900e-01,NaN,1,0,1,3
58,476,2,22,58,1,1,1,7.332241e-01,NaN,1,1,1,3
58,477,2,75,34,2,2,1,5.430458e-01,NaN,1,0,2,3
58,478,2,60,47,2,2,1,5.811289e-01,NaN,1,0,2,3
58,479,2,101,8,2,2,1,5.538593e-01,NaN,1,1,3,3
58,480,2,83,72,2,1,0,2.574519e+00,NaN,1,1,2,3
58,481,2,63,68,1,1,1,1.066896e+00,NaN,1,0,2,3
58,482,2,96,60,1,1,1,2.638583e-01,NaN,1,0,2,3
58,483,2,99,61,1,1,1,9.101170e-01,NaN,1,1,3,3
58,484,2,21,28,2,2,1,1.671020e-01,NaN,1,0,1,3
58,485,2,55,7,1,1,1,6.710462e-01,NaN,1,0,2,3
58,486,2,15,9,1,2,0,9.940347e-01,NaN,1,0,1,3
58,487,2,86,71,1,1,1,1.998521e+00,NaN,1,0,2,3
58,488,2,107,5,2,2,1,3.863455e+00,NaN,1,1,3,3
58,489,2,78,26,1,1,1,2.045140e+00,NaN,1,0,2,3
58,490,2,11,35,2,2,1,6.938552e-01,NaN,1,1,1,3
58,491,2,23,50,1,1,1,7.808030e-01,NaN,1,0,1,3
58,492,2,133,2,2,2,1,7.037635e-01,NaN,1,0,3,3
58,493,2,5,46,2,1,0,1.641415e+00,NaN,1,0,1,3
58,494,2,76,59,2,2,1,2.504489e+00,NaN,1,1,2,3
58,495,2,4,31,2,2,1,9.459743e-01,NaN,1,0,1,3
58,496,3,22,58,1,2,0,5.124420e-01,NaN,1,1,1,3
58,497,3,11,35,2,2,1,2.125994e-01,NaN,1,1,1,3
58,498,3,50,33,1,1,1,4.994416e+00,NaN,1,0,2,3
58,499,3,99,61,2,1,0,4.351264e-01,NaN,1,1,3,3
58,500,3,136,13,2,2,1,5.234571e-01,NaN,1,0,3,3
58,501,3,133,2,2,2,1,1.927490e+00,NaN,1,0,3,3
58,502,3,60,47,2,1,0,8.544047e-01,NaN,1,0,2,3
58,503,3,83,72,1,1,1,1.159949e-01,NaN,1,1,2,3
58,504,3,33,40,2,1,0,5.013717e-01,NaN,1,0,1,3
58,505,3,4,31,1,1,1,9.316510e-01,NaN,1,0,1,3
58,506,3,5,46,1,2,0,1.235741e+00,NaN,1,0,1,3
58,507,3,139,64,2,2,1,1.318687e+00,NaN,1,0,3,3
58,508,3,55,7,1,1,1,9.140250e-01,NaN,1,0,2,3
58,509,3,15,9,2,2,1,1.827743e-01,NaN,1,0,1,3
58,510,3,96,60,2,2,1,1.677201e-01,NaN,1,0,2,3
58,511,3,23,50,1,1,1,1.448081e+00,NaN,1,0,1,3
58,512,3,86,71,1,1,1,4.781211e-01,NaN,1,0,2,3
58,513,3,78,26,1,1,1,1.980200e-01,NaN,1,0,2,3
58,514,3,21,28,1,1,1,2.160876e-01,NaN,1,0,1,3
58,515,3,76,59,2,1,0,3.467516e-01,NaN,1,1,2,3
58,516,3,63,68,1,1,1,1.429653e-01,NaN,1,0,2,3
58,517,3,107,5,2,2,1,2.956173e-01,NaN,1,1,3,3
58,518,3,75,34,2,2,1,9.675966e-01,NaN,1,0,2,3
58,519,3,101,8,2,1,0,4.152221e-01,NaN,1,1,3,3
58,544,4,71,45,2,1,0,6.523709e-01,NaN,2,0,2,1
58,545,4,82,27,1,1,1,4.534590e-01,NaN,2,0,2,1
58,546,4,103,24,1,1,1,1.824242e+00,NaN,2,0,3,1
58,547,4,7,65,1,2,0,2.790685e-01,NaN,2,1,1,1
58,548,4,52,58,2,2,1,2.458951e+00,NaN,2,1,2,1
58,549,4,120,3,2,2,1,1.892047e-01,NaN,2,0,3,1
58,550,4,56,32,1,1,1,4.595641e-01,NaN,2,0,2,1
58,551,4,61,70,1,1,1,1.072587e+00,NaN,2,1,2,1
58,552,4,45,61,2,2,1,1.345451e+00,NaN,2,1,1,1
58,553,4,112,72,1,1,1,9.463999e-01,NaN,2,1,3,1
58,554,4,8,1,2,2,1,1.363640e-01,NaN,2,0,1,1
58,555,4,2,60,2,2,1,1.028460e+00,NaN,2,0,1,1
58,556,4,140,37,1,1,1,7.507626e-01,NaN,2,0,3,1
58,557,4,89,23,2,2,1,9.089797e-01,NaN,2,1,2,1
58,558,4,84,67,2,2,1,4.226428e-01,NaN,2,0,2,1
58,559,4,124,15,2,1,0,1.240955e+00,NaN,2,1,3,1
58,560,4,72,48,2,2,1,1.696014e+00,NaN,2,0,2,1
58,561,4,128,44,2,2,1,1.136413e+00,NaN,2,0,3,1
58,562,4,105,21,2,2,1,2.641219e-01,NaN,2,0,3,1
58,563,4,102,33,2,2,1,3.880795e-01,NaN,2,0,3,1
58,564,4,127,50,2,2,1,4.812434e-01,NaN,2,0,3,1
58,565,4,54,29,2,2,1,2.558105e-01,NaN,2,0,2,1
58,566,4,94,20,1,1,1,1.056534e+00,NaN,2,0,2,1
58,567,4,19,71,1,1,1,4.484125e-01,NaN,2,0,1,1
58,592,4,95,16,2,2,1,5.280699e+00,NaN,2,0,2,2
58,593,4,97,34,1,1,1,9.494152e-01,NaN,2,0,3,2
58,594,4,125,12,2,1,0,4.844275e-01,NaN,2,0,3,2
58,595,4,10,43,1,1,1,1.357826e+00,NaN,2,0,1,2
58,596,4,59,69,2,2,1,2.562870e-01,NaN,2,0,2,2
58,597,4,26,6,2,2,1,1.553730e+00,NaN,2,1,1,2
58,598,4,27,38,2,2,1,2.329673e-01,NaN,2,0,1,2
58,599,4,9,66,1,1,1,3.353241e+00,NaN,2,1,1,2
58,600,4,34,64,1,1,1,4.476425e-01,NaN,2,0,1,2
58,601,4,144,57,1,1,1,9.039554e-01,NaN,2,0,3,2
58,602,4,18,62,2,2,1,2.838430e-01,NaN,2,1,1,2
58,603,4,28,39,2,2,1,1.987139e+00,NaN,2,0,1,2
58,604,4,53,22,1,2,0,1.140712e-01,NaN,2,1,2,2
58,605,4,31,51,2,2,1,1.222330e+00,NaN,2,0,1,2
58,606,4,109,7,2,2,1,3.943509e+00,NaN,2,0,3,2
58,607,4,12,26,2,2,1,3.760370e+00,NaN,2,0,1,2
58,608,4,70,46,2,2,1,1.046481e+00,NaN,2,0,2,2
58,609,4,64,35,1,1,1,9.935896e-01,NaN,2,1,2,2
58,610,4,67,9,2,2,1,5.167417e-01,NaN,2,0,2,2
58,611,4,123,31,1,1,1,1.439703e+00,NaN,2,0,3,2
58,612,4,73,25,2,2,1,1.990523e+00,NaN,2,0,2,2
58,613,4,38,63,2,2,1,1.364764e+00,NaN,2,0,1,2
58,614,4,130,11,2,2,1,3.973109e-01,NaN,2,0,3,2
58,615,4,111,47,2,2,1,5.817586e-01,NaN,2,0,3,2
58,640,4,98,14,1,1,1,6.135147e-01,NaN,2,0,3,3
58,641,4,106,53,1,1,1,4.248459e+00,NaN,2,0,3,3
58,642,4,1,68,2,2,1,7.627804e-01,NaN,2,0,1,3
58,643,4,16,30,1,1,1,2.480035e-01,NaN,2,0,1,3
58,644,4,37,10,2,2,1,4.751505e-01,NaN,2,0,1,3
58,645,4,143,28,2,2,1,9.227822e-01,NaN,2,0,3,3
58,646,4,44,56,1,1,1,1.971851e-01,NaN,2,0,1,3
58,647,4,90,4,2,2,1,3.030659e-01,NaN,2,1,2,3
58,648,4,69,17,2,1,0,7.696119e-01,NaN,2,0,2,3
58,649,4,88,54,1,1,1,9.437325e-01,NaN,2,0,2,3
58,650,4,117,42,2,2,1,4.560405e+00,NaN,2,1,3,3
58,651,4,134,36,1,2,0,6.225825e-01,NaN,2,0,3,3
58,652,4,42,8,1,1,1,3.734301e-01,NaN,2,1,1,3
58,653,4,32,13,2,1,0,6.303135e-01,NaN,2,0,1,3
58,654,4,129,55,1,1,1,2.092218e+00,NaN,2,0,3,3
58,655,4,51,40,1,1,1,4.692734e-01,NaN,2,0,2,3
58,656,4,80,41,2,2,1,7.670935e-01,NaN,2,0,2,3
58,657,4,17,52,1,1,1,2.243704e-01,NaN,2,0,1,3
58,658,4,93,5,2,2,1,1.187539e+00,NaN,2,1,2,3
58,659,4,114,19,1,2,0,3.037577e-01,NaN,2,0,3,3
58,660,4,87,2,1,1,1,3.338432e+00,NaN,2,0,2,3
58,661,4,14,59,1,2,0,9.650557e-01,NaN,2,1,1,3
58,662,4,115,18,2,2,1,2.394591e-01,NaN,2,1,3,3
58,663,4,36,49,1,1,1,1.999333e+00,NaN,2,0,1,3
58,664,4,7.812000e+01,26,2,2,1,1.084927e-01,1,1,0,2.100000e+00,1
58,665,4,1.218000e+02,41,3,3,1,4.349264e-01,1,1,0,3.200000e+00,1
58,666,4,8.606000e+01,53,2,2,1,2.065676e-01,1,1,0,2.300000e+00,1
58,667,4,1.423800e+02,63,3,3,1,6.601619e-01,1,1,0,3.100000e+00,1
58,668,4,1.387200e+02,48,3,3,1,3.010453e-01,1,1,0,3.200000e+00,1
58,669,4,1.356000e+01,32,1,1,1,4.256126e+00,1,1,0,1.200000e+00,1
58,670,4,9.305000e+01,21,2,3,0,4.761530e-01,1,1,0,2.300000e+00,1
58,671,4,5.230000e+00,31,1,1,1,9.387581e-02,1,1,0,1.300000e+00,1
58,672,4,2.140000e+01,37,1,1,1,1.206484e+00,1,1,0,1.300000e+00,1
58,673,4,8.116000e+01,30,2,1,0,1.815376e-01,1,1,0,2.100000e+00,1
58,674,4,9.305000e+01,21,2,2,1,6.329499e-01,2,1,0,2.300000e+00,1
58,675,4,1.353700e+02,10,3,3,1,2.868630e-01,1,1,0,3.100000e+00,1
58,676,4,5.003000e+01,24,2,2,1,3.078895e-01,1,1,0,2.300000e+00,1
58,677,4,1.567000e+01,9,1,1,1,1.529182e-01,1,1,0,1.200000e+00,1
58,678,4,4.771000e+01,45,1,1,1,1.814704e-01,1,1,0,1.200000e+00,1
58,679,4,1.042800e+02,39,3,3,1,4.229873e-01,1,1,0,3.100000e+00,1
58,680,4,5.102000e+01,33,2,2,1,6.498060e-01,1,1,0,2.300000e+00,1
58,681,4,5.102000e+01,33,2,2,1,3.035806e-01,2,1,0,2.300000e+00,1
58,682,4,1.229400e+02,20,3,3,1,1.098962e-01,1,1,0,3.200000e+00,1
58,683,4,5.700000e+00,46,1,1,1,5.418354e-01,1,1,0,1.200000e+00,1
58,684,4,4.029000e+01,55,1,1,1,5.863648e-01,1,1,0,1.300000e+00,1
58,685,4,7.998000e+01,14,2,2,1,4.857930e-01,1,1,0,2.300000e+00,1
58,686,4,9.602000e+01,60,2,2,1,4.634055e-01,1,1,0,2.100000e+00,1
58,687,4,1.353700e+02,10,3,3,1,4.044665e-01,2,1,0,3.100000e+00,1
58,688,4,3.020000e+01,3,1,1,1,7.548383e-01,1,1,0,1.300000e+00,1
58,689,4,8.606000e+01,53,2,3,0,1.469208e+00,2,1,0,2.300000e+00,1
58,690,4,1.088800e+02,54,3,3,1,8.813186e-01,1,1,0,3.200000e+00,1
58,691,4,1.363200e+02,13,3,3,1,5.668102e-01,1,1,0,3.100000e+00,1
58,692,4,1.328200e+02,27,3,3,1,1.352458e+00,1,1,0,3.200000e+00,1
58,693,4,1.042800e+02,39,3,3,1,4.647258e-01,2,1,0,3.100000e+00,1
58,694,4,8.606000e+01,53,2,2,1,1.351555e-01,3,1,0,2.300000e+00,1
58,695,4,2.140000e+01,37,1,1,1,8.708485e-01,2,1,0,1.300000e+00,1
58,696,4,6.217000e+01,52,2,2,1,3.928655e-01,1,1,0,2.100000e+00,1
58,697,4,1.423800e+02,63,3,3,1,1.238797e-01,2,1,0,3.100000e+00,1
58,698,4,4.128000e+01,44,1,1,1,9.281822e-01,1,1,0,1.300000e+00,1
58,699,4,6.508000e+01,1,2,1,0,8.550611e-01,1,1,0,2.100000e+00,1
58,700,4,1.194400e+02,56,3,3,1,1.158903e+00,1,1,0,3.100000e+00,1
58,701,4,8.619000e+01,71,2,2,1,3.264232e-01,1,1,0,2.100000e+00,1
58,702,4,1.373100e+02,51,3,3,1,1.854554e+00,1,1,0,3.100000e+00,1
58,703,4,1.138400e+02,67,3,3,1,2.681063e-01,1,1,0,3.200000e+00,1
58,704,4,5.102000e+01,33,2,2,1,1.316834e-01,3,1,0,2.300000e+00,1
58,705,4,2.427000e+01,50,1,1,1,1.734525e-01,1,1,0,1.300000e+00,1
58,706,4,2.427000e+01,50,1,1,1,1.694085e-01,2,1,0,1.300000e+00,1
58,707,4,1.423800e+02,63,3,3,1,2.465493e-01,3,1,0,3.100000e+00,1
58,708,4,1.312700e+02,38,3,3,1,4.457959e-01,1,1,0,3.100000e+00,1
58,709,4,2.559000e+01,69,1,1,1,2.556316e-01,1,1,0,1.200000e+00,1
58,710,4,3.351000e+01,40,1,1,1,9.818486e-01,1,1,0,1.200000e+00,1
58,711,4,8.116000e+01,30,2,2,1,6.219527e-01,2,1,0,2.100000e+00,1
58,712,4,5.003000e+01,24,2,2,1,7.431573e-01,2,1,0,2.300000e+00,1
58,713,4,3.144000e+01,57,1,1,1,3.621623e-01,1,1,0,1.300000e+00,1
58,714,4,1.338700e+02,2,3,3,1,2.534668e+00,1,1,0,3.200000e+00,1
58,715,4,4.154000e+01,29,1,1,1,3.809815e-01,1,1,0,1.200000e+00,1
58,716,4,6.301000e+01,68,2,2,1,6.580761e-01,1,1,0,2.100000e+00,1
58,717,4,3.144000e+01,57,1,1,1,6.470590e-01,2,1,0,1.300000e+00,1
58,718,4,6.217000e+01,52,2,2,1,9.640453e-01,2,1,0,2.100000e+00,1
58,719,4,8.619000e+01,71,2,2,1,1.505903e-01,2,1,0,2.100000e+00,1
58,720,4,7.710000e+01,43,2,2,1,9.392678e-01,1,1,0,2.100000e+00,1
58,721,4,7.812000e+01,26,2,2,1,6.790920e-01,2,1,0,2.100000e+00,1
58,722,4,1.413600e+02,49,3,1,0,4.938639e-01,1,1,0,3.100000e+00,1
58,723,4,1.373100e+02,51,3,3,1,5.469519e-01,2,1,0,3.100000e+00,1
58,724,4,1.042800e+02,39,3,3,1,8.816895e-01,3,1,0,3.100000e+00,1
58,725,4,1.007300e+02,25,3,3,1,7.707131e-01,1,1,0,3.200000e+00,1
58,726,4,7.340000e+00,36,1,3,0,2.190865e+00,1,1,0,1.300000e+00,1
58,727,4,4.128000e+01,44,1,1,1,2.889074e-01,2,1,0,1.300000e+00,1
58,728,4,1.138400e+02,67,3,3,1,1.398375e+00,2,1,0,3.200000e+00,1
58,729,4,1.312700e+02,38,3,3,1,1.380390e-01,2,1,0,3.100000e+00,1
58,730,4,2.243000e+01,28,1,1,1,1.637550e-01,1,1,0,1.300000e+00,1
58,731,4,1.269500e+02,16,3,3,1,9.692547e-01,1,1,0,3.200000e+00,1
58,732,4,5.102000e+01,33,2,2,1,5.373165e-01,4,1,0,2.300000e+00,1
58,733,4,4.771000e+01,45,1,1,1,2.566259e-01,2,1,0,1.200000e+00,1
58,734,4,1.356000e+01,32,1,1,1,6.107166e-01,2,1,0,1.200000e+00,1
58,735,4,7.514000e+01,19,2,2,1,3.345246e-01,1,1,0,2.300000e+00,1
58,736,4,3.690000e+00,17,1,1,1,6.450412e-02,1,1,0,1.200000e+00,1
58,737,4,7.710000e+01,43,2,2,1,1.358172e-01,2,1,0,2.100000e+00,1
58,738,4,4.925000e+01,12,1,1,1,4.392691e-01,1,1,0,1.300000e+00,1
58,739,4,8.619000e+01,71,2,2,1,2.661934e-01,3,1,0,2.100000e+00,1
58,740,4,5.609000e+01,7,2,2,1,3.996672e-01,1,1,0,2.300000e+00,1
58,741,4,5.700000e+00,46,1,1,1,6.630268e-01,2,1,0,1.200000e+00,1
58,742,4,3.351000e+01,40,1,1,1,2.205935e-01,2,1,0,1.200000e+00,1
58,743,4,6.111000e+01,47,2,2,1,7.075589e-01,1,1,0,2.300000e+00,1
58,744,4,6.111000e+01,47,2,2,1,2.343609e-01,2,1,0,2.300000e+00,1
58,745,4,2.559000e+01,69,1,1,1,9.278363e-01,2,1,0,1.200000e+00,1
58,746,4,2.559000e+01,69,1,1,1,3.633908e-01,3,1,0,1.200000e+00,1
58,747,4,1.088800e+02,54,3,3,1,9.346832e-01,2,1,0,3.200000e+00,1
58,748,4,1.393400e+02,64,3,4,0,2.114419e-01,1,1,0,3.100000e+00,1
58,749,4,1.393400e+02,64,3,3,1,1.091448e+00,2,1,0,3.100000e+00,1
58,750,4,4.029000e+01,55,1,1,1,1.251694e-01,2,1,0,1.300000e+00,1
58,751,4,7.597000e+01,34,2,3,0,1.733448e-01,1,1,0,2.300000e+00,1
58,752,4,3.630000e+01,11,1,1,1,3.969234e-01,1,1,0,1.300000e+00,1
58,753,4,1.423800e+02,63,3,4,0,4.824808e-01,4,1,0,3.100000e+00,1
58,754,4,1.229400e+02,20,3,3,1,7.678381e-01,2,1,0,3.200000e+00,1
58,755,4,3.351000e+01,40,1,1,1,6.404526e-01,3,1,0,1.200000e+00,1
58,756,4,9.602000e+01,60,2,2,1,1.589321e-01,2,1,0,2.100000e+00,1
58,757,4,7.514000e+01,19,2,2,1,1.200529e-01,2,1,0,2.300000e+00,1
58,758,4,1.356000e+01,32,1,1,1,2.308904e-01,3,1,0,1.200000e+00,1
58,759,4,1.328200e+02,27,3,3,1,4.953326e-01,2,1,0,3.200000e+00,1
58,760,4,1.138400e+02,67,3,3,1,1.776227e-01,3,1,0,3.200000e+00,1
58,761,4,5.003000e+01,24,2,2,1,2.713029e-01,3,1,0,2.300000e+00,1
58,762,4,1.312700e+02,38,3,3,1,1.876347e-01,3,1,0,3.100000e+00,1
58,763,4,3.690000e+00,17,1,1,1,1.365605e-01,2,1,0,1.200000e+00,1
58,764,4,5.230000e+00,31,1,3,0,9.318375e-01,2,1,0,1.300000e+00,1
58,765,4,2.427000e+01,50,1,1,1,8.912689e-01,3,1,0,1.300000e+00,1
58,766,4,6.217000e+01,52,2,2,1,9.537065e-01,3,1,0,2.100000e+00,1
58,767,4,1.387200e+02,48,3,1,0,8.415485e-01,2,1,0,3.200000e+00,1
58,768,4,7.710000e+01,43,2,2,1,1.041065e-01,3,1,0,2.100000e+00,1
58,769,4,4.925000e+01,12,1,1,1,3.342137e-01,2,1,0,1.300000e+00,1
58,770,4,1.387200e+02,48,3,3,1,5.264895e-01,3,1,0,3.200000e+00,1
58,771,4,4.128000e+01,44,1,1,1,1.290176e-01,3,1,0,1.300000e+00,1
58,772,4,7.998000e+01,14,2,2,1,1.654403e-01,2,1,0,2.300000e+00,1
58,773,4,9.305000e+01,21,2,2,1,3.194028e-01,3,1,0,2.300000e+00,1
58,774,4,1.338700e+02,2,3,3,1,1.765870e-01,2,1,0,3.200000e+00,1
58,775,4,4.154000e+01,29,1,1,1,9.263179e-02,2,1,0,1.200000e+00,1
58,776,4,5.230000e+00,31,1,1,1,4.660666e-01,3,1,0,1.300000e+00,1
58,777,4,7.340000e+00,36,1,1,1,1.424545e-01,2,1,0,1.300000e+00,1
58,778,4,7.597000e+01,34,2,2,1,1.635230e-01,2,1,0,2.300000e+00,1
58,779,4,3.020000e+01,3,1,1,1,5.388606e-01,2,1,0,1.300000e+00,1
58,780,4,2.140000e+01,37,1,1,1,1.340110e+00,3,1,0,1.300000e+00,1
58,781,4,6.217000e+01,52,2,2,1,1.134825e+00,4,1,0,2.100000e+00,1
58,782,4,1.007300e+02,25,3,3,1,4.300371e-01,2,1,0,3.200000e+00,1
58,783,4,6.301000e+01,68,2,2,1,2.776023e-01,2,1,0,2.100000e+00,1
58,784,4,3.630000e+01,11,1,1,1,1.241314e+00,2,1,0,1.300000e+00,1
58,785,4,1.567000e+01,9,1,2,0,8.417977e-01,2,1,0,1.200000e+00,1
58,786,4,1.373100e+02,51,3,3,1,5.782074e-01,3,1,0,3.100000e+00,1
58,787,4,3.020000e+01,3,1,1,1,7.275799e-01,3,1,0,1.300000e+00,1
58,788,4,1.138400e+02,67,3,3,1,6.855298e-01,4,1,0,3.200000e+00,1
58,789,4,1.269500e+02,16,3,3,1,6.702638e-01,2,1,0,3.200000e+00,1
58,790,4,6.301000e+01,68,2,2,1,1.036081e+00,3,1,0,2.100000e+00,1
58,791,4,1.194400e+02,56,3,3,1,1.343564e-01,2,1,0,3.100000e+00,1
58,792,4,1.007300e+02,25,3,3,1,2.286058e-01,3,1,0,3.200000e+00,1
58,793,4,4.771000e+01,45,1,3,0,4.710976e-01,3,1,0,1.200000e+00,1
58,794,4,1.328200e+02,27,3,3,1,6.525217e-01,3,1,0,3.200000e+00,1
58,795,4,7.340000e+00,36,1,1,1,1.945625e+00,3,1,0,1.300000e+00,1
58,796,4,1.338700e+02,2,3,3,1,2.505152e+00,3,1,0,3.200000e+00,1
58,797,4,3.144000e+01,57,1,3,0,1.314850e-01,3,1,0,1.300000e+00,1
58,798,4,1.218000e+02,41,3,3,1,1.136198e-01,2,1,0,3.200000e+00,1
58,799,4,2.140000e+01,37,1,1,1,3.606037e-01,4,1,0,1.300000e+00,1
58,800,4,6.508000e+01,1,2,2,1,7.445559e-01,2,1,0,2.100000e+00,1
58,801,4,3.351000e+01,40,1,2,0,6.277947e-01,4,1,0,1.200000e+00,1
58,802,4,1.413600e+02,49,3,3,1,4.070808e-01,2,1,0,3.100000e+00,1
58,803,4,7.514000e+01,19,2,2,1,6.628530e-01,3,1,0,2.300000e+00,1
58,804,4,7.514000e+01,19,2,2,1,6.519510e-01,4,1,0,2.300000e+00,1
58,805,4,3.144000e+01,57,1,1,1,1.755977e+00,4,1,0,1.300000e+00,1
58,806,4,1.413600e+02,49,3,3,1,1.477287e+00,3,1,0,3.100000e+00,1
58,807,4,7.597000e+01,34,2,2,1,1.509338e-01,3,1,0,2.300000e+00,1
58,808,4,8.619000e+01,71,2,3,0,7.985752e-01,4,1,0,2.100000e+00,1
58,809,4,5.609000e+01,7,2,2,1,2.289426e-01,2,1,0,2.300000e+00,1
58,810,4,1.088800e+02,54,3,3,1,1.195138e+00,3,1,0,3.200000e+00,1
58,811,4,2.243000e+01,28,1,1,1,2.035079e-01,2,1,0,1.300000e+00,1
58,812,4,5.700000e+00,46,1,1,1,1.237880e-01,3,1,0,1.200000e+00,1
58,813,4,5.609000e+01,7,2,2,1,1.086582e-01,3,1,0,2.300000e+00,1
58,814,4,7.340000e+00,36,1,1,1,1.122295e+00,4,1,0,1.300000e+00,1
58,815,4,8.116000e+01,30,2,3,0,6.743066e-01,3,1,0,2.100000e+00,1
58,816,4,5.609000e+01,7,2,2,1,3.104654e-01,4,1,0,2.300000e+00,1
58,817,4,6.111000e+01,47,2,1,0,2.976968e-01,3,1,0,2.300000e+00,1
58,818,4,1.088800e+02,54,3,3,1,4.475033e-01,4,1,0,3.200000e+00,1
58,819,4,3.690000e+00,17,1,1,1,2.010758e-01,3,1,0,1.200000e+00,1
58,820,4,7.998000e+01,14,2,2,1,5.298001e-01,3,1,0,2.300000e+00,1
58,821,4,1.194400e+02,56,3,3,1,3.159790e-01,3,1,0,3.100000e+00,1
58,822,4,1.567000e+01,9,1,1,1,1.613593e-01,3,1,0,1.200000e+00,1
58,823,4,4.128000e+01,44,1,1,1,3.069892e-01,4,1,0,1.300000e+00,1
58,824,4,5.003000e+01,24,2,3,0,7.009081e-01,4,1,0,2.300000e+00,1
58,825,4,1.353700e+02,10,3,3,1,6.827087e-01,3,1,0,3.100000e+00,1
58,826,4,1.393400e+02,64,3,1,0,5.492741e-01,3,1,0,3.100000e+00,1
58,827,4,1.328200e+02,27,3,3,1,1.437378e-01,4,1,0,3.200000e+00,1
58,828,4,1.269500e+02,16,3,3,1,4.413420e-01,3,1,0,3.200000e+00,1
58,829,4,7.998000e+01,14,2,2,1,2.398718e-01,4,1,0,2.300000e+00,1
58,830,4,7.710000e+01,43,2,1,0,1.583676e-01,4,1,0,2.100000e+00,1
58,831,4,6.508000e+01,1,2,2,1,2.943900e-01,3,1,0,2.100000e+00,1
58,832,4,6.111000e+01,47,2,4,0,2.165196e-01,4,1,0,2.300000e+00,1
58,833,4,2.427000e+01,50,1,1,1,4.666918e-01,4,1,0,1.300000e+00,1
58,834,4,1.363200e+02,13,3,3,1,5.068716e-01,2,1,0,3.100000e+00,1
58,835,4,1.007300e+02,25,3,3,1,9.288992e-02,4,1,0,3.200000e+00,1
58,836,4,1.363200e+02,13,3,3,1,4.819882e-01,3,1,0,3.100000e+00,1
58,837,4,3.630000e+01,11,1,1,1,1.639836e-01,3,1,0,1.300000e+00,1
58,838,4,1.373100e+02,51,3,3,1,4.032909e-01,4,1,0,3.100000e+00,1
58,839,4,1.567000e+01,9,1,1,1,1.032378e+00,4,1,0,1.200000e+00,1
58,840,4,1.194400e+02,56,3,1,0,1.643690e-01,4,1,0,3.100000e+00,1
58,841,4,4.154000e+01,29,1,1,1,1.198114e-01,3,1,0,1.200000e+00,1
58,842,4,2.243000e+01,28,1,1,1,2.221853e-01,3,1,0,1.300000e+00,1
58,843,4,8.606000e+01,53,2,3,0,6.424953e-01,4,1,0,2.300000e+00,1
58,844,4,1.353700e+02,10,3,3,1,3.882984e+00,4,1,0,3.100000e+00,1
58,845,4,1.218000e+02,41,3,3,1,5.143022e-01,3,1,0,3.200000e+00,1
58,846,4,1.229400e+02,20,3,3,1,1.694807e-01,3,1,0,3.200000e+00,1
58,847,4,7.812000e+01,26,2,2,1,2.503063e-01,3,1,0,2.100000e+00,1
58,848,4,4.925000e+01,12,1,1,1,2.523102e+00,3,1,0,1.300000e+00,1
58,849,4,1.356000e+01,32,1,1,1,1.898722e-01,4,1,0,1.200000e+00,1
58,850,4,3.630000e+01,11,1,1,1,7.596940e-02,4,1,0,1.300000e+00,1
58,851,4,4.154000e+01,29,1,1,1,1.798113e-01,4,1,0,1.200000e+00,1
58,852,4,4.925000e+01,12,1,1,1,2.781691e-01,4,1,0,1.300000e+00,1
58,853,4,1.387200e+02,48,3,2,0,1.367473e-01,4,1,0,3.200000e+00,1
58,854,4,4.029000e+01,55,1,1,1,4.238338e-01,3,1,0,1.300000e+00,1
58,855,4,2.559000e+01,69,1,1,1,4.114818e-01,4,1,0,1.200000e+00,1
58,856,4,1.218000e+02,41,3,4,0,4.339720e-01,4,1,0,3.200000e+00,1
58,857,4,6.301000e+01,68,2,2,1,8.046634e-01,4,1,0,2.100000e+00,1
58,858,4,1.269500e+02,16,3,3,1,6.594111e-01,4,1,0,3.200000e+00,1
58,859,4,1.413600e+02,49,3,3,1,5.434021e-01,4,1,0,3.100000e+00,1
58,860,4,4.029000e+01,55,1,1,1,2.303074e-01,4,1,0,1.300000e+00,1
58,861,4,1.393400e+02,64,3,3,1,2.576590e-01,4,1,0,3.100000e+00,1
58,862,4,1.229400e+02,20,3,3,1,1.540975e-01,4,1,0,3.200000e+00,1
58,863,4,9.305000e+01,21,2,2,1,7.280608e-01,4,1,0,2.300000e+00,1
58,864,4,8.116000e+01,30,2,2,1,1.282854e-01,4,1,0,2.100000e+00,1
58,865,4,1.363200e+02,13,3,1,0,1.108232e+00,4,1,0,3.100000e+00,1
58,866,4,2.243000e+01,28,1,1,1,1.874135e-01,4,1,0,1.300000e+00,1
58,867,4,3.020000e+01,3,1,3,0,1.383251e+00,4,1,0,1.300000e+00,1
58,868,4,7.597000e+01,34,2,2,1,1.363195e-01,4,1,0,2.300000e+00,1
58,869,4,4.771000e+01,45,1,1,1,1.296865e-01,4,1,0,1.200000e+00,1
58,870,4,1.312700e+02,38,3,3,1,6.838695e-01,4,1,0,3.100000e+00,1
58,871,4,7.812000e+01,26,2,2,1,4.099387e-01,4,1,0,2.100000e+00,1
58,872,4,9.602000e+01,60,2,1,0,2.388994e-01,3,1,0,2.100000e+00,1
58,873,4,9.602000e+01,60,2,3,0,1.265616e+00,4,1,0,2.100000e+00,1
58,874,4,6.508000e+01,1,2,2,1,9.454736e-02,4,1,0,2.100000e+00,1
58,875,4,5.230000e+00,31,1,1,1,8.256928e-02,4,1,0,1.300000e+00,1
58,876,4,5.700000e+00,46,1,2,0,1.993253e+00,4,1,0,1.200000e+00,1
58,877,4,3.690000e+00,17,1,1,1,5.711431e-01,4,1,0,1.200000e+00,1
58,878,4,1.338700e+02,2,3,3,1,3.325548e-01,4,1,0,3.200000e+00,1
58,879,4,1.042800e+02,39,3,3,1,1.007792e-01,4,1,0,3.100000e+00,1
58,880,6,64,35,2,2,1,6.374945e-01,NaN,2,1,2,1
58,881,6,93,5,2,2,1,4.779900e-01,NaN,2,1,2,1
58,882,6,12,26,1,2,0,3.251188e+00,NaN,2,0,1,1
58,883,6,54,29,2,1,0,3.294388e-01,NaN,2,0,2,1
58,884,6,130,11,1,1,1,7.615326e-01,NaN,2,0,3,1
58,885,6,128,44,2,2,1,5.782663e-01,NaN,2,0,3,1
58,886,6,7,65,1,2,0,1.697707e-01,NaN,2,1,1,1
58,887,6,1,68,2,2,1,2.891156e+00,NaN,2,0,1,1
58,888,6,18,62,1,1,1,8.728280e-01,NaN,2,1,1,1
58,889,6,37,10,2,2,1,7.193465e-02,NaN,2,0,1,1
58,890,6,82,27,1,1,1,8.041852e-01,NaN,2,0,2,1
58,891,6,94,20,1,1,1,1.894171e-01,NaN,2,0,2,1
58,892,6,34,64,1,1,1,1.064432e+00,NaN,2,0,1,1
58,893,6,16,30,1,1,1,4.965099e-01,NaN,2,0,1,1
58,894,6,143,28,1,1,1,1.554086e-01,NaN,2,0,3,1
58,895,6,10,43,1,1,1,2.436817e+00,NaN,2,0,1,1
58,896,6,26,6,2,2,1,1.416477e-01,NaN,2,1,1,1
58,897,6,117,42,1,1,1,9.550921e-02,NaN,2,1,3,1
58,898,6,59,69,2,2,1,2.102185e-01,NaN,2,0,2,1
58,899,6,124,15,2,2,1,7.719013e-01,NaN,2,1,3,1
58,900,6,27,38,1,1,1,1.177359e+00,NaN,2,0,1,1
58,901,6,73,25,2,2,1,1.294595e+00,NaN,2,0,2,1
58,902,6,32,13,2,2,1,6.369947e-01,NaN,2,0,1,1
58,903,6,125,12,2,2,1,7.295824e-01,NaN,2,0,3,1
58,904,6,105,21,1,1,1,2.309781e-01,NaN,2,0,3,1
58,905,6,28,39,2,2,1,9.461639e-01,NaN,2,0,1,1
58,906,6,61,70,2,1,0,9.600146e-01,NaN,2,1,2,1
58,907,6,36,49,2,2,1,1.450940e-01,NaN,2,0,1,1
58,908,6,70,46,1,1,1,5.908540e-01,NaN,2,0,2,1
58,909,6,52,58,2,2,1,1.751224e+00,NaN,2,1,2,1
58,910,6,140,37,1,1,1,5.648739e-01,NaN,2,0,3,1
58,911,6,123,31,1,1,1,7.858108e-01,NaN,2,0,3,1
58,912,6,14,59,1,2,0,2.781047e+00,NaN,2,1,1,1
58,913,6,109,7,2,2,1,4.750764e-01,NaN,2,0,3,1
58,914,6,53,22,2,2,1,1.817562e+00,NaN,2,1,2,1
58,915,6,97,34,2,2,1,7.521733e-01,NaN,2,0,3,1
58,916,6,71,45,2,2,1,7.366033e-01,NaN,2,0,2,1
58,917,6,88,54,1,1,1,8.869717e-01,NaN,2,0,2,1
58,918,6,134,36,2,2,1,3.546802e-01,NaN,2,0,3,1
58,919,6,45,61,1,2,0,5.544068e-01,NaN,2,1,1,1
58,920,6,127,50,2,2,1,2.725421e-01,NaN,2,0,3,1
58,921,6,112,72,2,2,1,6.618885e-01,NaN,2,1,3,1
58,922,6,31,51,2,2,1,3.844677e-01,NaN,2,0,1,1
58,923,6,120,3,1,1,1,4.296336e-01,NaN,2,0,3,1
58,924,6,103,24,1,1,1,3.004474e-01,NaN,2,0,3,1
58,925,6,42,8,2,2,1,2.983385e-01,NaN,2,1,1,1
58,926,6,17,52,2,2,1,3.093287e+00,NaN,2,0,1,1
58,927,6,72,48,2,2,1,1.722715e+00,NaN,2,0,2,1
58,928,6,87,2,2,1,0,6.784586e-01,NaN,2,0,2,1
58,929,6,95,16,2,2,1,2.524033e-01,NaN,2,0,2,1
58,930,6,8,1,2,2,1,8.605510e-01,NaN,2,0,1,1
58,931,6,115,18,1,1,1,1.871031e-01,NaN,2,1,3,1
58,932,6,111,47,2,1,0,2.733773e-01,NaN,2,0,3,1
58,933,6,38,63,2,1,0,8.186306e-01,NaN,2,0,1,1
58,934,6,102,33,2,2,1,1.387033e+00,NaN,2,0,3,1
58,935,6,51,40,2,2,1,6.118792e-01,NaN,2,0,2,1
58,936,6,69,17,1,2,0,1.147268e+00,NaN,2,0,2,1
58,937,6,98,14,1,2,0,3.616877e-01,NaN,2,0,3,1
58,938,6,80,41,1,1,1,2.437886e-01,NaN,2,0,2,1
58,939,6,89,23,2,1,0,9.989599e-01,NaN,2,1,2,1
58,940,6,9,66,2,2,1,2.446351e+00,NaN,2,1,1,1
58,941,6,106,53,2,2,1,2.870186e+00,NaN,2,0,3,1
58,942,6,56,32,1,1,1,2.917060e-01,NaN,2,0,2,1
58,943,6,44,56,1,1,1,1.342407e+00,NaN,2,0,1,1
58,944,6,90,4,1,1,1,8.901021e-01,NaN,2,1,2,1
58,945,6,19,71,2,2,1,1.530952e+00,NaN,2,0,1,1
58,946,6,144,57,1,1,1,5.905163e-01,NaN,2,0,3,1
58,947,6,114,19,1,1,1,5.749972e-01,NaN,2,0,3,1
58,948,6,2,60,1,1,1,4.341257e-01,NaN,2,0,1,1
58,949,6,129,55,2,1,0,8.975031e-01,NaN,2,0,3,1
58,950,6,84,67,1,1,1,1.018995e+00,NaN,2,0,2,1
58,951,6,67,9,1,1,1,6.139569e-01,NaN,2,0,2,1
58,952,6,81,30,1,1,1,5.764904e-01,NaN,1,0,2,1
58,953,6,47,45,2,1,0,2.029488e+00,NaN,1,0,1,1
58,954,6,66,65,1,1,1,7.038546e-01,NaN,1,1,2,1
58,955,6,40,44,1,1,1,1.409253e+00,NaN,1,0,1,1
58,956,6,48,12,1,1,1,2.798450e+00,NaN,1,0,1,1
58,957,6,121,41,1,1,1,4.522371e-01,NaN,1,0,3,1
58,958,6,78,26,2,2,1,2.619447e+00,NaN,1,0,2,1
58,959,6,62,52,2,1,0,1.120863e+00,NaN,1,0,2,1
58,960,6,119,56,2,2,1,7.077096e-01,NaN,1,0,3,1
58,961,6,60,47,2,2,1,8.361339e-01,NaN,1,0,2,1
58,962,6,91,62,2,1,0,5.805551e-01,NaN,1,1,2,1
58,963,6,139,64,2,2,1,9.685119e-01,NaN,1,0,3,1
58,964,6,116,6,1,1,1,6.778499e-01,NaN,1,1,3,1
58,965,6,118,4,1,1,1,7.650608e-01,NaN,1,1,3,1
58,966,6,58,66,2,2,1,1.088912e+00,NaN,1,1,2,1
58,967,6,79,14,1,1,1,2.723050e-01,NaN,1,0,2,1
58,968,6,63,68,2,1,0,1.881624e+00,NaN,1,0,2,1
58,969,6,126,16,1,2,0,6.015437e-01,NaN,1,0,3,1
58,970,6,96,60,1,2,0,1.373396e+00,NaN,1,0,2,1
58,971,6,108,54,1,1,1,2.482063e-01,NaN,1,0,3,1
58,972,6,141,49,2,1,0,3.124370e-01,NaN,1,0,3,1
58,973,6,113,67,2,2,1,5.730209e-01,NaN,1,0,3,1
58,974,6,135,10,2,2,1,1.541497e-01,NaN,1,0,3,1
58,975,6,46,70,2,2,1,5.389224e-01,NaN,1,1,1,1
58,976,6,23,50,1,1,1,1.834725e-01,NaN,1,0,1,1
58,977,6,57,42,1,1,1,4.660062e-01,NaN,1,1,2,1
58,978,6,33,40,1,1,1,1.031749e+00,NaN,1,0,1,1
58,979,6,39,55,1,1,1,5.129771e-01,NaN,1,0,1,1
58,980,6,85,53,1,1,1,3.162571e-01,NaN,1,0,2,1
58,981,6,30,57,1,2,0,2.733144e+00,NaN,1,0,1,1
58,982,6,25,69,2,2,1,1.867003e-01,NaN,1,0,1,1
58,983,6,77,43,1,2,0,5.629510e-01,NaN,1,0,2,1
58,984,6,21,28,1,1,1,2.965634e-01,NaN,1,0,1,1
58,985,6,49,24,2,2,1,1.043981e+00,NaN,1,0,2,1
58,986,6,107,5,1,1,1,1.223633e+00,NaN,1,1,3,1
58,987,6,35,11,1,1,1,2.007139e+00,NaN,1,0,1,1
58,988,6,104,39,1,1,1,2.160216e+00,NaN,1,0,3,1
58,989,6,15,9,2,1,0,1.374099e+00,NaN,1,0,1,1
58,990,6,6,36,1,2,0,2.753091e-01,NaN,1,0,1,1
58,991,6,20,37,1,1,1,2.260366e-01,NaN,1,0,1,1
58,992,6,50,33,2,1,0,2.545007e+00,NaN,1,0,2,1
58,993,6,138,48,2,2,1,5.063733e-01,NaN,1,0,3,1
58,994,6,41,29,2,2,1,3.875399e-01,NaN,1,0,1,1
58,995,6,43,22,2,2,1,1.273579e+00,NaN,1,1,1,1
58,996,6,22,58,1,1,1,3.348850e-01,NaN,1,1,1,1
58,997,6,101,8,1,2,0,1.685945e+00,NaN,1,1,3,1
58,998,6,136,13,2,2,1,2.141101e-01,NaN,1,0,3,1
58,999,6,142,63,2,2,1,8.187988e-01,NaN,1,0,3,1
58,1000,6,100,25,2,2,1,4.650285e-01,NaN,1,0,3,1
58,1001,6,55,7,1,2,0,3.170213e-01,NaN,1,0,2,1
58,1002,6,86,71,1,1,1,2.558688e-01,NaN,1,0,2,1
58,1003,6,137,51,1,1,1,1.840770e-01,NaN,1,0,3,1
58,1004,6,4,31,2,2,1,5.216837e-01,NaN,1,0,1,1
58,1005,6,5,46,1,1,1,4.398516e-01,NaN,1,0,1,1
58,1006,6,13,32,1,1,1,1.224060e+00,NaN,1,0,1,1
58,1007,6,92,21,1,1,1,1.681093e+00,NaN,1,0,2,1
58,1008,6,83,72,2,2,1,1.321600e+00,NaN,1,1,2,1
58,1009,6,131,38,1,2,0,1.822191e-01,NaN,1,0,3,1
58,1010,6,29,3,2,2,1,9.847937e-01,NaN,1,0,1,1
58,1011,6,24,15,1,1,1,1.485819e-01,NaN,1,1,1,1
58,1012,6,122,20,2,2,1,6.154229e-01,NaN,1,0,3,1
58,1013,6,3,17,1,1,1,1.474152e+00,NaN,1,0,1,1
58,1014,6,76,59,1,1,1,4.057744e-01,NaN,1,1,2,1
58,1015,6,99,61,2,2,1,7.127454e-01,NaN,1,1,3,1
58,1016,6,74,19,1,2,0,8.685433e-01,NaN,1,0,2,1
58,1017,6,65,1,2,2,1,1.376115e+00,NaN,1,0,2,1
58,1018,6,110,23,1,1,1,5.174282e-01,NaN,1,1,3,1
58,1019,6,75,34,1,1,1,4.959117e-01,NaN,1,0,2,1
58,1020,6,11,35,2,2,1,1.317375e+00,NaN,1,1,1,1
58,1021,6,133,2,1,1,1,3.064710e-01,NaN,1,0,3,1
58,1022,6,132,27,1,2,0,3.217546e-01,NaN,1,0,3,1
58,1023,6,68,18,2,2,1,4.266324e-01,NaN,1,1,2,1
