Subject,Trial,Cond,ImageNum,CueNum,Correct,Resp,Accuracy,RT,CueRep,ImageType,Baseline,Category,Block
59,1,1,135,NaN,NaN,1,NaN,2.540569e+00,NaN,1,0,3,1
59,2,1,112,NaN,NaN,1,NaN,2.364389e-01,NaN,2,1,3,1
59,3,1,38,NaN,NaN,1,NaN,6.064267e-01,NaN,2,0,1,1
59,4,1,63,NaN,NaN,1,NaN,2.565638e+00,NaN,2,0,2,1
59,5,1,43,NaN,NaN,1,NaN,4.239015e-01,NaN,2,0,1,1
59,6,1,115,NaN,NaN,1,NaN,2.064904e-01,NaN,2,0,3,1
59,7,1,119,NaN,NaN,1,NaN,4.435484e-01,NaN,0,0,3,1
59,8,1,131,NaN,NaN,1,NaN,1.296403e+00,NaN,1,0,3,1
59,9,1,46,NaN,NaN,1,NaN,1.973529e+00,NaN,2,0,1,1
59,10,1,13,NaN,NaN,1,NaN,8.217449e-01,NaN,2,0,1,1
59,11,1,122,NaN,NaN,1,NaN,9.989935e-01,NaN,2,0,3,1
59,12,1,28,NaN,NaN,1,NaN,9.387038e-01,NaN,2,0,1,1
59,13,1,37,NaN,NaN,1,NaN,3.261535e-01,NaN,0,1,1,1
59,14,1,66,NaN,NaN,1,NaN,4.214705e-01,NaN,0,0,2,1
59,15,1,74,NaN,NaN,1,NaN,6.393859e-01,NaN,0,0,2,1
59,16,1,90,NaN,NaN,1,NaN,3.393947e-01,NaN,0,0,2,1
59,17,1,58,NaN,NaN,1,NaN,1.027384e+00,NaN,2,0,2,1
59,18,1,88,NaN,NaN,1,NaN,1.409805e+00,NaN,0,0,2,1
59,19,1,112,NaN,NaN,1,NaN,6.249419e-01,NaN,0,1,3,1
59,20,1,56,NaN,NaN,1,NaN,2.292176e-01,NaN,0,0,2,1
59,21,1,103,NaN,NaN,1,NaN,5.948076e-01,NaN,2,1,3,1
59,22,1,110,NaN,NaN,1,NaN,6.651095e-01,NaN,0,0,3,1
59,23,1,53,NaN,NaN,1,NaN,1.236079e+00,NaN,0,1,2,1
59,24,1,109,NaN,NaN,1,NaN,2.061109e-01,NaN,0,1,3,1
59,25,1,50,NaN,NaN,1,NaN,4.528703e-01,NaN,0,0,2,1
59,26,1,98,NaN,NaN,1,NaN,2.894302e-01,NaN,0,1,3,1
59,27,1,67,NaN,NaN,1,NaN,3.347892e-01,NaN,0,0,2,1
59,28,1,91,NaN,NaN,1,NaN,5.230022e-01,NaN,0,0,2,1
59,29,1,123,NaN,NaN,1,NaN,7.561763e-01,NaN,0,1,3,1
59,30,1,92,NaN,NaN,1,NaN,9.686926e-01,NaN,2,0,2,1
59,31,1,77,NaN,NaN,1,NaN,1.423579e+00,NaN,1,0,2,1
59,32,1,9,NaN,NaN,1,NaN,6.282621e-01,NaN,1,0,1,1
59,33,1,138,NaN,NaN,2,NaN,1.001917e+00,NaN,0,0,3,1
59,34,1,21,NaN,NaN,1,NaN,7.717482e-01,NaN,1,0,1,1
59,35,1,111,NaN,NaN,1,NaN,4.472242e-01,NaN,0,0,3,1
59,36,1,80,NaN,NaN,1,NaN,5.190394e-01,NaN,0,0,2,1
59,37,1,12,NaN,NaN,1,NaN,1.081249e+00,NaN,2,0,1,1
59,38,1,26,NaN,NaN,1,NaN,2.721513e-01,NaN,2,0,1,1
59,39,1,124,NaN,NaN,1,NaN,4.092433e-01,NaN,2,0,3,1
59,40,1,20,NaN,NaN,1,NaN,2.204888e+00,NaN,0,0,1,1
59,41,1,33,NaN,NaN,1,NaN,5.814425e-01,NaN,1,0,1,1
59,42,1,121,NaN,NaN,1,NaN,1.882732e-01,NaN,1,0,3,1
59,43,1,78,NaN,NaN,1,NaN,1.010488e+00,NaN,2,0,2,1
59,44,1,41,NaN,NaN,1,NaN,3.513205e-01,NaN,1,0,1,1
59,45,1,34,NaN,NaN,1,NaN,9.311917e-01,NaN,0,1,1,1
59,46,1,116,NaN,NaN,1,NaN,2.517920e-01,NaN,1,1,3,1
59,47,1,128,NaN,NaN,1,NaN,1.670631e-01,NaN,2,0,3,1
59,48,1,93,NaN,NaN,1,NaN,5.252767e-01,NaN,1,0,2,1
59,49,1,97,NaN,NaN,1,NaN,3.207237e-01,NaN,0,0,3,1
59,50,1,98,NaN,NaN,1,NaN,1.685581e+00,NaN,2,1,3,1
59,51,1,11,NaN,NaN,1,NaN,7.388744e-01,NaN,0,0,1,1
59,52,1,7,NaN,NaN,1,NaN,8.626393e-01,NaN,2,0,1,1
59,53,1,47,NaN,NaN,1,NaN,8.558219e-01,NaN,1,1,1,1
59,54,1,118,NaN,NaN,1,NaN,1.596934e-01,NaN,1,0,3,1
59,55,1,3,NaN,NaN,1,NaN,1.278715e-01,NaN,1,0,1,1
59,56,1,89,NaN,NaN,1,NaN,9.948196e-01,NaN,0,0,2,1
59,57,1,27,NaN,NaN,1,NaN,4.467212e-01,NaN,0,1,1,1
59,58,1,42,NaN,NaN,1,NaN,2.609120e+00,NaN,2,0,1,1
59,59,1,126,NaN,NaN,1,NaN,6.854652e-01,NaN,0,0,3,1
59,60,1,114,NaN,NaN,1,NaN,8.269511e-01,NaN,0,1,3,1
59,61,1,18,NaN,NaN,1,NaN,4.792519e-01,NaN,0,0,1,1
59,62,1,40,NaN,NaN,1,NaN,8.719367e-01,NaN,0,0,1,1
59,63,1,45,NaN,NaN,1,NaN,1.558262e+00,NaN,0,0,1,1
59,64,1,143,NaN,NaN,1,NaN,2.127393e-01,NaN,0,0,3,1
59,65,1,95,NaN,NaN,1,NaN,1.003728e+00,NaN,1,0,2,1
59,66,1,51,NaN,NaN,1,NaN,6.071086e-01,NaN,0,0,2,1
59,67,1,60,NaN,NaN,1,NaN,4.431151e-01,NaN,0,1,2,1
59,68,1,72,NaN,NaN,1,NaN,3.890239e-01,NaN,0,0,2,1
59,69,1,141,NaN,NaN,1,NaN,1.219838e+00,NaN,1,0,3,1
59,70,1,45,NaN,NaN,1,NaN,4.617235e-01,NaN,2,0,1,1
59,71,1,113,NaN,NaN,1,NaN,2.843744e-01,NaN,2,0,3,1
59,72,1,72,NaN,NaN,1,NaN,5.026001e-01,NaN,1,0,2,1
59,73,1,71,NaN,NaN,1,NaN,4.607336e-01,NaN,0,0,2,1
59,74,1,143,NaN,NaN,1,NaN,5.452446e-01,NaN,2,0,3,1
59,75,1,48,NaN,NaN,1,NaN,4.370331e+00,NaN,0,0,1,1
59,76,1,77,NaN,NaN,1,NaN,5.809363e-01,NaN,0,0,2,1
59,77,1,99,NaN,NaN,1,NaN,1.022801e+00,NaN,1,1,3,1
59,78,1,6,NaN,NaN,1,NaN,1.523610e+00,NaN,2,0,1,1
59,79,1,1,NaN,NaN,1,NaN,1.824371e-01,NaN,0,0,1,1
59,80,1,1,NaN,NaN,1,NaN,1.345759e+00,NaN,2,0,1,1
59,81,1,31,NaN,NaN,1,NaN,1.553353e+00,NaN,0,0,1,1
59,82,1,135,NaN,NaN,1,NaN,5.617134e-01,NaN,0,0,3,1
59,83,1,54,NaN,NaN,1,NaN,3.345202e-01,NaN,0,0,2,1
59,84,1,137,NaN,NaN,1,NaN,2.192112e-01,NaN,2,1,3,1
59,85,1,129,NaN,NaN,1,NaN,2.644187e-01,NaN,2,0,3,1
59,86,1,20,NaN,NaN,1,NaN,1.326100e-01,NaN,1,0,1,1
59,87,1,76,NaN,NaN,1,NaN,3.639184e-01,NaN,1,0,2,1
59,88,1,9,NaN,NaN,1,NaN,7.526589e-01,NaN,0,0,1,1
59,89,1,30,NaN,NaN,1,NaN,4.026938e-01,NaN,2,1,1,1
59,90,1,92,NaN,NaN,1,NaN,1.789695e-01,NaN,0,0,2,1
59,91,1,113,NaN,NaN,1,NaN,7.998865e-01,NaN,0,0,3,1
59,92,1,104,NaN,NaN,1,NaN,1.237827e-01,NaN,0,0,3,1
59,93,1,22,NaN,NaN,1,NaN,1.693417e+00,NaN,0,0,1,1
59,94,1,134,NaN,NaN,1,NaN,5.997147e-01,NaN,0,0,3,1
59,95,1,85,NaN,NaN,1,NaN,1.368210e+00,NaN,1,0,2,1
59,96,1,22,NaN,NaN,1,NaN,1.273999e+00,NaN,1,0,1,1
59,97,1,70,NaN,NaN,1,NaN,4.326066e+00,NaN,1,0,2,1
59,98,1,83,NaN,NaN,1,NaN,7.085106e-01,NaN,0,0,2,1
59,99,1,99,NaN,NaN,1,NaN,6.010970e-01,NaN,0,1,3,1
59,100,1,4,NaN,NaN,1,NaN,1.794974e+00,NaN,0,0,1,1
59,101,1,115,NaN,NaN,1,NaN,6.166224e-01,NaN,0,0,3,1
59,102,1,96,NaN,NaN,1,NaN,2.993642e-01,NaN,0,0,2,1
59,103,1,100,NaN,NaN,1,NaN,1.551323e+00,NaN,0,0,3,1
59,104,1,75,NaN,NaN,1,NaN,2.726252e-01,NaN,0,1,2,1
59,105,1,55,NaN,NaN,1,NaN,8.086228e-01,NaN,2,0,2,1
59,106,1,90,NaN,NaN,1,NaN,1.802231e-01,NaN,1,0,2,1
59,107,1,42,NaN,NaN,1,NaN,4.125822e+00,NaN,0,0,1,1
59,108,1,10,NaN,NaN,1,NaN,2.138607e+00,NaN,1,0,1,1
59,109,1,125,NaN,NaN,1,NaN,7.134728e-01,NaN,0,1,3,1
59,110,1,44,NaN,NaN,1,NaN,3.080824e-01,NaN,2,0,1,1
59,111,1,49,NaN,NaN,1,NaN,6.167780e-01,NaN,2,0,2,1
59,112,1,55,NaN,NaN,1,NaN,7.261773e-01,NaN,0,0,2,1
59,113,1,107,NaN,NaN,1,NaN,1.612053e+00,NaN,0,1,3,1
59,114,1,86,NaN,NaN,1,NaN,4.046743e-01,NaN,1,1,2,1
59,115,1,144,NaN,NaN,1,NaN,1.135437e-01,NaN,2,0,3,1
59,116,1,79,NaN,NaN,1,NaN,8.184730e-01,NaN,0,1,2,1
59,117,1,117,NaN,NaN,1,NaN,5.240170e-01,NaN,0,1,3,1
59,118,1,105,NaN,NaN,1,NaN,7.439465e-01,NaN,0,0,3,1
59,119,1,49,NaN,NaN,1,NaN,5.174579e-01,NaN,0,0,2,1
59,120,1,6,NaN,NaN,1,NaN,4.052849e-01,NaN,0,0,1,1
59,121,1,29,NaN,NaN,1,NaN,5.827497e-01,NaN,0,0,1,1
59,122,1,17,NaN,NaN,1,NaN,2.514826e-01,NaN,1,0,1,1
59,123,1,108,NaN,NaN,1,NaN,8.811612e-01,NaN,2,0,3,1
59,124,1,7,NaN,NaN,1,NaN,5.143819e-01,NaN,0,0,1,1
59,125,1,24,NaN,NaN,1,NaN,9.030885e-02,NaN,1,0,1,1
59,126,1,25,NaN,NaN,2,NaN,2.206145e+00,NaN,0,1,1,1
59,127,1,91,NaN,NaN,1,NaN,4.964615e-01,NaN,1,0,2,1
59,128,1,73,NaN,NaN,1,NaN,5.923183e-01,NaN,2,1,2,1
59,129,1,15,NaN,NaN,1,NaN,8.413624e-01,NaN,0,0,1,1
59,130,1,133,NaN,NaN,1,NaN,6.380128e-01,NaN,0,0,3,1
59,131,1,32,NaN,NaN,1,NaN,5.045433e+00,NaN,1,0,1,1
59,132,1,132,NaN,NaN,1,NaN,9.299425e-01,NaN,0,1,3,1
59,133,1,100,NaN,NaN,1,NaN,3.801783e-01,NaN,2,0,3,1
59,134,1,70,NaN,NaN,1,NaN,9.938687e-01,NaN,0,0,2,1
59,135,1,28,NaN,NaN,1,NaN,1.400605e+00,NaN,0,0,1,1
59,136,1,25,NaN,NaN,1,NaN,1.251939e+00,NaN,1,1,1,1
59,137,1,111,NaN,NaN,1,NaN,2.975924e+00,NaN,2,0,3,1
59,138,1,59,NaN,NaN,1,NaN,4.820859e-01,NaN,0,0,2,1
59,139,1,85,NaN,NaN,1,NaN,4.377110e-01,NaN,0,0,2,1
59,140,1,50,NaN,NaN,1,NaN,4.812319e-01,NaN,2,0,2,1
59,141,1,16,NaN,NaN,1,NaN,2.526204e-01,NaN,2,0,1,1
59,142,1,41,NaN,NaN,1,NaN,2.396034e+00,NaN,0,0,1,1
59,143,1,40,NaN,NaN,1,NaN,2.261682e+00,NaN,2,0,1,1
59,144,1,124,NaN,NaN,1,NaN,9.793446e-01,NaN,0,0,3,1
59,145,1,104,NaN,NaN,1,NaN,3.938087e-01,NaN,2,0,3,1
59,146,1,123,NaN,NaN,1,NaN,1.908403e+00,NaN,1,1,3,1
59,147,1,27,NaN,NaN,1,NaN,7.863361e-01,NaN,1,1,1,1
59,148,1,103,NaN,NaN,1,NaN,2.919003e-01,NaN,0,1,3,1
59,149,1,118,NaN,NaN,1,NaN,5.330344e-01,NaN,0,0,3,1
59,150,1,120,NaN,NaN,1,NaN,2.154485e-01,NaN,0,1,3,1
59,151,1,23,NaN,NaN,1,NaN,7.615051e-01,NaN,1,0,1,1
59,152,1,126,NaN,NaN,1,NaN,1.022391e+00,NaN,1,0,3,1
59,153,1,136,NaN,NaN,1,NaN,7.349859e-01,NaN,0,1,3,1
59,154,1,130,NaN,NaN,1,NaN,8.393871e-01,NaN,1,0,3,1
59,155,1,106,NaN,NaN,1,NaN,6.193607e-01,NaN,0,1,3,1
59,156,1,127,NaN,NaN,1,NaN,4.996123e-01,NaN,0,0,3,1
59,157,1,58,NaN,NaN,1,NaN,1.423667e-01,NaN,0,0,2,1
59,158,1,68,NaN,NaN,1,NaN,9.604888e-01,NaN,0,1,2,1
59,159,1,96,NaN,NaN,1,NaN,3.386169e-01,NaN,1,0,2,1
59,160,1,64,NaN,NaN,1,NaN,7.993376e-01,NaN,1,0,2,1
59,161,1,68,NaN,NaN,1,NaN,5.035476e-01,NaN,1,1,2,1
59,162,1,69,NaN,NaN,1,NaN,3.509832e+00,NaN,0,0,2,1
59,163,1,35,NaN,NaN,1,NaN,7.778599e-01,NaN,0,1,1,1
59,164,1,138,NaN,NaN,1,NaN,6.662640e-01,NaN,1,0,3,1
59,165,1,5,NaN,NaN,1,NaN,5.410450e-01,NaN,0,0,1,1
59,166,1,142,NaN,NaN,1,NaN,1.992748e+00,NaN,0,0,3,1
59,167,1,132,NaN,NaN,1,NaN,3.872232e-01,NaN,1,1,3,1
59,168,1,44,NaN,NaN,1,NaN,3.782595e-01,NaN,0,0,1,1
59,169,1,71,NaN,NaN,1,NaN,1.444806e-01,NaN,2,0,2,1
59,170,1,39,NaN,NaN,1,NaN,1.898726e+00,NaN,2,1,1,1
59,171,1,129,NaN,NaN,1,NaN,1.103692e+00,NaN,0,0,3,1
59,172,1,127,NaN,NaN,1,NaN,5.138953e-01,NaN,1,0,3,1
59,173,1,57,NaN,NaN,2,NaN,1.178959e-01,NaN,0,0,2,1
59,174,1,82,NaN,NaN,1,NaN,1.208724e+00,NaN,0,0,2,1
59,175,1,116,NaN,NaN,1,NaN,1.508283e+00,NaN,0,1,3,1
59,176,1,84,NaN,NaN,1,NaN,8.858891e-01,NaN,2,1,2,1
59,177,1,80,NaN,NaN,1,NaN,2.155463e-01,NaN,2,0,2,1
59,178,1,119,NaN,NaN,1,NaN,4.616790e-01,NaN,1,0,3,1
59,179,1,66,NaN,NaN,1,NaN,9.087250e-01,NaN,2,0,2,1
59,180,1,75,NaN,NaN,1,NaN,1.129384e-01,NaN,2,1,2,1
59,181,1,60,NaN,NaN,1,NaN,3.701126e-01,NaN,1,1,2,1
59,182,1,24,NaN,NaN,1,NaN,2.544462e-01,NaN,0,0,1,1
59,183,1,141,NaN,NaN,1,NaN,5.532697e-01,NaN,0,0,3,1
59,184,1,81,NaN,NaN,1,NaN,6.341517e-01,NaN,0,1,2,1
59,185,1,10,NaN,NaN,2,NaN,1.813699e-01,NaN,0,0,1,1
59,186,1,13,NaN,NaN,1,NaN,4.243715e-01,NaN,0,0,1,1
59,187,1,128,NaN,NaN,1,NaN,4.975396e-01,NaN,0,0,3,1
59,188,1,17,NaN,NaN,1,NaN,1.540312e+00,NaN,0,0,1,1
59,189,1,51,NaN,NaN,1,NaN,3.450892e-01,NaN,1,0,2,1
59,190,1,16,NaN,NaN,1,NaN,2.327621e+00,NaN,0,0,1,1
59,191,1,120,NaN,NaN,1,NaN,1.518603e+00,NaN,1,1,3,1
59,192,1,110,NaN,NaN,1,NaN,1.790109e-01,NaN,2,0,3,1
59,193,1,121,NaN,NaN,1,NaN,2.920757e-01,NaN,0,0,3,1
59,194,1,64,NaN,NaN,1,NaN,4.026078e-01,NaN,0,0,2,1
59,195,1,73,NaN,NaN,1,NaN,1.466377e-01,NaN,0,1,2,1
59,196,1,69,NaN,NaN,1,NaN,5.294203e-01,NaN,1,0,2,1
59,197,1,102,NaN,NaN,1,NaN,1.890345e-01,NaN,0,0,3,1
59,198,1,130,NaN,NaN,1,NaN,6.238039e-01,NaN,0,0,3,1
59,199,1,26,NaN,NaN,1,NaN,1.327885e+00,NaN,0,0,1,1
59,200,1,62,NaN,NaN,1,NaN,1.996528e-01,NaN,0,0,2,1
59,201,1,36,NaN,NaN,1,NaN,7.109085e-01,NaN,1,0,1,1
59,202,1,81,NaN,NaN,1,NaN,1.729635e+00,NaN,2,1,2,1
59,203,1,84,NaN,NaN,1,NaN,2.384867e-01,NaN,0,1,2,1
59,204,1,107,NaN,NaN,1,NaN,4.734254e+00,NaN,2,1,3,1
59,205,1,34,NaN,NaN,1,NaN,5.372535e-01,NaN,2,1,1,1
59,206,1,139,NaN,NaN,1,NaN,1.440539e+00,NaN,0,0,3,1
59,207,1,139,NaN,NaN,1,NaN,3.014207e-01,NaN,1,0,3,1
59,208,1,140,NaN,NaN,1,NaN,1.304874e-01,NaN,2,0,3,1
59,209,1,2,NaN,NaN,1,NaN,2.057521e+00,NaN,0,1,1,1
59,210,1,37,NaN,NaN,1,NaN,3.113303e-01,NaN,1,1,1,1
59,211,1,30,NaN,NaN,1,NaN,5.086500e-01,NaN,0,1,1,1
59,212,1,97,NaN,NaN,1,NaN,5.071132e-01,NaN,2,0,3,1
59,213,1,11,NaN,NaN,1,NaN,2.434213e+00,NaN,1,0,1,1
59,214,1,65,NaN,NaN,1,NaN,1.118221e+00,NaN,1,0,2,1
59,215,1,106,NaN,NaN,1,NaN,1.692073e-01,NaN,1,1,3,1
59,216,1,137,NaN,NaN,1,NaN,4.569526e-01,NaN,0,1,3,1
59,217,1,67,NaN,NaN,1,NaN,3.799147e-01,NaN,1,0,2,1
59,218,1,52,NaN,NaN,1,NaN,4.570006e-01,NaN,0,0,2,1
59,219,1,93,NaN,NaN,1,NaN,2.081873e+00,NaN,0,0,2,1
59,220,1,94,NaN,NaN,1,NaN,5.078006e-01,NaN,2,1,2,1
59,221,1,122,NaN,NaN,1,NaN,3.177425e+00,NaN,0,0,3,1
59,222,1,82,NaN,NaN,1,NaN,1.298030e+00,NaN,1,0,2,1
59,223,1,94,NaN,NaN,2,NaN,4.887004e-01,NaN,0,1,2,1
59,224,1,32,NaN,NaN,1,NaN,8.062027e-01,NaN,0,0,1,1
59,225,1,15,NaN,NaN,1,NaN,5.827852e-01,NaN,2,0,1,1
59,226,1,53,NaN,NaN,1,NaN,6.196758e+00,NaN,2,1,2,1
59,227,1,114,NaN,NaN,1,NaN,1.306171e-01,NaN,2,1,3,1
59,228,1,134,NaN,NaN,1,NaN,4.078414e-01,NaN,1,0,3,1
59,229,1,59,NaN,NaN,1,NaN,1.171559e+00,NaN,1,0,2,1
59,230,1,108,NaN,NaN,1,NaN,1.728257e+00,NaN,0,0,3,1
59,231,1,65,NaN,NaN,1,NaN,5.660297e-01,NaN,0,0,2,1
59,232,1,79,NaN,NaN,1,NaN,1.076209e+00,NaN,2,1,2,1
59,233,1,140,NaN,NaN,1,NaN,3.789855e-01,NaN,0,0,3,1
59,234,1,14,NaN,NaN,2,NaN,1.322338e+00,NaN,0,0,1,1
59,235,1,8,NaN,NaN,1,NaN,2.220857e+00,NaN,0,0,1,1
59,236,1,36,NaN,NaN,1,NaN,4.560165e-01,NaN,0,0,1,1
59,237,1,29,NaN,NaN,1,NaN,2.841150e+00,NaN,1,0,1,1
59,238,1,88,NaN,NaN,1,NaN,2.504221e-01,NaN,1,0,2,1
59,239,1,33,NaN,NaN,1,NaN,1.019931e+00,NaN,0,0,1,1
59,240,1,133,NaN,NaN,2,NaN,8.776076e-01,NaN,1,0,3,1
59,241,1,56,NaN,NaN,1,NaN,3.800168e-01,NaN,2,0,2,1
59,242,1,131,NaN,NaN,1,NaN,9.545675e-01,NaN,0,0,3,1
59,243,1,101,NaN,NaN,1,NaN,1.673846e+00,NaN,0,0,3,1
59,244,1,61,NaN,NaN,1,NaN,5.365211e-01,NaN,1,1,2,1
59,245,1,18,NaN,NaN,1,NaN,4.841571e-01,NaN,2,0,1,1
59,246,1,105,NaN,NaN,1,NaN,5.539211e-01,NaN,2,0,3,1
59,247,1,2,NaN,NaN,1,NaN,6.321695e-01,NaN,2,1,1,1
59,248,1,109,NaN,NaN,1,NaN,3.337087e-01,NaN,1,1,3,1
59,249,1,8,NaN,NaN,1,NaN,1.791620e+00,NaN,1,0,1,1
59,250,1,89,NaN,NaN,1,NaN,1.008066e+00,NaN,2,0,2,1
59,251,1,46,NaN,NaN,1,NaN,2.507052e-01,NaN,0,0,1,1
59,252,1,63,NaN,NaN,1,NaN,9.068523e-01,NaN,0,0,2,1
59,253,1,3,NaN,NaN,1,NaN,3.607541e-01,NaN,0,0,1,1
59,254,1,52,NaN,NaN,1,NaN,1.729151e+00,NaN,2,0,2,1
59,255,1,125,NaN,NaN,1,NaN,1.863295e+00,NaN,2,1,3,1
59,256,1,21,NaN,NaN,2,NaN,5.683330e-01,NaN,0,0,1,1
59,257,1,12,NaN,NaN,1,NaN,7.013418e-01,NaN,0,0,1,1
59,258,1,95,NaN,NaN,1,NaN,7.934299e-01,NaN,0,0,2,1
59,259,1,83,NaN,NaN,1,NaN,3.990819e-01,NaN,2,0,2,1
59,260,1,19,NaN,NaN,1,NaN,6.714835e-01,NaN,0,0,1,1
59,261,1,19,NaN,NaN,1,NaN,1.714619e+00,NaN,1,0,1,1
59,262,1,57,NaN,NaN,1,NaN,8.833253e-01,NaN,2,0,2,1
59,263,1,38,NaN,NaN,1,NaN,1.198686e+00,NaN,0,0,1,1
59,264,1,4,NaN,NaN,1,NaN,3.922210e-01,NaN,2,0,1,1
59,265,1,102,NaN,NaN,1,NaN,9.555098e-01,NaN,1,0,3,1
59,266,1,101,NaN,NaN,1,NaN,2.336132e+00,NaN,2,0,3,1
59,267,1,43,NaN,NaN,1,NaN,4.287979e-01,NaN,0,0,1,1
59,268,1,48,NaN,NaN,1,NaN,9.586274e-01,NaN,1,0,1,1
59,269,1,61,NaN,NaN,1,NaN,1.899745e+00,NaN,0,1,2,1
59,270,1,142,NaN,NaN,1,NaN,6.213175e-01,NaN,1,0,3,1
59,271,1,78,NaN,NaN,1,NaN,1.520760e+00,NaN,0,0,2,1
59,272,1,54,NaN,NaN,1,NaN,3.723029e+00,NaN,2,0,2,1
59,273,1,39,NaN,NaN,1,NaN,1.122593e+00,NaN,0,1,1,1
59,274,1,14,NaN,NaN,1,NaN,1.075317e+00,NaN,2,0,1,1
59,275,1,31,NaN,NaN,1,NaN,2.200636e+00,NaN,2,0,1,1
59,276,1,74,NaN,NaN,1,NaN,1.690998e-01,NaN,2,0,2,1
59,277,1,76,NaN,NaN,1,NaN,2.445377e-01,NaN,0,0,2,1
59,278,1,117,NaN,NaN,1,NaN,2.976359e-01,NaN,1,1,3,1
59,279,1,86,NaN,NaN,1,NaN,3.680069e+00,NaN,0,1,2,1
59,280,1,62,NaN,NaN,1,NaN,9.739867e-01,NaN,1,0,2,1
59,281,1,23,NaN,NaN,1,NaN,4.862794e-01,NaN,0,0,1,1
59,282,1,35,NaN,NaN,1,NaN,6.046882e-01,NaN,1,1,1,1
59,283,1,47,NaN,NaN,1,NaN,1.496562e+00,NaN,0,1,1,1
59,284,1,87,NaN,NaN,1,NaN,1.064415e+00,NaN,0,0,2,1
59,285,1,87,NaN,NaN,1,NaN,9.781108e-01,NaN,1,0,2,1
59,286,1,144,NaN,NaN,1,NaN,4.158832e-01,NaN,0,0,3,1
59,287,1,136,NaN,NaN,1,NaN,2.105105e+00,NaN,1,1,3,1
59,288,1,5,NaN,NaN,1,NaN,2.600387e+00,NaN,1,0,1,1
59,321,2,85,13,2,2,1,3.512463e-01,NaN,1,0,2,1
59,322,2,87,41,2,2,1,3.792632e+00,NaN,1,0,2,1
59,323,2,51,27,2,2,1,3.078014e+00,NaN,1,0,2,1
59,324,2,133,71,1,1,1,8.786854e-01,NaN,1,0,3,1
59,325,2,68,17,1,1,1,2.425698e-01,NaN,1,1,2,1
59,326,2,96,21,2,2,1,4.880061e-01,NaN,1,0,2,1
59,327,2,102,68,2,2,1,8.203703e-01,NaN,1,0,3,1
59,328,2,120,24,2,2,1,1.823913e+00,NaN,1,1,3,1
59,329,2,127,35,2,2,1,1.938691e-01,NaN,1,0,3,1
59,330,2,17,61,2,2,1,6.350118e-01,NaN,1,0,1,1
59,331,2,23,1,2,2,1,8.669616e-01,NaN,1,0,1,1
59,332,2,77,70,1,1,1,2.258968e-01,NaN,1,0,2,1
59,333,2,95,46,1,1,1,1.946408e+00,NaN,1,0,2,1
59,334,2,142,40,1,1,1,1.321779e+00,NaN,1,0,3,1
59,335,2,82,28,2,2,1,6.420006e-01,NaN,1,0,2,1
59,336,2,47,50,2,2,1,3.630317e-01,NaN,1,1,1,1
59,337,2,72,65,1,1,1,2.663218e-01,NaN,1,0,2,1
59,338,2,90,60,1,2,0,2.054877e-01,NaN,1,0,2,1
59,339,2,25,18,2,2,1,2.969832e-01,NaN,1,1,1,1
59,340,2,36,44,2,1,0,5.785475e-01,NaN,1,0,1,1
59,341,2,10,4,1,1,1,6.144800e-01,NaN,1,0,1,1
59,342,2,88,34,2,2,1,6.187102e-01,NaN,1,0,2,1
59,343,2,139,62,2,1,0,3.707750e-01,NaN,1,0,3,1
59,344,2,64,36,2,1,0,5.412440e-01,NaN,1,0,2,1
59,345,3,23,1,2,2,1,1.899325e+00,NaN,1,0,1,1
59,346,3,17,61,2,2,1,2.191801e-01,NaN,1,0,1,1
59,347,3,90,60,2,2,1,7.754564e-01,NaN,1,0,2,1
59,348,3,142,40,2,2,1,2.924169e+00,NaN,1,0,3,1
59,349,3,10,4,2,2,1,6.311036e-01,NaN,1,0,1,1
59,350,3,139,62,2,1,0,3.139018e+00,NaN,1,0,3,1
59,351,3,87,41,2,2,1,2.144979e-01,NaN,1,0,2,1
59,352,3,102,68,1,1,1,6.405460e-01,NaN,1,0,3,1
59,353,3,85,13,2,2,1,6.409518e-01,NaN,1,0,2,1
59,354,3,47,50,2,2,1,1.319946e-01,NaN,1,1,1,1
59,355,3,25,18,1,1,1,2.943111e-01,NaN,1,1,1,1
59,356,3,88,34,1,1,1,9.981874e-01,NaN,1,0,2,1
59,357,3,82,28,1,1,1,1.594068e+00,NaN,1,0,2,1
59,358,3,77,70,1,1,1,1.056066e+00,NaN,1,0,2,1
59,359,3,120,24,2,2,1,1.332151e-01,NaN,1,1,3,1
59,360,3,133,71,2,2,1,1.820747e+00,NaN,1,0,3,1
59,361,3,96,21,2,2,1,3.825971e+00,NaN,1,0,2,1
59,362,3,68,17,2,1,0,1.765572e+00,NaN,1,1,2,1
59,363,3,64,36,1,2,0,1.532932e+00,NaN,1,0,2,1
59,364,3,36,44,2,2,1,1.530595e+00,NaN,1,0,1,1
59,365,3,72,65,2,1,0,8.336391e-01,NaN,1,0,2,1
59,366,3,127,35,2,2,1,4.491137e-01,NaN,1,0,3,1
59,367,3,95,46,2,2,1,2.941922e-01,NaN,1,0,2,1
59,368,3,51,27,2,2,1,1.438132e+00,NaN,1,0,2,1
59,393,2,11,22,2,2,1,2.845252e-01,NaN,1,0,1,2
59,394,2,21,58,2,2,1,5.600401e-01,NaN,1,0,1,2
59,395,2,136,6,1,1,1,1.164519e+00,NaN,1,1,3,2
59,396,2,130,12,2,2,1,2.013554e+00,NaN,1,0,3,2
59,397,2,37,63,1,1,1,5.453442e-01,NaN,1,1,1,2
59,398,2,118,2,2,2,1,7.594480e-01,NaN,1,0,3,2
59,399,2,141,31,2,2,1,1.926360e+00,NaN,1,0,3,2
59,400,2,91,26,1,2,0,8.910028e-01,NaN,1,0,2,2
59,401,2,65,32,1,2,0,4.259963e-01,NaN,1,0,2,2
59,402,2,27,52,2,2,1,3.103825e+00,NaN,1,1,1,2
59,403,2,67,72,1,2,0,1.324493e+00,NaN,1,0,2,2
59,404,2,109,55,1,1,1,7.439019e-01,NaN,1,1,3,2
59,405,2,119,10,2,2,1,5.487368e-01,NaN,1,0,3,2
59,406,2,62,56,2,2,1,9.224330e-01,NaN,1,0,2,2
59,407,2,93,37,1,1,1,3.240923e-01,NaN,1,0,2,2
59,408,2,70,7,1,2,0,1.254253e-01,NaN,1,0,2,2
59,409,2,121,23,1,1,1,6.118459e-01,NaN,1,0,3,2
59,410,2,99,5,1,2,0,4.473409e-01,NaN,1,1,3,2
59,411,2,134,64,1,2,0,4.226113e+00,NaN,1,0,3,2
59,412,2,48,47,1,1,1,1.102835e+00,NaN,1,0,1,2
59,413,2,60,16,1,1,1,9.614327e-01,NaN,1,1,2,2
59,414,2,126,45,1,1,1,5.566287e-01,NaN,1,0,3,2
59,415,2,22,43,2,2,1,5.212650e-01,NaN,1,0,1,2
59,416,2,138,57,1,1,1,1.650893e+00,NaN,1,0,3,2
59,417,3,134,64,1,1,1,9.393297e-01,NaN,1,0,3,2
59,418,3,37,63,2,2,1,9.454169e-01,NaN,1,1,1,2
59,419,3,67,72,2,2,1,4.567886e-01,NaN,1,0,2,2
59,420,3,11,22,1,1,1,6.699437e-01,NaN,1,0,1,2
59,421,3,118,2,1,2,0,2.865186e-01,NaN,1,0,3,2
59,422,3,99,5,2,2,1,1.934715e+00,NaN,1,1,3,2
59,423,3,93,37,1,1,1,1.022352e+00,NaN,1,0,2,2
59,424,3,138,57,2,2,1,3.452628e-01,NaN,1,0,3,2
59,425,3,65,32,1,1,1,9.250319e-01,NaN,1,0,2,2
59,426,3,22,43,2,2,1,1.552742e+00,NaN,1,0,1,2
59,427,3,141,31,2,2,1,7.175742e-01,NaN,1,0,3,2
59,428,3,136,6,1,1,1,2.687200e+00,NaN,1,1,3,2
59,429,3,109,55,2,2,1,4.336879e-01,NaN,1,1,3,2
59,430,3,121,23,2,2,1,8.892937e-01,NaN,1,0,3,2
59,431,3,119,10,1,1,1,1.443841e+00,NaN,1,0,3,2
59,432,3,126,45,1,1,1,2.434913e-01,NaN,1,0,3,2
59,433,3,48,47,1,1,1,1.432878e-01,NaN,1,0,1,2
59,434,3,130,12,1,1,1,7.369719e-01,NaN,1,0,3,2
59,435,3,60,16,1,1,1,2.583603e-01,NaN,1,1,2,2
59,436,3,27,52,1,1,1,2.414000e-01,NaN,1,1,1,2
59,437,3,62,56,1,2,0,1.001871e+00,NaN,1,0,2,2
59,438,3,91,26,1,1,1,8.475055e+00,NaN,1,0,2,2
59,439,3,70,7,2,2,1,6.683378e-01,NaN,1,0,2,2
59,440,3,21,58,2,2,1,1.067617e+00,NaN,1,0,1,2
59,465,2,20,67,2,2,1,1.755572e+00,NaN,1,0,1,3
59,466,2,24,49,2,2,1,1.310503e+00,NaN,1,0,1,3
59,467,2,106,38,1,1,1,6.934112e-01,NaN,1,1,3,3
59,468,2,59,42,2,2,1,5.682128e-01,NaN,1,0,2,3
59,469,2,76,69,2,2,1,2.282151e-01,NaN,1,0,2,3
59,470,2,33,8,2,2,1,1.209371e+00,NaN,1,0,1,3
59,471,2,41,48,1,2,0,1.908893e+00,NaN,1,0,1,3
59,472,2,19,19,2,2,1,1.238008e+00,NaN,1,0,1,3
59,473,2,86,20,1,1,1,7.372522e-01,NaN,1,1,2,3
59,474,2,3,11,2,2,1,5.184944e-01,NaN,1,0,1,3
59,475,2,135,14,2,1,0,1.083483e+00,NaN,1,0,3,3
59,476,2,116,54,2,2,1,7.094735e-01,NaN,1,1,3,3
59,477,2,5,9,1,1,1,6.599551e-01,NaN,1,0,1,3
59,478,2,132,51,1,1,1,1.630767e+00,NaN,1,1,3,3
59,479,2,29,15,2,2,1,4.299707e-01,NaN,1,0,1,3
59,480,2,32,66,1,1,1,1.395856e+00,NaN,1,0,1,3
59,481,2,35,29,2,2,1,8.746978e-01,NaN,1,1,1,3
59,482,2,61,59,1,1,1,1.474377e+00,NaN,1,1,2,3
59,483,2,69,30,1,1,1,1.095859e+00,NaN,1,0,2,3
59,484,2,8,53,2,2,1,2.637414e-01,NaN,1,0,1,3
59,485,2,117,25,1,1,1,1.331699e+00,NaN,1,1,3,3
59,486,2,123,33,2,2,1,3.828303e-01,NaN,1,1,3,3
59,487,2,131,3,1,1,1,1.112636e+00,NaN,1,0,3,3
59,488,2,9,39,2,1,0,2.200241e+00,NaN,1,0,1,3
59,489,3,3,11,1,1,1,1.504994e-01,NaN,1,0,1,3
59,490,3,29,15,2,2,1,9.045601e-01,NaN,1,0,1,3
59,491,3,76,69,2,2,1,5.073420e-01,NaN,1,0,2,3
59,492,3,35,29,2,2,1,2.397440e+00,NaN,1,1,1,3
59,493,3,33,8,2,2,1,9.450004e-01,NaN,1,0,1,3
59,494,3,117,25,1,1,1,2.342652e-01,NaN,1,1,3,3
59,495,3,8,53,2,2,1,1.659151e-01,NaN,1,0,1,3
59,496,3,116,54,1,1,1,3.476771e-01,NaN,1,1,3,3
59,497,3,131,3,2,2,1,2.976753e-01,NaN,1,0,3,3
59,498,3,19,19,2,1,0,3.122865e-01,NaN,1,0,1,3
59,499,3,20,67,2,2,1,4.471782e-01,NaN,1,0,1,3
59,500,3,41,48,2,2,1,4.772721e-01,NaN,1,0,1,3
59,501,3,135,14,2,1,0,1.644543e+00,NaN,1,0,3,3
59,502,3,123,33,2,2,1,1.704865e-01,NaN,1,1,3,3
59,503,3,5,9,1,2,0,3.599708e-01,NaN,1,0,1,3
59,504,3,24,49,2,2,1,3.305160e-01,NaN,1,0,1,3
59,505,3,61,59,2,2,1,9.679209e-01,NaN,1,1,2,3
59,506,3,132,51,2,2,1,2.636852e+00,NaN,1,1,3,3
59,507,3,69,30,2,2,1,1.994437e-01,NaN,1,0,2,3
59,508,3,106,38,1,1,1,3.364733e-01,NaN,1,1,3,3
59,509,3,9,39,2,2,1,3.160983e+00,NaN,1,0,1,3
59,510,3,86,20,2,1,0,1.281649e+00,NaN,1,1,2,3
59,511,3,59,42,2,2,1,1.375258e-01,NaN,1,0,2,3
59,512,3,32,66,1,1,1,1.195259e+00,NaN,1,0,1,3
59,537,4,52,11,1,2,0,3.772526e-01,NaN,2,0,2,1
59,538,4,101,61,1,1,1,2.699776e-01,NaN,2,0,3,1
59,539,4,73,25,2,2,1,5.592270e-01,NaN,2,1,2,1
59,540,4,125,59,1,1,1,2.021920e+00,NaN,2,1,3,1
59,541,4,16,34,2,2,1,3.065830e-01,NaN,2,0,1,1
59,542,4,7,37,1,2,0,2.846226e-01,NaN,2,0,1,1
59,543,4,31,10,2,2,1,4.595459e-01,NaN,2,0,1,1
59,544,4,81,33,1,1,1,1.491391e-01,NaN,2,1,2,1
59,545,4,100,49,1,1,1,4.544615e-01,NaN,2,0,3,1
59,546,4,110,1,1,1,1,2.987124e+00,NaN,2,0,3,1
59,547,4,58,19,1,1,1,2.191097e-01,NaN,2,0,2,1
59,548,4,89,23,2,2,1,9.735322e-01,NaN,2,0,2,1
59,549,4,42,40,2,2,1,1.701782e+00,NaN,2,0,1,1
59,550,4,49,67,1,1,1,3.069407e-01,NaN,2,0,2,1
59,551,4,30,38,1,1,1,2.770639e+00,NaN,2,1,1,1
59,552,4,79,5,2,2,1,1.215435e+00,NaN,2,1,2,1
59,553,4,46,64,2,1,0,1.352215e+00,NaN,2,0,1,1
59,554,4,122,21,1,1,1,3.090920e-01,NaN,2,0,3,1
59,555,4,114,16,2,1,0,6.217355e-01,NaN,2,1,3,1
59,556,4,53,52,2,2,1,2.113660e+00,NaN,2,1,2,1
59,557,4,34,54,2,2,1,9.375768e-01,NaN,2,1,1,1
59,558,4,108,47,1,1,1,4.923132e-01,NaN,2,0,3,1
59,559,4,44,2,2,2,1,2.025812e+00,NaN,2,0,1,1
59,560,4,15,46,1,1,1,3.909175e-01,NaN,2,0,1,1
59,585,4,54,39,2,2,1,7.146083e-01,NaN,2,0,2,2
59,586,4,107,29,2,2,1,2.445267e-01,NaN,2,1,3,2
59,587,4,13,28,1,1,1,5.149298e-01,NaN,2,0,1,2
59,588,4,112,50,2,2,1,1.115262e+00,NaN,2,1,3,2
59,589,4,63,22,2,2,1,9.249510e-01,NaN,2,0,2,2
59,590,4,144,36,2,2,1,1.515143e-01,NaN,2,0,3,2
59,591,4,55,9,2,1,0,7.357400e-01,NaN,2,0,2,2
59,592,4,75,51,2,2,1,1.907722e-01,NaN,2,1,2,2
59,593,4,78,71,1,2,0,4.040220e-01,NaN,2,0,2,2
59,594,4,83,3,1,1,1,1.537366e+00,NaN,2,0,2,2
59,595,4,50,66,1,2,0,3.524350e-01,NaN,2,0,2,2
59,596,4,66,4,2,2,1,5.914980e-01,NaN,2,0,2,2
59,597,4,98,63,2,1,0,6.331700e-01,NaN,2,1,3,2
59,598,4,104,8,2,1,0,1.171390e+00,NaN,2,0,3,2
59,599,4,97,15,1,1,1,1.006176e+00,NaN,2,0,3,2
59,600,4,129,65,2,2,1,2.270752e+00,NaN,2,0,3,2
59,601,4,6,30,1,1,1,1.011836e+00,NaN,2,0,1,2
59,602,4,38,31,2,2,1,2.854761e+00,NaN,2,0,1,2
59,603,4,71,44,1,1,1,5.158210e-01,NaN,2,0,2,2
59,604,4,115,32,1,2,0,5.980902e-01,NaN,2,0,3,2
59,605,4,4,13,2,2,1,2.046682e+00,NaN,2,0,1,2
59,606,4,124,56,1,1,1,1.971282e-01,NaN,2,0,3,2
59,607,4,74,62,1,1,1,6.533346e-01,NaN,2,0,2,2
59,608,4,94,55,2,2,1,1.375705e-01,NaN,2,1,2,2
59,633,4,14,60,2,2,1,4.932943e-01,NaN,2,0,1,3
59,634,4,12,70,2,2,1,2.196913e-01,NaN,2,0,1,3
59,635,4,105,58,2,1,0,3.800131e-01,NaN,2,0,3,3
59,636,4,57,53,1,1,1,8.093052e-01,NaN,2,0,2,3
59,637,4,45,35,1,1,1,2.611940e-01,NaN,2,0,1,3
59,638,4,56,43,1,1,1,3.958713e-01,NaN,2,0,2,3
59,639,4,140,42,2,2,1,1.025292e+00,NaN,2,0,3,3
59,640,4,92,45,1,1,1,6.701094e-01,NaN,2,0,2,3
59,641,4,111,48,2,1,0,7.891820e-01,NaN,2,0,3,3
59,642,4,26,69,1,1,1,5.447952e-01,NaN,2,0,1,3
59,643,4,40,14,1,1,1,3.989347e-01,NaN,2,0,1,3
59,644,4,84,6,1,1,1,3.207282e-01,NaN,2,1,2,3
59,645,4,43,57,2,2,1,6.068847e-01,NaN,2,0,1,3
59,646,4,18,41,1,2,0,1.220282e+00,NaN,2,0,1,3
59,647,4,1,72,1,1,1,4.448936e-01,NaN,2,0,1,3
59,648,4,128,26,2,1,0,4.737545e-01,NaN,2,0,3,3
59,649,4,137,20,1,2,0,2.181765e-01,NaN,2,1,3,3
59,650,4,143,27,2,2,1,3.374668e-01,NaN,2,0,3,3
59,651,4,80,68,2,2,1,1.810467e+00,NaN,2,0,2,3
59,652,4,2,17,1,1,1,2.837875e+00,NaN,2,1,1,3
59,653,4,28,12,2,2,1,3.911863e-01,NaN,2,0,1,3
59,654,4,113,7,1,2,0,4.589171e-01,NaN,2,0,3,3
59,655,4,39,24,1,2,0,9.327955e-01,NaN,2,1,1,3
59,656,4,103,18,2,2,1,3.879773e-01,NaN,2,1,3,3
59,657,4,2.256000e+01,43,1,1,1,1.905688e+00,1,1,0,1.200000e+00,1
59,658,4,3.520000e+00,11,1,1,1,1.917156e-01,1,1,0,1.200000e+00,1
59,659,4,2.997000e+01,15,1,1,1,6.907270e-01,1,1,0,1.300000e+00,1
59,660,4,3.520000e+00,11,1,1,1,3.343685e-01,2,1,0,1.200000e+00,1
59,661,4,1.344600e+02,64,3,2,0,3.398390e-01,1,1,0,3.100000e+00,1
59,662,4,7.113000e+01,7,2,2,1,3.300436e-01,1,1,0,2.300000e+00,1
59,663,4,8.816000e+01,34,2,2,1,4.008309e-01,1,1,0,2.100000e+00,1
59,664,4,4.908000e+01,47,1,1,1,1.896090e+00,1,1,0,1.300000e+00,1
59,665,4,2.997000e+01,15,1,1,1,5.033460e-01,2,1,0,1.300000e+00,1
59,666,4,6.544000e+01,36,2,2,1,3.974986e-01,1,1,0,2.300000e+00,1
59,667,4,1.424200e+02,40,3,1,0,2.925535e-01,1,1,0,3.100000e+00,1
59,668,4,25,49,1,1,1,5.247822e-01,1,1,0,1.300000e+00,1
59,669,4,1.354000e+02,14,3,3,1,4.300190e+00,1,1,0,3.100000e+00,1
59,670,4,6.906000e+01,30,2,2,1,4.083597e-01,1,1,0,2.100000e+00,1
59,671,4,8.816000e+01,34,2,2,1,1.594492e-01,2,1,0,2.100000e+00,1
59,672,4,1.413800e+02,31,3,3,1,1.614746e-01,1,1,0,3.100000e+00,1
59,673,4,1.801000e+01,61,1,1,1,7.920743e-01,1,1,0,1.300000e+00,1
59,674,4,2.049000e+01,67,1,1,1,8.201692e-01,1,1,0,1.200000e+00,1
59,675,4,2.205000e+01,58,1,1,1,1.709496e-01,1,1,0,1.300000e+00,1
59,676,4,6.701000e+01,72,2,3,0,2.229115e-01,1,1,0,2.100000e+00,1
59,677,4,7.329000e+01,65,2,4,0,6.064032e-01,1,1,0,2.300000e+00,1
59,678,4,1.958000e+01,19,1,1,1,3.707031e-01,1,1,0,1.200000e+00,1
59,679,4,1.028000e+02,68,3,1,0,1.485391e+00,1,1,0,3.200000e+00,1
59,680,4,9.014000e+01,60,2,2,1,5.859233e-01,1,1,0,2.100000e+00,1
59,681,4,1.218900e+02,23,3,2,0,6.551778e-01,1,1,0,3.200000e+00,1
59,682,4,3.520000e+00,11,1,1,1,9.354474e-02,3,1,0,1.200000e+00,1
59,683,4,5.243000e+01,27,2,2,1,3.476795e-01,1,1,0,2.300000e+00,1
59,684,4,1.318300e+02,3,3,3,1,1.765581e-01,1,1,0,3.200000e+00,1
59,685,4,1.397400e+02,62,3,3,1,1.371449e+00,1,1,0,3.200000e+00,1
59,686,4,1.337800e+02,71,3,3,1,3.356056e-01,1,1,0,3.200000e+00,1
59,687,4,8.213000e+01,28,2,2,1,5.248575e-01,1,1,0,2.100000e+00,1
59,688,4,9.014000e+01,60,2,2,1,1.878593e+00,2,1,0,2.100000e+00,1
59,689,4,1.397400e+02,62,3,3,1,3.945030e-01,2,1,0,3.200000e+00,1
59,690,4,1.354000e+02,14,3,3,1,3.832545e-01,2,1,0,3.100000e+00,1
59,691,4,1.269200e+02,45,3,3,1,1.109968e-01,1,1,0,3.200000e+00,1
59,692,4,8.504000e+01,13,2,2,1,5.497634e-01,1,1,0,2.100000e+00,1
59,693,4,6.701000e+01,72,2,2,1,1.191512e+00,2,1,0,2.100000e+00,1
59,694,4,1.302800e+02,12,3,1,0,6.014958e-01,1,1,0,3.100000e+00,1
59,695,4,1.193100e+02,10,3,1,0,9.653954e-01,1,1,0,3.100000e+00,1
59,696,4,1.413800e+02,31,3,3,1,5.949190e-01,2,1,0,3.100000e+00,1
59,697,4,2.410000e+01,1,1,1,1,1.263101e-01,1,1,0,1.300000e+00,1
59,698,4,1.066000e+01,4,1,1,1,6.623878e-01,1,1,0,1.200000e+00,1
59,699,4,1.028000e+02,68,3,3,1,1.303278e+00,2,1,0,3.200000e+00,1
59,700,4,1.958000e+01,19,1,1,1,2.583422e-01,2,1,0,1.200000e+00,1
59,701,4,4.908000e+01,47,1,1,1,5.606208e-01,2,1,0,1.300000e+00,1
59,702,4,2.410000e+01,1,1,1,1,1.128584e+00,2,1,0,1.300000e+00,1
59,703,4,9.722000e+01,21,2,2,1,1.382884e+00,1,1,0,2.300000e+00,1
59,704,4,8.504000e+01,13,2,2,1,2.012017e-01,2,1,0,2.100000e+00,1
59,705,4,1.384300e+02,57,3,1,0,4.038165e-01,1,1,0,3.100000e+00,1
59,706,4,9.540000e+00,39,1,1,1,2.388570e-01,1,1,0,1.200000e+00,1
59,707,4,9.515000e+01,46,2,2,1,3.129016e-01,1,1,0,2.100000e+00,1
59,708,4,3.404000e+01,8,1,1,1,7.436240e-01,1,1,0,1.300000e+00,1
59,709,4,9.540000e+00,39,1,1,1,6.390870e-01,2,1,0,1.200000e+00,1
59,710,4,4.211000e+01,48,1,1,1,6.763203e-01,1,1,0,1.300000e+00,1
59,711,4,1.337800e+02,71,3,3,1,3.118104e-01,2,1,0,3.200000e+00,1
59,712,4,1.163000e+01,22,1,1,1,8.371060e-01,1,1,0,1.200000e+00,1
59,713,4,8.504000e+01,13,2,2,1,6.354183e-01,3,1,0,2.100000e+00,1
59,714,4,3.404000e+01,8,1,1,1,4.818402e-01,2,1,0,1.300000e+00,1
59,715,4,1.344600e+02,64,3,3,1,5.162645e+00,2,1,0,3.100000e+00,1
59,716,4,9.014000e+01,60,2,2,1,2.069561e-01,3,1,0,2.100000e+00,1
59,717,4,6.324000e+01,56,2,2,1,2.404552e-01,1,1,0,2.300000e+00,1
59,718,4,8.213000e+01,28,2,1,0,5.500709e-01,2,1,0,2.100000e+00,1
59,719,4,1.218900e+02,23,3,3,1,3.649846e-01,2,1,0,3.200000e+00,1
59,720,4,1.193100e+02,10,3,3,1,1.266610e+00,2,1,0,3.100000e+00,1
59,721,4,6.906000e+01,30,2,1,0,5.460603e-01,2,1,0,2.100000e+00,1
59,722,4,2.205000e+01,58,1,1,1,6.929597e-01,2,1,0,1.300000e+00,1
59,723,4,5.550000e+00,9,1,2,0,2.280653e-01,1,1,0,1.200000e+00,1
59,724,4,5.550000e+00,9,1,1,1,1.249549e+00,2,1,0,1.200000e+00,1
59,725,4,1.218900e+02,23,3,3,1,1.468276e-01,3,1,0,3.200000e+00,1
59,726,4,1.302800e+02,12,3,2,0,9.739729e-01,2,1,0,3.100000e+00,1
59,727,4,8.570000e+00,53,1,2,0,2.242709e+00,1,1,0,1.200000e+00,1
59,728,4,7.712000e+01,70,2,1,0,7.545512e-01,1,1,0,2.100000e+00,1
59,729,4,1.274500e+02,35,3,1,0,2.777167e-01,1,1,0,3.100000e+00,1
59,730,4,3.250000e+01,66,1,1,1,2.199874e+00,1,1,0,1.200000e+00,1
59,731,4,8.570000e+00,53,1,1,1,8.178602e-01,2,1,0,1.200000e+00,1
59,732,4,4.211000e+01,48,1,3,0,6.645641e-01,2,1,0,1.300000e+00,1
59,733,4,1.397400e+02,62,3,3,1,1.584466e-01,3,1,0,3.200000e+00,1
59,734,4,9.228000e+01,26,2,4,0,8.514109e-01,1,1,0,2.300000e+00,1
59,735,4,9.515000e+01,46,2,1,0,2.413556e-01,2,1,0,2.100000e+00,1
59,736,4,4.211000e+01,48,1,1,1,3.589160e-01,3,1,0,1.300000e+00,1
59,737,4,8.213000e+01,28,2,2,1,1.438481e-01,3,1,0,2.100000e+00,1
59,738,4,1.269200e+02,45,3,3,1,4.995800e-01,2,1,0,3.200000e+00,1
59,739,4,6.324000e+01,56,2,2,1,7.025143e-02,2,1,0,2.300000e+00,1
59,740,4,1.318300e+02,3,3,3,1,2.418454e-01,2,1,0,3.200000e+00,1
59,741,4,6.040000e+01,42,2,2,1,2.130997e-01,1,1,0,2.300000e+00,1
59,742,4,6.544000e+01,36,2,2,1,1.334070e+00,2,1,0,2.300000e+00,1
59,743,4,7.113000e+01,7,2,2,1,6.094997e-01,2,1,0,2.300000e+00,1
59,744,4,1.424200e+02,40,3,3,1,1.869591e-01,2,1,0,3.100000e+00,1
59,745,4,4.908000e+01,47,1,1,1,1.037030e+00,3,1,0,1.300000e+00,1
59,746,4,6.615000e+01,32,2,2,1,2.064834e-01,1,1,0,2.300000e+00,1
59,747,4,1.269200e+02,45,3,3,1,7.298900e-02,3,1,0,3.200000e+00,1
59,748,4,6.615000e+01,32,2,2,1,1.782718e+00,2,1,0,2.300000e+00,1
59,749,4,8.504000e+01,13,2,2,1,3.609210e-01,4,1,0,2.100000e+00,1
59,750,4,1.066000e+01,4,1,1,1,2.112672e-01,2,1,0,1.200000e+00,1
59,751,4,8.718000e+01,41,2,2,1,1.697183e-01,1,1,0,2.100000e+00,1
59,752,4,1.801000e+01,61,1,1,1,1.069513e+00,2,1,0,1.300000e+00,1
59,753,4,1.184400e+02,2,3,3,1,3.378441e-01,1,1,0,3.100000e+00,1
59,754,4,2.256000e+01,43,1,2,0,2.676548e-01,2,1,0,1.200000e+00,1
59,755,4,1.344600e+02,64,3,4,0,4.689868e-01,3,1,0,3.100000e+00,1
59,756,4,1.424200e+02,40,3,3,1,1.618937e-01,3,1,0,3.100000e+00,1
59,757,4,3.671000e+01,44,1,1,1,2.206892e-01,1,1,0,1.200000e+00,1
59,758,4,1.413800e+02,31,3,3,1,1.028089e-01,3,1,0,3.100000e+00,1
59,759,4,1.184400e+02,2,3,3,1,2.438411e-01,2,1,0,3.100000e+00,1
59,760,4,7.712000e+01,70,2,2,1,1.397613e+00,2,1,0,2.100000e+00,1
59,761,4,1.384300e+02,57,3,3,1,7.092671e-01,2,1,0,3.100000e+00,1
59,762,4,6.544000e+01,36,2,2,1,1.835323e-01,3,1,0,2.300000e+00,1
59,763,4,6.615000e+01,32,2,2,1,1.210531e+00,3,1,0,2.300000e+00,1
59,764,4,2.205000e+01,58,1,1,1,5.528410e-01,3,1,0,1.300000e+00,1
59,765,4,7.626000e+01,69,2,2,1,1.462536e-01,1,1,0,2.100000e+00,1
59,766,4,7.113000e+01,7,2,2,1,1.091201e+00,3,1,0,2.300000e+00,1
59,767,4,6.040000e+01,42,2,2,1,9.044330e-01,2,1,0,2.300000e+00,1
59,768,4,9.228000e+01,26,2,2,1,1.588465e-01,2,1,0,2.300000e+00,1
59,769,4,6.701000e+01,72,2,2,1,1.170147e+00,3,1,0,2.100000e+00,1
59,770,4,4.211000e+01,48,1,1,1,2.886247e-01,4,1,0,1.300000e+00,1
59,771,4,1.384300e+02,57,3,3,1,1.134701e+00,3,1,0,3.100000e+00,1
59,772,4,1.274500e+02,35,3,3,1,4.729965e-01,2,1,0,3.100000e+00,1
59,773,4,25,49,1,1,1,1.069644e-01,2,1,0,1.300000e+00,1
59,774,4,6.701000e+01,72,2,1,0,3.532202e-01,4,1,0,2.100000e+00,1
59,775,4,6.324000e+01,56,2,2,1,2.126052e-01,3,1,0,2.300000e+00,1
59,776,4,1.302800e+02,12,3,3,1,7.143883e-01,3,1,0,3.100000e+00,1
59,777,4,9.722000e+01,21,2,2,1,5.478893e-01,2,1,0,2.300000e+00,1
59,778,4,1.184400e+02,2,3,3,1,3.496498e+00,3,1,0,3.100000e+00,1
59,779,4,2.410000e+01,1,1,1,1,2.862522e-01,3,1,0,1.300000e+00,1
59,780,4,9.722000e+01,21,2,2,1,7.215318e-01,3,1,0,2.300000e+00,1
59,781,4,8.570000e+00,53,1,1,1,1.014143e+00,3,1,0,1.200000e+00,1
59,782,4,6.040000e+01,42,2,2,1,3.737908e-01,3,1,0,2.300000e+00,1
59,783,4,7.626000e+01,69,2,2,1,1.657413e+00,2,1,0,2.100000e+00,1
59,784,4,8.816000e+01,34,2,2,1,6.300399e-01,3,1,0,2.100000e+00,1
59,785,4,5.243000e+01,27,2,2,1,6.211693e-01,2,1,0,2.300000e+00,1
59,786,4,1.163000e+01,22,1,1,1,4.950465e-01,2,1,0,1.200000e+00,1
59,787,4,1.274500e+02,35,3,3,1,3.357087e-01,3,1,0,3.100000e+00,1
59,788,4,25,49,1,4,0,2.922199e+00,3,1,0,1.300000e+00,1
59,789,4,1.193100e+02,10,3,3,1,2.942342e+00,3,1,0,3.100000e+00,1
59,790,4,6.544000e+01,36,2,2,1,4.824573e-01,4,1,0,2.300000e+00,1
59,791,4,5.550000e+00,9,1,1,1,1.559457e-01,3,1,0,1.200000e+00,1
59,792,4,1.302800e+02,12,3,3,1,4.063127e-01,4,1,0,3.100000e+00,1
59,793,4,1.163000e+01,22,1,1,1,2.674702e-01,3,1,0,1.200000e+00,1
59,794,4,6.906000e+01,30,2,1,0,4.463178e-01,3,1,0,2.100000e+00,1
59,795,4,9.722000e+01,21,2,2,1,5.901016e-01,4,1,0,2.300000e+00,1
59,796,4,9.540000e+00,39,1,1,1,5.142837e-01,3,1,0,1.200000e+00,1
59,797,4,1.958000e+01,19,1,1,1,3.935562e-01,3,1,0,1.200000e+00,1
59,798,4,25,49,1,1,1,1.363110e+00,4,1,0,1.300000e+00,1
59,799,4,8.816000e+01,34,2,2,1,4.967343e-01,4,1,0,2.100000e+00,1
59,800,4,1.801000e+01,61,1,4,0,1.224004e-01,3,1,0,1.300000e+00,1
59,801,4,3.404000e+01,8,1,3,0,9.519900e-01,3,1,0,1.300000e+00,1
59,802,4,2.997000e+01,15,1,1,1,4.599973e-01,3,1,0,1.300000e+00,1
59,803,4,9.515000e+01,46,2,2,1,5.576392e-01,3,1,0,2.100000e+00,1
59,804,4,1.801000e+01,61,1,3,0,1.226629e-01,4,1,0,1.300000e+00,1
59,805,4,9.307000e+01,37,2,2,1,4.522768e-01,1,1,0,2.100000e+00,1
59,806,4,1.028000e+02,68,3,3,1,2.796493e-01,3,1,0,3.200000e+00,1
59,807,4,9.515000e+01,46,2,1,0,5.489380e-01,4,1,0,2.100000e+00,1
59,808,4,1.218900e+02,23,3,2,0,1.526943e-01,4,1,0,3.200000e+00,1
59,809,4,2.256000e+01,43,1,1,1,8.245846e-01,3,1,0,1.200000e+00,1
59,810,4,1.337800e+02,71,3,2,0,1.146671e+00,3,1,0,3.200000e+00,1
59,811,4,3.671000e+01,44,1,1,1,5.960973e-01,2,1,0,1.200000e+00,1
59,812,4,9.014000e+01,60,2,1,0,4.962611e-01,4,1,0,2.100000e+00,1
59,813,4,1.028000e+02,68,3,3,1,2.156882e+00,4,1,0,3.200000e+00,1
59,814,4,2.049000e+01,67,1,1,1,1.194883e-01,2,1,0,1.200000e+00,1
59,815,4,1.397400e+02,62,3,3,1,1.185022e+00,4,1,0,3.200000e+00,1
59,816,4,2.205000e+01,58,1,1,1,3.511684e-01,4,1,0,1.300000e+00,1
59,817,4,8.213000e+01,28,2,4,0,7.719556e-02,4,1,0,2.100000e+00,1
59,818,4,1.337800e+02,71,3,3,1,4.694030e-01,4,1,0,3.200000e+00,1
59,819,4,9.228000e+01,26,2,3,0,2.164717e+00,3,1,0,2.300000e+00,1
59,820,4,9.307000e+01,37,2,2,1,1.158590e+00,2,1,0,2.100000e+00,1
59,821,4,5.243000e+01,27,2,2,1,6.615091e-01,3,1,0,2.300000e+00,1
59,822,4,8.718000e+01,41,2,2,1,1.797914e+00,2,1,0,2.100000e+00,1
59,823,4,6.324000e+01,56,2,2,1,1.579960e-01,4,1,0,2.300000e+00,1
59,824,4,6.040000e+01,42,2,2,1,4.906561e-01,4,1,0,2.300000e+00,1
59,825,4,1.354000e+02,14,3,3,1,6.236525e-01,3,1,0,3.100000e+00,1
59,826,4,1.354000e+02,14,3,4,0,7.188077e-02,4,1,0,3.100000e+00,1
59,827,4,7.626000e+01,69,2,2,1,7.388379e-01,3,1,0,2.100000e+00,1
59,828,4,7.113000e+01,7,2,2,1,1.222393e-01,4,1,0,2.300000e+00,1
59,829,4,4.908000e+01,47,1,1,1,1.566148e-01,4,1,0,1.300000e+00,1
59,830,4,2.410000e+01,1,1,3,0,2.271798e-01,4,1,0,1.300000e+00,1
59,831,4,5.550000e+00,9,1,1,1,4.236984e-01,4,1,0,1.200000e+00,1
59,832,4,2.997000e+01,15,1,1,1,2.655617e+00,4,1,0,1.300000e+00,1
59,833,4,1.163000e+01,22,1,2,0,3.008331e-01,4,1,0,1.200000e+00,1
59,834,4,8.718000e+01,41,2,2,1,2.642365e-01,3,1,0,2.100000e+00,1
59,835,4,3.520000e+00,11,1,1,1,2.222532e-01,4,1,0,1.200000e+00,1
59,836,4,2.049000e+01,67,1,1,1,5.997013e-01,3,1,0,1.200000e+00,1
59,837,4,1.269200e+02,45,3,3,1,2.093850e-01,4,1,0,3.200000e+00,1
59,838,4,7.712000e+01,70,2,2,1,4.139762e-01,3,1,0,2.100000e+00,1
59,839,4,3.250000e+01,66,1,1,1,1.315077e-01,2,1,0,1.200000e+00,1
59,840,4,7.329000e+01,65,2,2,1,1.440415e+00,2,1,0,2.300000e+00,1
59,841,4,7.712000e+01,70,2,2,1,9.261463e-01,4,1,0,2.100000e+00,1
59,842,4,9.307000e+01,37,2,2,1,2.993092e-01,3,1,0,2.100000e+00,1
59,843,4,7.329000e+01,65,2,2,1,3.652992e-01,3,1,0,2.300000e+00,1
59,844,4,1.958000e+01,19,1,1,1,1.787632e+00,4,1,0,1.200000e+00,1
59,845,4,1.066000e+01,4,1,1,1,7.531802e-01,3,1,0,1.200000e+00,1
59,846,4,1.344600e+02,64,3,3,1,1.084397e+00,4,1,0,3.100000e+00,1
59,847,4,1.318300e+02,3,3,3,1,7.349750e-01,3,1,0,3.200000e+00,1
59,848,4,8.570000e+00,53,1,1,1,1.460758e+00,4,1,0,1.200000e+00,1
59,849,4,3.250000e+01,66,1,1,1,4.432632e-01,3,1,0,1.200000e+00,1
59,850,4,3.671000e+01,44,1,1,1,5.922746e-01,3,1,0,1.200000e+00,1
59,851,4,1.384300e+02,57,3,3,1,8.338021e-01,4,1,0,3.100000e+00,1
59,852,4,9.540000e+00,39,1,1,1,1.169338e+00,4,1,0,1.200000e+00,1
59,853,4,1.318300e+02,3,3,3,1,4.711114e-01,4,1,0,3.200000e+00,1
59,854,4,6.906000e+01,30,2,2,1,4.120449e-01,4,1,0,2.100000e+00,1
59,855,4,2.049000e+01,67,1,1,1,4.513023e-01,4,1,0,1.200000e+00,1
59,856,4,1.274500e+02,35,3,3,1,4.495898e-01,4,1,0,3.100000e+00,1
59,857,4,3.671000e+01,44,1,1,1,7.006590e-01,4,1,0,1.200000e+00,1
59,858,4,1.193100e+02,10,3,3,1,2.458119e-01,4,1,0,3.100000e+00,1
59,859,4,3.250000e+01,66,1,1,1,8.708541e-02,4,1,0,1.200000e+00,1
59,860,4,1.413800e+02,31,3,3,1,6.707672e-01,4,1,0,3.100000e+00,1
59,861,4,1.424200e+02,40,3,3,1,1.510758e-01,4,1,0,3.100000e+00,1
59,862,4,3.404000e+01,8,1,1,1,1.200719e-01,4,1,0,1.300000e+00,1
59,863,4,9.307000e+01,37,2,1,0,6.382285e-01,4,1,0,2.100000e+00,1
59,864,4,7.329000e+01,65,2,2,1,2.426837e-01,4,1,0,2.300000e+00,1
59,865,4,6.615000e+01,32,2,2,1,1.439116e-01,4,1,0,2.300000e+00,1
59,866,4,1.184400e+02,2,3,1,0,6.627628e-01,4,1,0,3.100000e+00,1
59,867,4,2.256000e+01,43,1,3,0,1.310111e+00,4,1,0,1.200000e+00,1
59,868,4,1.066000e+01,4,1,1,1,6.311577e-01,4,1,0,1.200000e+00,1
59,869,4,5.243000e+01,27,2,2,1,3.054179e-01,4,1,0,2.300000e+00,1
59,870,4,9.228000e+01,26,2,2,1,2.707765e-01,4,1,0,2.300000e+00,1
59,871,4,8.718000e+01,41,2,2,1,2.312606e-01,4,1,0,2.100000e+00,1
59,872,4,7.626000e+01,69,2,4,0,1.673968e-01,4,1,0,2.100000e+00,1
59,873,6,83,3,2,2,1,1.365881e+00,NaN,2,0,2,1
59,874,6,7,37,1,1,1,1.851840e+00,NaN,2,0,1,1
59,875,6,110,1,1,1,1,6.644554e-01,NaN,2,0,3,1
59,876,6,39,24,2,2,1,1.016333e+00,NaN,2,1,1,1
59,877,6,44,2,1,1,1,9.716788e-01,NaN,2,0,1,1
59,878,6,16,34,1,1,1,6.299813e-01,NaN,2,0,1,1
59,879,6,112,50,2,2,1,1.727188e+00,NaN,2,1,3,1
59,880,6,78,71,2,2,1,2.377902e-01,NaN,2,0,2,1
59,881,6,75,51,2,2,1,2.878224e+00,NaN,2,1,2,1
59,882,6,30,38,2,2,1,3.919629e-01,NaN,2,1,1,1
59,883,6,80,68,2,2,1,1.896214e+00,NaN,2,0,2,1
59,884,6,55,9,1,1,1,6.852965e-01,NaN,2,0,2,1
59,885,6,124,56,2,2,1,7.172961e-01,NaN,2,0,3,1
59,886,6,115,32,1,1,1,3.814858e-01,NaN,2,0,3,1
59,887,6,97,15,2,2,1,3.882652e-01,NaN,2,0,3,1
59,888,6,4,13,1,2,0,1.876926e-01,NaN,2,0,1,1
59,889,6,6,30,2,2,1,2.808202e+00,NaN,2,0,1,1
59,890,6,137,20,2,1,0,9.800179e-01,NaN,2,1,3,1
59,891,6,104,8,2,2,1,9.306105e-01,NaN,2,0,3,1
59,892,6,2,17,2,2,1,6.340755e-01,NaN,2,1,1,1
59,893,6,53,52,1,1,1,1.356409e+00,NaN,2,1,2,1
59,894,6,140,42,1,1,1,6.478728e-01,NaN,2,0,3,1
59,895,6,52,11,2,2,1,1.602099e-01,NaN,2,0,2,1
59,896,6,144,36,2,2,1,8.570185e-01,NaN,2,0,3,1
59,897,6,34,54,2,2,1,1.851053e-01,NaN,2,1,1,1
59,898,6,122,21,2,2,1,2.277790e-01,NaN,2,0,3,1
59,899,6,1,72,2,2,1,4.451788e-01,NaN,2,0,1,1
59,900,6,79,5,1,1,1,9.581446e-01,NaN,2,1,2,1
59,901,6,71,44,2,2,1,6.789374e-01,NaN,2,0,2,1
59,902,6,125,59,2,2,1,4.767110e-01,NaN,2,1,3,1
59,903,6,98,63,2,2,1,2.486153e-01,NaN,2,1,3,1
59,904,6,38,31,1,2,0,4.086904e-01,NaN,2,0,1,1
59,905,6,26,69,1,1,1,3.910580e-01,NaN,2,0,1,1
59,906,6,45,35,2,2,1,5.354844e-01,NaN,2,0,1,1
59,907,6,92,45,1,1,1,1.129366e-01,NaN,2,0,2,1
59,908,6,58,19,1,2,0,5.645989e-01,NaN,2,0,2,1
59,909,6,111,48,2,2,1,1.472187e+00,NaN,2,0,3,1
59,910,6,50,66,1,2,0,5.787776e-01,NaN,2,0,2,1
59,911,6,14,60,2,2,1,2.630866e-01,NaN,2,0,1,1
59,912,6,43,57,2,2,1,7.501174e-01,NaN,2,0,1,1
59,913,6,114,16,2,2,1,1.657376e+00,NaN,2,1,3,1
59,914,6,74,62,2,2,1,1.775345e+00,NaN,2,0,2,1
59,915,6,28,12,2,2,1,2.204605e-01,NaN,2,0,1,1
59,916,6,103,18,1,1,1,5.584708e-01,NaN,2,1,3,1
59,917,6,31,10,1,2,0,1.672393e+00,NaN,2,0,1,1
59,918,6,113,7,1,1,1,1.269786e+00,NaN,2,0,3,1
59,919,6,12,70,1,1,1,4.720361e-01,NaN,2,0,1,1
59,920,6,108,47,1,1,1,1.163077e+00,NaN,2,0,3,1
59,921,6,18,41,1,1,1,3.348685e-01,NaN,2,0,1,1
59,922,6,143,27,1,2,0,1.434092e+00,NaN,2,0,3,1
59,923,6,73,25,2,2,1,1.709346e+00,NaN,2,1,2,1
59,924,6,63,22,2,2,1,2.899387e-01,NaN,2,0,2,1
59,925,6,46,64,1,1,1,2.002510e-01,NaN,2,0,1,1
59,926,6,54,39,2,2,1,2.057227e-01,NaN,2,0,2,1
59,927,6,105,58,2,2,1,2.497022e+00,NaN,2,0,3,1
59,928,6,81,33,2,2,1,1.433440e-01,NaN,2,1,2,1
59,929,6,101,61,1,2,0,5.099867e-01,NaN,2,0,3,1
59,930,6,42,40,2,2,1,3.473481e-01,NaN,2,0,1,1
59,931,6,84,6,1,1,1,2.198006e-01,NaN,2,1,2,1
59,932,6,57,53,2,2,1,3.152404e-01,NaN,2,0,2,1
59,933,6,107,29,2,2,1,4.011715e-01,NaN,2,1,3,1
59,934,6,56,43,1,1,1,9.703094e-01,NaN,2,0,2,1
59,935,6,49,67,2,1,0,3.256395e-01,NaN,2,0,2,1
59,936,6,13,28,1,1,1,9.538974e-01,NaN,2,0,1,1
59,937,6,128,26,1,1,1,3.268628e+00,NaN,2,0,3,1
59,938,6,89,23,2,1,0,1.472223e-01,NaN,2,0,2,1
59,939,6,129,65,2,2,1,4.954734e-01,NaN,2,0,3,1
59,940,6,66,4,1,1,1,4.349467e-01,NaN,2,0,2,1
59,941,6,100,49,2,1,0,5.273450e-01,NaN,2,0,3,1
59,942,6,15,46,2,2,1,3.701330e-01,NaN,2,0,1,1
59,943,6,94,55,2,1,0,1.189904e+00,NaN,2,1,2,1
59,944,6,40,14,1,1,1,5.314250e-01,NaN,2,0,1,1
59,945,6,130,12,1,1,1,5.215728e-01,NaN,1,0,3,1
59,946,6,59,42,1,1,1,1.803398e+00,NaN,1,0,2,1
59,947,6,70,7,2,2,1,4.189782e+00,NaN,1,0,2,1
59,948,6,29,15,1,1,1,7.892703e-01,NaN,1,0,1,1
59,949,6,131,3,1,1,1,1.930563e-01,NaN,1,0,3,1
59,950,6,127,35,2,2,1,3.659706e-01,NaN,1,0,3,1
59,951,6,67,72,1,1,1,2.628556e-01,NaN,1,0,2,1
59,952,6,142,40,2,2,1,4.179415e-01,NaN,1,0,3,1
59,953,6,36,44,1,1,1,5.413679e-01,NaN,1,0,1,1
59,954,6,60,16,2,2,1,1.080152e+00,NaN,1,1,2,1
59,955,6,133,71,1,1,1,6.447402e-01,NaN,1,0,3,1
59,956,6,48,47,2,2,1,8.530641e-01,NaN,1,0,1,1
59,957,6,68,17,2,2,1,4.212311e-01,NaN,1,1,2,1
59,958,6,95,46,1,1,1,6.029005e-01,NaN,1,0,2,1
59,959,6,20,67,1,2,0,6.672102e-01,NaN,1,0,1,1
59,960,6,61,59,2,2,1,3.748861e+00,NaN,1,1,2,1
59,961,6,134,64,2,2,1,1.039521e+00,NaN,1,0,3,1
59,962,6,9,39,1,1,1,3.474760e-01,NaN,1,0,1,1
59,963,6,77,70,1,1,1,4.414360e-01,NaN,1,0,2,1
59,964,6,47,50,2,2,1,1.410913e-01,NaN,1,1,1,1
59,965,6,82,28,1,1,1,2.935786e+00,NaN,1,0,2,1
59,966,6,8,53,1,1,1,1.484095e+00,NaN,1,0,1,1
59,967,6,33,8,2,2,1,2.057634e-01,NaN,1,0,1,1
59,968,6,96,21,1,1,1,7.348433e-01,NaN,1,0,2,1
59,969,6,3,11,1,1,1,5.915177e-01,NaN,1,0,1,1
59,970,6,139,62,2,2,1,1.584111e-01,NaN,1,0,3,1
59,971,6,24,49,2,2,1,1.167809e+00,NaN,1,0,1,1
59,972,6,87,41,1,1,1,5.726409e-01,NaN,1,0,2,1
59,973,6,21,58,2,2,1,3.038017e-01,NaN,1,0,1,1
59,974,6,17,61,1,1,1,1.503632e+00,NaN,1,0,1,1
59,975,6,132,51,2,1,0,1.243890e+00,NaN,1,1,3,1
59,976,6,62,56,2,2,1,1.186707e+00,NaN,1,0,2,1
59,977,6,72,65,2,2,1,4.016607e+00,NaN,1,0,2,1
59,978,6,41,48,2,2,1,2.749371e-01,NaN,1,0,1,1
59,979,6,99,5,2,2,1,1.068862e+00,NaN,1,1,3,1
59,980,6,102,68,1,1,1,3.860126e-01,NaN,1,0,3,1
59,981,6,11,22,2,2,1,3.135324e-01,NaN,1,0,1,1
59,982,6,90,60,2,2,1,3.301448e-01,NaN,1,0,2,1
59,983,6,27,52,2,2,1,1.621339e-01,NaN,1,1,1,1
59,984,6,5,9,2,2,1,6.841442e-01,NaN,1,0,1,1
59,985,6,135,14,1,2,0,1.517157e-01,NaN,1,0,3,1
59,986,6,119,10,2,2,1,1.080589e+00,NaN,1,0,3,1
59,987,6,19,19,2,2,1,8.167956e-01,NaN,1,0,1,1
59,988,6,141,31,2,1,0,5.552802e+00,NaN,1,0,3,1
59,989,6,32,66,1,1,1,1.468531e-01,NaN,1,0,1,1
59,990,6,136,6,2,2,1,1.960385e+00,NaN,1,1,3,1
59,991,6,116,54,1,1,1,3.596510e-01,NaN,1,1,3,1
59,992,6,85,13,1,1,1,2.921940e-01,NaN,1,0,2,1
59,993,6,88,34,2,1,0,1.469516e-01,NaN,1,0,2,1
59,994,6,121,23,2,2,1,8.894642e-01,NaN,1,0,3,1
59,995,6,22,43,2,2,1,6.411824e+00,NaN,1,0,1,1
59,996,6,25,18,2,2,1,6.515535e-01,NaN,1,1,1,1
59,997,6,120,24,1,1,1,6.568081e-01,NaN,1,1,3,1
59,998,6,123,33,2,1,0,1.562801e-01,NaN,1,1,3,1
59,999,6,93,37,2,2,1,3.461361e-01,NaN,1,0,2,1
59,1000,6,138,57,2,2,1,1.786921e+00,NaN,1,0,3,1
59,1001,6,23,1,2,2,1,1.809638e-01,NaN,1,0,1,1
59,1002,6,64,36,2,2,1,1.712029e+00,NaN,1,0,2,1
59,1003,6,109,55,2,2,1,6.019054e-01,NaN,1,1,3,1
59,1004,6,118,2,2,2,1,8.015303e-01,NaN,1,0,3,1
59,1005,6,91,26,2,2,1,7.027884e-01,NaN,1,0,2,1
59,1006,6,86,20,1,1,1,4.383603e-01,NaN,1,1,2,1
59,1007,6,35,29,1,1,1,7.902750e-01,NaN,1,1,1,1
59,1008,6,65,32,2,2,1,4.510739e-01,NaN,1,0,2,1
59,1009,6,117,25,2,2,1,3.825414e-01,NaN,1,1,3,1
59,1010,6,126,45,1,1,1,1.727108e-01,NaN,1,0,3,1
59,1011,6,37,63,2,2,1,3.960050e-01,NaN,1,1,1,1
59,1012,6,69,30,2,2,1,1.118190e+00,NaN,1,0,2,1
59,1013,6,76,69,2,2,1,2.616939e-01,NaN,1,0,2,1
59,1014,6,51,27,2,2,1,3.104039e-01,NaN,1,0,2,1
59,1015,6,10,4,2,2,1,2.148536e+00,NaN,1,0,1,1
59,1016,6,106,38,1,1,1,3.776414e-01,NaN,1,1,3,1
