Subject,Trial,Cond,ImageNum,CueNum,Correct,Resp,Accuracy,RT,CueRep,ImageType,Baseline,Category,Block
71,1,1,106,NaN,NaN,1,NaN,2.350827e+00,NaN,0,0,3,1
71,2,1,79,NaN,NaN,1,NaN,1.014160e+00,NaN,2,1,2,1
71,3,1,62,NaN,NaN,1,NaN,5.956694e-01,NaN,1,0,2,1
71,4,1,122,NaN,NaN,1,NaN,4.274666e+00,NaN,0,0,3,1
71,5,1,59,NaN,NaN,1,NaN,1.666908e-01,NaN,2,0,2,1
71,6,1,95,NaN,NaN,1,NaN,7.191639e-01,NaN,1,0,2,1
71,7,1,70,NaN,NaN,1,NaN,4.838156e-01,NaN,0,0,2,1
71,8,1,104,NaN,NaN,1,NaN,6.510642e-01,NaN,0,0,3,1
71,9,1,23,NaN,NaN,1,NaN,2.089780e+00,NaN,0,0,1,1
71,10,1,33,NaN,NaN,1,NaN,1.309098e+00,NaN,0,1,1,1
71,11,1,114,NaN,NaN,1,NaN,1.409184e+00,NaN,1,0,3,1
71,12,1,34,NaN,NaN,1,NaN,9.494107e-01,NaN,0,0,1,1
71,13,1,4,NaN,NaN,2,NaN,1.664387e-01,NaN,1,0,1,1
71,14,1,25,NaN,NaN,1,NaN,5.685934e-01,NaN,0,0,1,1
71,15,1,141,NaN,NaN,1,NaN,6.270773e-01,NaN,0,0,3,1
71,16,1,38,NaN,NaN,1,NaN,2.583709e+00,NaN,0,1,1,1
71,17,1,95,NaN,NaN,1,NaN,4.104335e-01,NaN,0,0,2,1
71,18,1,94,NaN,NaN,1,NaN,1.263319e+00,NaN,0,1,2,1
71,19,1,59,NaN,NaN,1,NaN,2.882663e+00,NaN,0,0,2,1
71,20,1,70,NaN,NaN,1,NaN,5.077768e+00,NaN,2,0,2,1
71,21,1,7,NaN,NaN,1,NaN,5.998183e-01,NaN,0,0,1,1
71,22,1,28,NaN,NaN,1,NaN,2.225867e+00,NaN,0,0,1,1
71,23,1,140,NaN,NaN,1,NaN,4.782577e-01,NaN,0,0,3,1
71,24,1,73,NaN,NaN,1,NaN,3.218635e+00,NaN,0,0,2,1
71,25,1,64,NaN,NaN,1,NaN,6.984168e-01,NaN,1,0,2,1
71,26,1,60,NaN,NaN,1,NaN,3.677432e-01,NaN,1,0,2,1
71,27,1,118,NaN,NaN,1,NaN,4.255772e-01,NaN,1,0,3,1
71,28,1,28,NaN,NaN,1,NaN,1.447163e+00,NaN,1,0,1,1
71,29,1,99,NaN,NaN,2,NaN,1.435460e+00,NaN,2,0,3,1
71,30,1,52,NaN,NaN,1,NaN,2.356340e-01,NaN,2,1,2,1
71,31,1,26,NaN,NaN,1,NaN,1.253076e+00,NaN,2,1,1,1
71,32,1,7,NaN,NaN,1,NaN,6.998462e-01,NaN,1,0,1,1
71,33,1,88,NaN,NaN,1,NaN,1.289462e+00,NaN,1,1,2,1
71,34,1,132,NaN,NaN,1,NaN,2.650768e-01,NaN,2,0,3,1
71,35,1,55,NaN,NaN,1,NaN,5.988758e-01,NaN,1,0,2,1
71,36,1,94,NaN,NaN,1,NaN,2.803476e+00,NaN,2,1,2,1
71,37,1,133,NaN,NaN,1,NaN,2.955217e-01,NaN,0,0,3,1
71,38,1,11,NaN,NaN,1,NaN,1.390796e+00,NaN,2,0,1,1
71,39,1,54,NaN,NaN,1,NaN,3.807637e-01,NaN,0,1,2,1
71,40,1,117,NaN,NaN,1,NaN,6.727518e-01,NaN,2,0,3,1
71,41,1,49,NaN,NaN,1,NaN,1.331439e+00,NaN,1,1,2,1
71,42,1,74,NaN,NaN,1,NaN,7.923124e-01,NaN,1,0,2,1
71,43,1,107,NaN,NaN,1,NaN,6.294005e-01,NaN,0,0,3,1
71,44,1,142,NaN,NaN,1,NaN,1.192372e+00,NaN,0,0,3,1
71,45,1,132,NaN,NaN,1,NaN,2.472600e+00,NaN,0,0,3,1
71,46,1,127,NaN,NaN,1,NaN,2.328614e+00,NaN,2,0,3,1
71,47,1,55,NaN,NaN,1,NaN,1.191446e+00,NaN,0,0,2,1
71,48,1,48,NaN,NaN,1,NaN,4.883420e-01,NaN,0,1,1,1
71,49,1,108,NaN,NaN,1,NaN,5.663009e-01,NaN,2,0,3,1
71,50,1,72,NaN,NaN,2,NaN,5.380852e-01,NaN,2,0,2,1
71,51,1,119,NaN,NaN,1,NaN,6.942073e-01,NaN,2,0,3,1
71,52,1,115,NaN,NaN,1,NaN,3.290480e+00,NaN,0,0,3,1
71,53,1,102,NaN,NaN,1,NaN,1.647700e+00,NaN,2,0,3,1
71,54,1,125,NaN,NaN,1,NaN,9.004534e-01,NaN,1,0,3,1
71,55,1,120,NaN,NaN,1,NaN,2.880542e-01,NaN,2,1,3,1
71,56,1,87,NaN,NaN,1,NaN,1.879825e+00,NaN,0,1,2,1
71,57,1,5,NaN,NaN,1,NaN,6.006174e-01,NaN,2,0,1,1
71,58,1,139,NaN,NaN,1,NaN,6.922232e-01,NaN,0,0,3,1
71,59,1,24,NaN,NaN,1,NaN,5.504592e-01,NaN,1,1,1,1
71,60,1,56,NaN,NaN,1,NaN,1.532589e+00,NaN,0,0,2,1
71,61,1,98,NaN,NaN,1,NaN,5.887972e-01,NaN,0,0,3,1
71,62,1,65,NaN,NaN,1,NaN,1.948825e-01,NaN,0,0,2,1
71,63,1,139,NaN,NaN,1,NaN,3.524834e-01,NaN,2,0,3,1
71,64,1,63,NaN,NaN,1,NaN,3.348778e+00,NaN,0,0,2,1
71,65,1,16,NaN,NaN,1,NaN,1.091615e-01,NaN,1,0,1,1
71,66,1,97,NaN,NaN,1,NaN,3.622298e-01,NaN,1,0,3,1
71,67,1,97,NaN,NaN,1,NaN,6.337090e-01,NaN,0,0,3,1
71,68,1,76,NaN,NaN,1,NaN,3.434518e-01,NaN,0,0,2,1
71,69,1,14,NaN,NaN,1,NaN,1.147325e+00,NaN,0,0,1,1
71,70,1,5,NaN,NaN,1,NaN,8.444809e-01,NaN,0,0,1,1
71,71,1,27,NaN,NaN,1,NaN,1.811857e+00,NaN,0,1,1,1
71,72,1,24,NaN,NaN,1,NaN,1.810179e-01,NaN,0,1,1,1
71,73,1,34,NaN,NaN,1,NaN,6.567131e+00,NaN,1,0,1,1
71,74,1,81,NaN,NaN,1,NaN,1.514072e-01,NaN,0,0,2,1
71,75,1,45,NaN,NaN,1,NaN,2.872150e-01,NaN,0,0,1,1
71,76,1,129,NaN,NaN,1,NaN,1.339617e+00,NaN,2,0,3,1
71,77,1,11,NaN,NaN,1,NaN,1.300255e-01,NaN,0,0,1,1
71,78,1,102,NaN,NaN,1,NaN,8.862233e-01,NaN,0,0,3,1
71,79,1,39,NaN,NaN,1,NaN,3.602814e-01,NaN,1,1,1,1
71,80,1,86,NaN,NaN,1,NaN,9.847983e-02,NaN,0,0,2,1
71,81,1,91,NaN,NaN,1,NaN,1.968947e+00,NaN,0,0,2,1
71,82,1,123,NaN,NaN,1,NaN,1.757905e+00,NaN,1,1,3,1
71,83,1,41,NaN,NaN,1,NaN,1.633597e-01,NaN,0,0,1,1
71,84,1,121,NaN,NaN,1,NaN,4.459974e+00,NaN,0,0,3,1
71,85,1,143,NaN,NaN,1,NaN,9.894136e-01,NaN,2,1,3,1
71,86,1,69,NaN,NaN,1,NaN,2.405606e+00,NaN,0,0,2,1
71,87,1,66,NaN,NaN,1,NaN,4.383406e-01,NaN,1,0,2,1
71,88,1,73,NaN,NaN,1,NaN,1.290363e+00,NaN,2,0,2,1
71,89,1,78,NaN,NaN,1,NaN,2.779095e-01,NaN,0,0,2,1
71,90,1,68,NaN,NaN,1,NaN,8.304569e-01,NaN,0,0,2,1
71,91,1,25,NaN,NaN,1,NaN,3.292538e+00,NaN,2,0,1,1
71,92,1,42,NaN,NaN,1,NaN,1.190286e+00,NaN,2,1,1,1
71,93,1,35,NaN,NaN,1,NaN,5.568508e-01,NaN,2,0,1,1
71,94,1,90,NaN,NaN,1,NaN,1.184765e-01,NaN,1,0,2,1
71,95,1,68,NaN,NaN,1,NaN,6.963593e-01,NaN,1,0,2,1
71,96,1,65,NaN,NaN,1,NaN,1.111591e+00,NaN,2,0,2,1
71,97,1,64,NaN,NaN,1,NaN,1.484498e+00,NaN,0,0,2,1
71,98,1,19,NaN,NaN,1,NaN,1.947190e-01,NaN,0,0,1,1
71,99,1,74,NaN,NaN,1,NaN,3.709597e-01,NaN,0,0,2,1
71,100,1,50,NaN,NaN,1,NaN,3.319835e+00,NaN,0,1,2,1
71,101,1,53,NaN,NaN,1,NaN,2.029618e+00,NaN,1,0,2,1
71,102,1,110,NaN,NaN,1,NaN,2.623464e-01,NaN,1,0,3,1
71,103,1,69,NaN,NaN,1,NaN,5.517896e-01,NaN,2,0,2,1
71,104,1,93,NaN,NaN,1,NaN,6.007109e-01,NaN,0,1,2,1
71,105,1,15,NaN,NaN,1,NaN,2.651084e-01,NaN,2,0,1,1
71,106,1,87,NaN,NaN,1,NaN,1.925817e-01,NaN,2,1,2,1
71,107,1,116,NaN,NaN,1,NaN,4.464045e-01,NaN,0,0,3,1
71,108,1,120,NaN,NaN,1,NaN,2.924205e+00,NaN,0,1,3,1
71,109,1,84,NaN,NaN,1,NaN,1.778648e+00,NaN,0,0,2,1
71,110,1,50,NaN,NaN,1,NaN,2.269012e-01,NaN,2,1,2,1
71,111,1,126,NaN,NaN,1,NaN,8.721016e-01,NaN,2,0,3,1
71,112,1,96,NaN,NaN,2,NaN,4.369017e-01,NaN,0,0,2,1
71,113,1,13,NaN,NaN,1,NaN,1.662851e+00,NaN,0,0,1,1
71,114,1,111,NaN,NaN,1,NaN,1.055320e+00,NaN,0,1,3,1
71,115,1,31,NaN,NaN,1,NaN,3.815770e+00,NaN,1,0,1,1
71,116,1,137,NaN,NaN,1,NaN,3.109527e+00,NaN,2,0,3,1
71,117,1,116,NaN,NaN,1,NaN,3.773516e+00,NaN,2,0,3,1
71,118,1,62,NaN,NaN,1,NaN,6.392051e-01,NaN,0,0,2,1
71,119,1,16,NaN,NaN,1,NaN,9.263768e-01,NaN,0,0,1,1
71,120,1,144,NaN,NaN,1,NaN,6.393685e-01,NaN,0,0,3,1
71,121,1,144,NaN,NaN,1,NaN,1.192849e+00,NaN,1,0,3,1
71,122,1,103,NaN,NaN,1,NaN,4.069209e-01,NaN,0,0,3,1
71,123,1,10,NaN,NaN,1,NaN,4.161327e-01,NaN,0,0,1,1
71,124,1,3,NaN,NaN,1,NaN,5.472158e-01,NaN,2,0,1,1
71,125,1,42,NaN,NaN,2,NaN,6.159531e-01,NaN,0,1,1,1
71,126,1,39,NaN,NaN,2,NaN,2.665424e+00,NaN,0,1,1,1
71,127,1,76,NaN,NaN,1,NaN,2.064892e-01,NaN,2,0,2,1
71,128,1,63,NaN,NaN,2,NaN,1.045870e+00,NaN,1,0,2,1
71,129,1,43,NaN,NaN,1,NaN,1.393877e+00,NaN,0,0,1,1
71,130,1,67,NaN,NaN,1,NaN,9.033864e-01,NaN,0,0,2,1
71,131,1,77,NaN,NaN,1,NaN,1.540956e-01,NaN,0,1,2,1
71,132,1,46,NaN,NaN,1,NaN,1.137342e+00,NaN,0,0,1,1
71,133,1,83,NaN,NaN,1,NaN,7.521362e-01,NaN,1,1,2,1
71,134,1,113,NaN,NaN,1,NaN,1.568290e+00,NaN,0,0,3,1
71,135,1,37,NaN,NaN,1,NaN,5.335497e-01,NaN,1,0,1,1
71,136,1,33,NaN,NaN,1,NaN,3.398060e-01,NaN,2,1,1,1
71,137,1,88,NaN,NaN,1,NaN,4.445180e-01,NaN,0,1,2,1
71,138,1,29,NaN,NaN,1,NaN,3.483620e-01,NaN,2,1,1,1
71,139,1,60,NaN,NaN,1,NaN,1.816261e+00,NaN,0,0,2,1
71,140,1,89,NaN,NaN,1,NaN,1.194393e+00,NaN,2,0,2,1
71,141,1,130,NaN,NaN,1,NaN,2.052557e+00,NaN,2,0,3,1
71,142,1,93,NaN,NaN,1,NaN,7.221582e-01,NaN,2,1,2,1
71,143,1,133,NaN,NaN,1,NaN,4.203142e-01,NaN,2,0,3,1
71,144,1,83,NaN,NaN,2,NaN,7.321953e-01,NaN,0,1,2,1
71,145,1,49,NaN,NaN,1,NaN,3.932652e-01,NaN,0,1,2,1
71,146,1,124,NaN,NaN,1,NaN,8.967149e-01,NaN,1,1,3,1
71,147,1,131,NaN,NaN,1,NaN,1.421107e+00,NaN,0,0,3,1
71,148,1,1,NaN,NaN,1,NaN,2.838702e-01,NaN,0,1,1,1
71,149,1,117,NaN,NaN,1,NaN,1.301644e+00,NaN,0,0,3,1
71,150,1,20,NaN,NaN,1,NaN,9.780063e-01,NaN,1,1,1,1
71,151,1,80,NaN,NaN,1,NaN,1.452206e+00,NaN,0,0,2,1
71,152,1,20,NaN,NaN,1,NaN,1.550967e-01,NaN,0,1,1,1
71,153,1,96,NaN,NaN,1,NaN,3.608985e-01,NaN,2,0,2,1
71,154,1,41,NaN,NaN,1,NaN,5.159288e-01,NaN,1,0,1,1
71,155,1,40,NaN,NaN,1,NaN,2.225534e+00,NaN,0,0,1,1
71,156,1,48,NaN,NaN,1,NaN,5.570034e-01,NaN,1,1,1,1
71,157,1,36,NaN,NaN,1,NaN,9.016145e-01,NaN,2,0,1,1
71,158,1,105,NaN,NaN,2,NaN,4.324217e-01,NaN,0,1,3,1
71,159,1,91,NaN,NaN,1,NaN,8.669589e-01,NaN,1,0,2,1
71,160,1,2,NaN,NaN,2,NaN,4.968809e-01,NaN,2,1,1,1
71,161,1,32,NaN,NaN,1,NaN,6.178037e-01,NaN,0,0,1,1
71,162,1,10,NaN,NaN,1,NaN,1.859400e+00,NaN,2,0,1,1
71,163,1,108,NaN,NaN,1,NaN,5.588879e-01,NaN,0,0,3,1
71,164,1,123,NaN,NaN,1,NaN,1.260414e+00,NaN,0,1,3,1
71,165,1,89,NaN,NaN,1,NaN,1.149781e+00,NaN,0,0,2,1
71,166,1,77,NaN,NaN,1,NaN,5.456306e-01,NaN,1,1,2,1
71,167,1,14,NaN,NaN,1,NaN,1.917050e+00,NaN,2,0,1,1
71,168,1,135,NaN,NaN,1,NaN,1.433683e+00,NaN,2,1,3,1
71,169,1,101,NaN,NaN,1,NaN,1.277630e+00,NaN,0,0,3,1
71,170,1,143,NaN,NaN,1,NaN,4.709458e+00,NaN,0,1,3,1
71,171,1,8,NaN,NaN,1,NaN,2.375884e+00,NaN,1,0,1,1
71,172,1,115,NaN,NaN,1,NaN,3.244362e-01,NaN,2,0,3,1
71,173,1,105,NaN,NaN,1,NaN,6.248162e-01,NaN,1,1,3,1
71,174,1,21,NaN,NaN,1,NaN,7.222228e-01,NaN,0,0,1,1
71,175,1,58,NaN,NaN,1,NaN,4.439901e+00,NaN,0,1,2,1
71,176,1,75,NaN,NaN,1,NaN,1.229384e+00,NaN,1,0,2,1
71,177,1,52,NaN,NaN,1,NaN,8.900653e-01,NaN,0,1,2,1
71,178,1,82,NaN,NaN,1,NaN,1.851377e+00,NaN,0,1,2,1
71,179,1,84,NaN,NaN,1,NaN,6.086262e-01,NaN,2,0,2,1
71,180,1,31,NaN,NaN,1,NaN,1.995392e+00,NaN,0,0,1,1
71,181,1,125,NaN,NaN,1,NaN,1.048194e+00,NaN,0,0,3,1
71,182,1,44,NaN,NaN,1,NaN,4.014081e-01,NaN,1,0,1,1
71,183,1,85,NaN,NaN,1,NaN,1.681475e+00,NaN,0,0,2,1
71,184,1,12,NaN,NaN,2,NaN,8.746962e-01,NaN,2,1,1,1
71,185,1,6,NaN,NaN,1,NaN,6.426960e-01,NaN,1,0,1,1
71,186,1,9,NaN,NaN,1,NaN,7.336116e-01,NaN,1,0,1,1
71,187,1,135,NaN,NaN,1,NaN,8.726026e-02,NaN,0,1,3,1
71,188,1,81,NaN,NaN,1,NaN,1.612025e+00,NaN,2,0,2,1
71,189,1,138,NaN,NaN,1,NaN,1.220409e+00,NaN,0,0,3,1
71,190,1,100,NaN,NaN,1,NaN,8.714959e-01,NaN,0,1,3,1
71,191,1,47,NaN,NaN,1,NaN,1.581591e+00,NaN,2,0,1,1
71,192,1,107,NaN,NaN,1,NaN,7.475975e-01,NaN,1,0,3,1
71,193,1,124,NaN,NaN,1,NaN,4.612872e-01,NaN,0,1,3,1
71,194,1,128,NaN,NaN,1,NaN,1.704991e-01,NaN,0,0,3,1
71,195,1,86,NaN,NaN,1,NaN,3.063501e-01,NaN,2,0,2,1
71,196,1,21,NaN,NaN,1,NaN,1.077898e+00,NaN,1,0,1,1
71,197,1,61,NaN,NaN,1,NaN,1.764961e+00,NaN,1,0,2,1
71,198,1,13,NaN,NaN,1,NaN,8.432948e-01,NaN,2,0,1,1
71,199,1,98,NaN,NaN,1,NaN,6.010340e-01,NaN,2,0,3,1
71,200,1,119,NaN,NaN,1,NaN,2.982269e-01,NaN,0,0,3,1
71,201,1,29,NaN,NaN,1,NaN,1.607103e+00,NaN,0,1,1,1
71,202,1,128,NaN,NaN,1,NaN,1.381223e+00,NaN,2,0,3,1
71,203,1,15,NaN,NaN,2,NaN,9.408892e-01,NaN,0,0,1,1
71,204,1,136,NaN,NaN,1,NaN,2.919543e+00,NaN,0,0,3,1
71,205,1,43,NaN,NaN,1,NaN,3.899702e-01,NaN,1,0,1,1
71,206,1,111,NaN,NaN,1,NaN,1.352790e+00,NaN,1,1,3,1
71,207,1,58,NaN,NaN,1,NaN,3.091959e-01,NaN,2,1,2,1
71,208,1,103,NaN,NaN,1,NaN,8.058887e-01,NaN,1,0,3,1
71,209,1,92,NaN,NaN,1,NaN,9.501859e-01,NaN,2,0,2,1
71,210,1,23,NaN,NaN,2,NaN,1.466689e+00,NaN,1,0,1,1
71,211,1,4,NaN,NaN,1,NaN,3.289504e-01,NaN,0,0,1,1
71,212,1,37,NaN,NaN,1,NaN,5.836536e-01,NaN,0,0,1,1
71,213,1,106,NaN,NaN,1,NaN,2.881530e-01,NaN,2,0,3,1
71,214,1,112,NaN,NaN,1,NaN,1.041401e+00,NaN,0,0,3,1
71,215,1,22,NaN,NaN,1,NaN,1.033462e+00,NaN,1,0,1,1
71,216,1,140,NaN,NaN,1,NaN,5.329051e-01,NaN,1,0,3,1
71,217,1,9,NaN,NaN,1,NaN,1.030769e+00,NaN,0,0,1,1
71,218,1,90,NaN,NaN,1,NaN,1.298258e+00,NaN,0,0,2,1
71,219,1,51,NaN,NaN,1,NaN,4.163613e+00,NaN,1,0,2,1
71,220,1,114,NaN,NaN,1,NaN,1.264817e+00,NaN,0,0,3,1
71,221,1,71,NaN,NaN,1,NaN,3.221136e+00,NaN,0,1,2,1
71,222,1,1,NaN,NaN,1,NaN,1.033188e+00,NaN,1,1,1,1
71,223,1,57,NaN,NaN,1,NaN,1.052200e+00,NaN,2,0,2,1
71,224,1,66,NaN,NaN,1,NaN,1.148303e+00,NaN,0,0,2,1
71,225,1,44,NaN,NaN,1,NaN,3.907434e-01,NaN,0,0,1,1
71,226,1,35,NaN,NaN,1,NaN,2.626378e-01,NaN,0,0,1,1
71,227,1,101,NaN,NaN,1,NaN,7.534029e+00,NaN,1,0,3,1
71,228,1,45,NaN,NaN,1,NaN,1.517209e+00,NaN,1,0,1,1
71,229,1,17,NaN,NaN,1,NaN,5.226088e-01,NaN,1,0,1,1
71,230,1,26,NaN,NaN,1,NaN,1.991461e+00,NaN,0,1,1,1
71,231,1,99,NaN,NaN,1,NaN,7.586840e-01,NaN,0,0,3,1
71,232,1,131,NaN,NaN,1,NaN,3.006502e-01,NaN,1,0,3,1
71,233,1,138,NaN,NaN,1,NaN,1.361361e+00,NaN,1,0,3,1
71,234,1,30,NaN,NaN,1,NaN,7.253158e-01,NaN,0,0,1,1
71,235,1,3,NaN,NaN,1,NaN,8.231663e-01,NaN,0,0,1,1
71,236,1,67,NaN,NaN,1,NaN,1.690341e-01,NaN,1,0,2,1
71,237,1,40,NaN,NaN,1,NaN,3.071023e-01,NaN,2,0,1,1
71,238,1,19,NaN,NaN,1,NaN,2.019370e+00,NaN,2,0,1,1
71,239,1,71,NaN,NaN,1,NaN,5.145357e-01,NaN,1,1,2,1
71,240,1,142,NaN,NaN,1,NaN,4.826113e-01,NaN,1,0,3,1
71,241,1,137,NaN,NaN,1,NaN,6.625653e-01,NaN,0,0,3,1
71,242,1,130,NaN,NaN,1,NaN,2.505874e+00,NaN,0,0,3,1
71,243,1,56,NaN,NaN,2,NaN,3.049509e-01,NaN,2,0,2,1
71,244,1,27,NaN,NaN,1,NaN,3.138288e+00,NaN,2,1,1,1
71,245,1,127,NaN,NaN,1,NaN,2.221911e-01,NaN,0,0,3,1
71,246,1,2,NaN,NaN,1,NaN,2.209068e-01,NaN,0,1,1,1
71,247,1,109,NaN,NaN,2,NaN,1.757101e+00,NaN,1,0,3,1
71,248,1,113,NaN,NaN,1,NaN,9.084808e-01,NaN,1,0,3,1
71,249,1,118,NaN,NaN,1,NaN,6.225068e-01,NaN,0,0,3,1
71,250,1,82,NaN,NaN,1,NaN,1.227590e+00,NaN,1,1,2,1
71,251,1,57,NaN,NaN,1,NaN,2.007351e-01,NaN,0,0,2,1
71,252,1,22,NaN,NaN,1,NaN,1.127484e+00,NaN,0,0,1,1
71,253,1,104,NaN,NaN,1,NaN,1.821167e+00,NaN,2,0,3,1
71,254,1,80,NaN,NaN,1,NaN,5.842626e-01,NaN,2,0,2,1
71,255,1,121,NaN,NaN,1,NaN,1.184295e+00,NaN,2,0,3,1
71,256,1,6,NaN,NaN,1,NaN,1.634627e-01,NaN,0,0,1,1
71,257,1,54,NaN,NaN,1,NaN,4.081393e-01,NaN,1,1,2,1
71,258,1,47,NaN,NaN,1,NaN,3.225739e-01,NaN,0,0,1,1
71,259,1,141,NaN,NaN,1,NaN,8.571507e-01,NaN,2,0,3,1
71,260,1,17,NaN,NaN,1,NaN,8.263966e-01,NaN,0,0,1,1
71,261,1,134,NaN,NaN,1,NaN,3.129354e-01,NaN,0,1,3,1
71,262,1,12,NaN,NaN,1,NaN,6.473723e-01,NaN,0,1,1,1
71,263,1,61,NaN,NaN,1,NaN,2.171402e+00,NaN,0,0,2,1
71,264,1,79,NaN,NaN,1,NaN,6.154872e-01,NaN,0,1,2,1
71,265,1,109,NaN,NaN,1,NaN,9.778306e-01,NaN,0,0,3,1
71,266,1,136,NaN,NaN,1,NaN,9.660191e-01,NaN,1,0,3,1
71,267,1,53,NaN,NaN,1,NaN,2.315631e-01,NaN,0,0,2,1
71,268,1,38,NaN,NaN,1,NaN,1.343693e-01,NaN,2,1,1,1
71,269,1,51,NaN,NaN,1,NaN,6.214837e-01,NaN,0,0,2,1
71,270,1,100,NaN,NaN,1,NaN,1.102453e+00,NaN,1,1,3,1
71,271,1,72,NaN,NaN,2,NaN,3.874761e+00,NaN,0,0,2,1
71,272,1,92,NaN,NaN,1,NaN,1.194757e+00,NaN,0,0,2,1
71,273,1,129,NaN,NaN,1,NaN,3.818190e-01,NaN,0,0,3,1
71,274,1,85,NaN,NaN,1,NaN,2.284362e-01,NaN,1,0,2,1
71,275,1,122,NaN,NaN,1,NaN,1.385149e-01,NaN,1,0,3,1
71,276,1,134,NaN,NaN,1,NaN,4.381519e+00,NaN,1,1,3,1
71,277,1,110,NaN,NaN,1,NaN,8.906313e-01,NaN,0,0,3,1
71,278,1,32,NaN,NaN,1,NaN,2.952705e+00,NaN,2,0,1,1
71,279,1,78,NaN,NaN,1,NaN,5.563168e+00,NaN,2,0,2,1
71,280,1,36,NaN,NaN,1,NaN,3.782697e-01,NaN,0,0,1,1
71,281,1,18,NaN,NaN,1,NaN,5.005380e-01,NaN,2,0,1,1
71,282,1,30,NaN,NaN,1,NaN,7.024145e-01,NaN,2,0,1,1
71,283,1,18,NaN,NaN,1,NaN,3.995667e-01,NaN,0,0,1,1
71,284,1,8,NaN,NaN,1,NaN,6.772563e-01,NaN,0,0,1,1
71,285,1,75,NaN,NaN,1,NaN,2.286654e-01,NaN,0,0,2,1
71,286,1,46,NaN,NaN,1,NaN,9.762943e-01,NaN,1,0,1,1
71,287,1,112,NaN,NaN,1,NaN,9.802857e-01,NaN,1,0,3,1
71,288,1,126,NaN,NaN,1,NaN,1.382067e+00,NaN,0,0,3,1
71,329,2,124,34,1,1,1,5.736630e-01,NaN,1,1,3,1
71,330,2,9,2,1,1,1,2.427455e-01,NaN,1,0,1,1
71,331,2,17,48,2,2,1,1.258692e+00,NaN,1,0,1,1
71,332,2,75,39,1,1,1,2.038728e-01,NaN,1,0,2,1
71,333,2,48,5,1,1,1,4.550178e-01,NaN,1,1,1,1
71,334,2,1,30,2,2,1,6.521829e-01,NaN,1,1,1,1
71,335,2,51,19,1,2,0,2.509819e-01,NaN,1,0,2,1
71,336,2,64,67,1,1,1,1.215149e+00,NaN,1,0,2,1
71,337,2,31,54,1,1,1,1.088385e+00,NaN,1,0,1,1
71,338,2,109,13,1,1,1,7.469729e-01,NaN,1,0,3,1
71,339,2,91,17,1,1,1,1.303344e+00,NaN,1,0,2,1
71,340,2,112,16,2,2,1,4.588704e-01,NaN,1,0,3,1
71,341,2,71,1,2,2,1,8.137533e-01,NaN,1,1,2,1
71,342,2,45,4,1,1,1,2.767847e+00,NaN,1,0,1,1
71,343,2,82,12,1,1,1,4.588750e-01,NaN,1,1,2,1
71,344,2,90,26,2,2,1,3.487219e-01,NaN,1,0,2,1
71,345,2,77,65,1,1,1,6.722229e-01,NaN,1,1,2,1
71,346,2,67,66,2,1,0,6.069844e-01,NaN,1,0,2,1
71,347,2,111,60,2,2,1,3.858162e+00,NaN,1,1,3,1
71,348,2,41,63,2,1,0,1.253152e+00,NaN,1,0,1,1
71,349,2,140,44,1,1,1,1.594796e+00,NaN,1,0,3,1
71,350,2,138,62,2,2,1,9.384820e-01,NaN,1,0,3,1
71,351,2,60,15,2,2,1,1.722884e+00,NaN,1,0,2,1
71,352,2,97,45,1,1,1,3.894509e-01,NaN,1,0,3,1
71,353,3,48,5,2,1,0,2.780505e-01,NaN,1,1,1,1
71,354,3,41,63,1,1,1,1.062740e+00,NaN,1,0,1,1
71,355,3,75,39,2,2,1,4.554299e-01,NaN,1,0,2,1
71,356,3,31,54,1,1,1,1.308759e+00,NaN,1,0,1,1
71,357,3,45,4,2,2,1,3.600617e-01,NaN,1,0,1,1
71,358,3,1,30,2,2,1,9.897383e-01,NaN,1,1,1,1
71,359,3,112,16,1,2,0,2.413030e-01,NaN,1,0,3,1
71,360,3,9,2,1,1,1,1.602882e+00,NaN,1,0,1,1
71,361,3,109,13,1,1,1,5.563208e-01,NaN,1,0,3,1
71,362,3,51,19,2,2,1,1.067838e+00,NaN,1,0,2,1
71,363,3,111,60,1,1,1,6.667758e-01,NaN,1,1,3,1
71,364,3,82,12,1,2,0,3.029061e+00,NaN,1,1,2,1
71,365,3,140,44,2,2,1,8.314350e-01,NaN,1,0,3,1
71,366,3,138,62,2,2,1,5.736121e-01,NaN,1,0,3,1
71,367,3,90,26,2,2,1,2.635909e+00,NaN,1,0,2,1
71,368,3,97,45,2,2,1,1.426366e+00,NaN,1,0,3,1
71,369,3,67,66,2,2,1,8.720557e-01,NaN,1,0,2,1
71,370,3,77,65,2,2,1,5.838933e-01,NaN,1,1,2,1
71,371,3,60,15,2,1,0,2.221638e+00,NaN,1,0,2,1
71,372,3,17,48,1,2,0,9.721201e-01,NaN,1,0,1,1
71,373,3,71,1,1,1,1,5.843304e-01,NaN,1,1,2,1
71,374,3,64,67,1,1,1,5.748883e+00,NaN,1,0,2,1
71,375,3,91,17,2,2,1,3.783658e-01,NaN,1,0,2,1
71,376,3,124,34,2,2,1,8.484095e-01,NaN,1,1,3,1
71,401,2,68,50,1,1,1,4.547103e-01,NaN,1,0,2,2
71,402,2,34,35,1,1,1,8.438686e-01,NaN,1,0,1,2
71,403,2,28,38,1,1,1,5.525305e-01,NaN,1,0,1,2
71,404,2,131,7,1,1,1,3.491990e-01,NaN,1,0,3,2
71,405,2,114,71,1,2,0,2.865834e+00,NaN,1,0,3,2
71,406,2,43,70,1,1,1,4.186832e-01,NaN,1,0,1,2
71,407,2,103,9,2,2,1,8.974896e-01,NaN,1,0,3,2
71,408,2,113,41,2,2,1,3.182746e+00,NaN,1,0,3,2
71,409,2,49,10,1,1,1,2.529450e-01,NaN,1,1,2,2
71,410,2,24,28,1,1,1,4.459449e-01,NaN,1,1,1,2
71,411,2,8,22,2,2,1,3.411653e-01,NaN,1,0,1,2
71,412,2,44,33,2,1,0,1.142953e+00,NaN,1,0,1,2
71,413,2,142,6,2,1,0,1.231051e+00,NaN,1,0,3,2
71,414,2,144,14,1,1,1,9.677881e-01,NaN,1,0,3,2
71,415,2,55,21,1,1,1,3.581523e+00,NaN,1,0,2,2
71,416,2,53,40,1,2,0,1.751984e+00,NaN,1,0,2,2
71,417,2,110,42,2,2,1,3.354109e-01,NaN,1,0,3,2
71,418,2,136,58,1,1,1,4.754791e-01,NaN,1,0,3,2
71,419,2,54,55,2,2,1,8.063193e-01,NaN,1,1,2,2
71,420,2,4,27,1,1,1,1.397327e+00,NaN,1,0,1,2
71,421,2,101,29,1,1,1,8.777977e-01,NaN,1,0,3,2
71,422,2,16,25,2,2,1,1.912598e+00,NaN,1,0,1,2
71,423,2,105,69,1,1,1,1.161255e+00,NaN,1,1,3,2
71,424,2,118,52,2,2,1,6.339323e-01,NaN,1,0,3,2
71,425,3,110,42,2,2,1,5.063770e-01,NaN,1,0,3,2
71,426,3,24,28,2,2,1,4.214523e-01,NaN,1,1,1,2
71,427,3,131,7,1,1,1,1.216729e+00,NaN,1,0,3,2
71,428,3,55,21,2,2,1,3.394765e-01,NaN,1,0,2,2
71,429,3,34,35,1,1,1,3.235512e-01,NaN,1,0,1,2
71,430,3,8,22,2,2,1,5.752541e-01,NaN,1,0,1,2
71,431,3,118,52,1,1,1,4.562251e-01,NaN,1,0,3,2
71,432,3,53,40,1,1,1,3.167567e+00,NaN,1,0,2,2
71,433,3,43,70,1,2,0,1.637941e-01,NaN,1,0,1,2
71,434,3,101,29,1,1,1,1.584569e-01,NaN,1,0,3,2
71,435,3,144,14,2,1,0,3.353728e-01,NaN,1,0,3,2
71,436,3,28,38,2,2,1,4.388799e-01,NaN,1,0,1,2
71,437,3,16,25,2,2,1,3.418820e-01,NaN,1,0,1,2
71,438,3,49,10,1,1,1,1.521699e+00,NaN,1,1,2,2
71,439,3,113,41,2,2,1,2.454614e+00,NaN,1,0,3,2
71,440,3,114,71,2,2,1,4.927588e-01,NaN,1,0,3,2
71,441,3,4,27,2,2,1,1.211864e+00,NaN,1,0,1,2
71,442,3,142,6,2,2,1,1.738360e-01,NaN,1,0,3,2
71,443,3,68,50,1,1,1,9.218386e-01,NaN,1,0,2,2
71,444,3,136,58,2,2,1,1.016547e+00,NaN,1,0,3,2
71,445,3,105,69,1,1,1,3.965485e-01,NaN,1,1,3,2
71,446,3,44,33,2,1,0,4.773665e-01,NaN,1,0,1,2
71,447,3,54,55,1,1,1,2.719499e+00,NaN,1,1,2,2
71,448,3,103,9,2,1,0,1.392569e+00,NaN,1,0,3,2
71,473,2,62,43,2,2,1,1.922322e-01,NaN,1,0,2,3
71,474,2,39,32,1,1,1,2.806514e-01,NaN,1,1,1,3
71,475,2,74,64,2,2,1,1.889946e+00,NaN,1,0,2,3
71,476,2,85,46,1,1,1,5.889689e-01,NaN,1,0,2,3
71,477,2,88,20,2,2,1,1.112910e+00,NaN,1,1,2,3
71,478,2,122,3,2,2,1,1.171719e+00,NaN,1,0,3,3
71,479,2,20,11,2,2,1,5.481745e-01,NaN,1,1,1,3
71,480,2,63,72,1,2,0,2.841237e-01,NaN,1,0,2,3
71,481,2,23,31,2,2,1,1.110127e+00,NaN,1,0,1,3
71,482,2,37,56,1,1,1,5.063633e-01,NaN,1,0,1,3
71,483,2,46,47,1,1,1,7.778945e-01,NaN,1,0,1,3
71,484,2,22,49,2,2,1,7.830948e-01,NaN,1,0,1,3
71,485,2,66,68,2,2,1,3.074168e-01,NaN,1,0,2,3
71,486,2,61,36,1,1,1,1.210960e+00,NaN,1,0,2,3
71,487,2,83,53,1,2,0,4.510473e-01,NaN,1,1,2,3
71,488,2,125,61,2,2,1,6.132385e-01,NaN,1,0,3,3
71,489,2,123,24,1,1,1,5.206927e-01,NaN,1,1,3,3
71,490,2,107,59,1,1,1,1.330167e+00,NaN,1,0,3,3
71,491,2,7,23,1,1,1,1.277278e+00,NaN,1,0,1,3
71,492,2,21,57,1,2,0,4.173791e-01,NaN,1,0,1,3
71,493,2,95,18,1,1,1,3.201675e-01,NaN,1,0,2,3
71,494,2,6,8,1,1,1,2.861679e+00,NaN,1,0,1,3
71,495,2,100,51,2,2,1,2.537905e-01,NaN,1,1,3,3
71,496,2,134,37,2,2,1,2.456629e-01,NaN,1,1,3,3
71,497,3,66,68,2,2,1,2.695849e-01,NaN,1,0,2,3
71,498,3,62,43,1,2,0,3.577902e-01,NaN,1,0,2,3
71,499,3,74,64,2,2,1,1.656064e+00,NaN,1,0,2,3
71,500,3,122,3,2,2,1,9.531670e-01,NaN,1,0,3,3
71,501,3,134,37,1,1,1,1.079015e+00,NaN,1,1,3,3
71,502,3,63,72,1,1,1,9.488091e-01,NaN,1,0,2,3
71,503,3,107,59,2,2,1,1.150820e+00,NaN,1,0,3,3
71,504,3,7,23,2,1,0,5.702073e-01,NaN,1,0,1,3
71,505,3,37,56,2,2,1,1.506634e+00,NaN,1,0,1,3
71,506,3,88,20,1,1,1,5.198679e+00,NaN,1,1,2,3
71,507,3,23,31,2,2,1,9.201277e-01,NaN,1,0,1,3
71,508,3,6,8,1,2,0,6.759639e-01,NaN,1,0,1,3
71,509,3,85,46,2,2,1,4.475202e-01,NaN,1,0,2,3
71,510,3,21,57,1,1,1,6.680388e-01,NaN,1,0,1,3
71,511,3,83,53,1,1,1,2.799373e-01,NaN,1,1,2,3
71,512,3,123,24,2,2,1,1.687631e+00,NaN,1,1,3,3
71,513,3,95,18,1,1,1,1.065960e+00,NaN,1,0,2,3
71,514,3,100,51,2,1,0,2.934897e-01,NaN,1,1,3,3
71,515,3,22,49,2,2,1,4.017888e-01,NaN,1,0,1,3
71,516,3,46,47,2,1,0,1.756691e-01,NaN,1,0,1,3
71,517,3,125,61,2,2,1,2.483669e+00,NaN,1,0,3,3
71,518,3,20,11,1,1,1,8.414353e-01,NaN,1,1,1,3
71,519,3,61,36,1,1,1,1.934391e-01,NaN,1,0,2,3
71,520,3,39,32,1,2,0,1.226076e+00,NaN,1,1,1,3
71,545,4,52,11,2,2,1,2.491931e+00,NaN,2,1,2,1
71,546,4,42,1,2,2,1,3.334471e-01,NaN,2,1,1,1
71,547,4,58,28,1,1,1,6.914938e-01,NaN,2,1,2,1
71,548,4,79,34,1,2,0,4.157678e+00,NaN,2,1,2,1
71,549,4,78,16,1,1,1,3.253833e-01,NaN,2,0,2,1
71,550,4,94,24,2,2,1,3.052293e-01,NaN,2,1,2,1
71,551,4,32,26,1,1,1,4.345203e-01,NaN,2,0,1,1
71,552,4,30,17,2,2,1,7.876306e-01,NaN,2,0,1,1
71,553,4,33,10,2,2,1,1.672680e+00,NaN,2,1,1,1
71,554,4,139,63,2,2,1,5.187418e-01,NaN,2,0,3,1
71,555,4,10,29,1,1,1,4.935307e-01,NaN,2,0,1,1
71,556,4,92,44,1,1,1,1.397538e+00,NaN,2,0,2,1
71,557,4,87,51,1,1,1,1.933872e+00,NaN,2,1,2,1
71,558,4,133,56,1,1,1,7.584742e-01,NaN,2,0,3,1
71,559,4,12,69,1,2,0,3.761555e+00,NaN,2,1,1,1
71,560,4,102,43,2,2,1,1.814760e-01,NaN,2,0,3,1
71,561,4,129,8,1,1,1,5.271656e-01,NaN,2,0,3,1
71,562,4,18,58,2,2,1,1.753707e+00,NaN,2,0,1,1
71,563,4,65,35,2,1,0,1.726068e-01,NaN,2,0,2,1
71,564,4,38,12,2,2,1,6.579825e-01,NaN,2,1,1,1
71,565,4,25,9,2,2,1,6.779108e-01,NaN,2,0,1,1
71,566,4,89,71,1,2,0,1.694741e-01,NaN,2,0,2,1
71,567,4,119,18,2,2,1,2.315053e-01,NaN,2,0,3,1
71,568,4,73,27,1,1,1,1.524631e-01,NaN,2,0,2,1
71,593,4,36,46,2,2,1,7.809582e-01,NaN,2,0,1,2
71,594,4,81,41,2,2,1,1.716327e-01,NaN,2,0,2,2
71,595,4,127,4,2,2,1,8.765569e-01,NaN,2,0,3,2
71,596,4,143,5,1,1,1,7.151110e-01,NaN,2,1,3,2
71,597,4,121,39,2,1,0,3.436933e+00,NaN,2,0,3,2
71,598,4,84,61,1,1,1,8.826687e-01,NaN,2,0,2,2
71,599,4,3,59,1,1,1,4.737541e+00,NaN,2,0,1,2
71,600,4,29,20,1,1,1,3.366904e+00,NaN,2,1,1,2
71,601,4,98,66,1,1,1,7.211685e-01,NaN,2,0,3,2
71,602,4,50,32,2,2,1,4.467181e+00,NaN,2,1,2,2
71,603,4,117,72,2,2,1,3.775076e-01,NaN,2,0,3,2
71,604,4,70,2,2,2,1,9.722949e-01,NaN,2,0,2,2
71,605,4,11,45,2,2,1,3.197047e-01,NaN,2,0,1,2
71,606,4,80,3,1,1,1,2.810402e+00,NaN,2,0,2,2
71,607,4,26,55,2,2,1,1.564953e+00,NaN,2,1,1,2
71,608,4,35,36,2,1,0,1.857885e-01,NaN,2,0,1,2
71,609,4,19,14,1,2,0,1.027389e+00,NaN,2,0,1,2
71,610,4,2,37,2,2,1,2.869466e-01,NaN,2,1,1,2
71,611,4,120,53,1,2,0,3.316002e-01,NaN,2,1,3,2
71,612,4,40,15,1,1,1,2.590300e+00,NaN,2,0,1,2
71,613,4,5,62,2,2,1,8.441970e+00,NaN,2,0,1,2
71,614,4,13,6,1,2,0,1.147865e-01,NaN,2,0,1,2
71,615,4,104,67,2,2,1,2.556935e+00,NaN,2,0,3,2
71,616,4,47,19,2,2,1,5.484548e-01,NaN,2,0,1,2
71,641,4,99,21,1,1,1,3.162565e+00,NaN,2,0,3,3
71,642,4,135,30,1,1,1,2.293735e+00,NaN,2,1,3,3
71,643,4,106,50,2,2,1,1.811548e-01,NaN,2,0,3,3
71,644,4,96,13,2,2,1,6.811529e-01,NaN,2,0,2,3
71,645,4,27,65,2,2,1,7.461128e-01,NaN,2,1,1,3
71,646,4,108,68,1,2,0,2.036192e+00,NaN,2,0,3,3
71,647,4,76,70,2,2,1,3.825291e-01,NaN,2,0,2,3
71,648,4,141,23,2,2,1,2.331433e+00,NaN,2,0,3,3
71,649,4,72,57,1,1,1,6.365535e-01,NaN,2,0,2,3
71,650,4,15,52,2,2,1,5.703778e-01,NaN,2,0,1,3
71,651,4,59,49,1,1,1,1.997023e-01,NaN,2,0,2,3
71,652,4,116,40,1,2,0,6.954003e-01,NaN,2,0,3,3
71,653,4,137,33,2,2,1,2.416655e+00,NaN,2,0,3,3
71,654,4,130,54,1,1,1,2.157394e+00,NaN,2,0,3,3
71,655,4,86,7,1,1,1,1.959535e+00,NaN,2,0,2,3
71,656,4,126,25,1,1,1,1.945692e-01,NaN,2,0,3,3
71,657,4,14,42,1,1,1,2.161825e+00,NaN,2,0,1,3
71,658,4,93,60,1,1,1,3.583154e-01,NaN,2,1,2,3
71,659,4,115,64,1,1,1,1.452777e-01,NaN,2,0,3,3
71,660,4,69,48,2,2,1,8.019382e-01,NaN,2,0,2,3
71,661,4,132,47,1,1,1,2.002399e-01,NaN,2,0,3,3
71,662,4,57,38,1,1,1,6.564082e-01,NaN,2,0,2,3
71,663,4,128,22,1,1,1,1.339187e+00,NaN,2,0,3,3
71,664,4,56,31,1,1,1,1.580454e+00,NaN,2,0,2,3
71,665,5,4.376000e+01,70,1,1,1,3.370501e-01,1,1,0,1.200000e+00,1
71,666,5,4.732000e+01,47,1,2,0,6.229332e-01,1,1,0,1.300000e+00,1
71,667,5,2.356000e+01,31,1,1,1,1.845461e-01,1,1,0,1.200000e+00,1
71,668,5,8.536000e+01,46,2,2,1,1.176535e+00,1,1,0,2.100000e+00,1
71,669,5,6.798000e+01,66,2,2,1,1.143970e+00,1,1,0,2.300000e+00,1
71,670,5,8.410000e+00,23,1,1,1,1.479916e+00,1,1,0,1.300000e+00,1
71,671,5,4.732000e+01,47,1,1,1,4.584734e-01,2,1,0,1.300000e+00,1
71,672,5,1.228000e+02,3,3,3,1,1.666236e+00,1,1,0,3.200000e+00,1
71,673,5,4.239000e+01,63,1,3,0,5.137009e-01,1,1,0,1.300000e+00,1
71,674,5,9.711000e+01,45,3,3,1,1.241816e+00,1,1,0,3.100000e+00,1
71,675,5,1.101400e+02,42,3,3,1,3.850113e-01,1,1,0,3.100000e+00,1
71,676,5,7.515000e+01,64,2,2,1,9.027412e-01,1,1,0,2.300000e+00,1
71,677,5,4.239000e+01,63,1,1,1,1.083670e-01,2,1,0,1.300000e+00,1
71,678,5,2.172000e+01,57,1,1,1,1.724561e-01,1,1,0,1.200000e+00,1
71,679,5,1.138100e+02,41,3,2,0,1.615160e-01,1,1,0,3.200000e+00,1
71,680,5,6.906000e+01,50,2,2,1,7.616080e-01,1,1,0,2.300000e+00,1
71,681,5,9.711000e+01,45,3,3,1,1.332567e+00,2,1,0,3.100000e+00,1
71,682,5,6.135000e+01,36,2,2,1,2.306264e+00,1,1,0,2.100000e+00,1
71,683,5,9.032000e+01,26,2,2,1,2.183779e-01,1,1,0,2.100000e+00,1
71,684,5,6.417000e+01,72,2,4,0,3.105965e+00,1,1,0,2.300000e+00,1
71,685,5,6.906000e+01,50,2,1,0,4.077533e-01,2,1,0,2.300000e+00,1
71,686,5,4.732000e+01,47,1,1,1,1.341088e+00,3,1,0,1.300000e+00,1
71,687,5,9.280000e+00,22,1,1,1,2.748698e-01,1,1,0,1.300000e+00,1
71,688,5,1.318600e+02,7,3,4,0,1.261734e-01,1,1,0,3.200000e+00,1
71,689,5,6.906000e+01,50,2,2,1,3.471401e-01,3,1,0,2.300000e+00,1
71,690,5,2.172000e+01,57,1,4,0,4.136151e-01,2,1,0,1.200000e+00,1
71,691,5,6.504000e+01,67,2,2,1,4.816164e-01,1,1,0,2.300000e+00,1
71,692,5,2.259000e+01,49,1,1,1,3.050186e-01,1,1,0,1.200000e+00,1
71,693,5,3.833000e+01,56,1,1,1,4.504644e-01,1,1,0,1.300000e+00,1
71,694,5,9.130000e+01,17,2,4,0,3.464238e-01,1,1,0,2.100000e+00,1
71,695,5,2.172000e+01,57,1,1,1,2.106572e-01,3,1,0,1.200000e+00,1
71,696,5,4.730000e+00,27,1,1,1,3.746505e-01,1,1,0,1.200000e+00,1
71,697,5,6.040000e+01,15,2,2,1,1.960718e-01,1,1,0,2.100000e+00,1
71,698,5,1.409200e+02,44,3,3,1,1.939123e-01,1,1,0,3.200000e+00,1
71,699,5,9.619000e+01,18,2,1,0,4.119348e-01,1,1,0,2.300000e+00,1
71,700,5,1.181500e+02,52,3,1,0,4.399920e-01,1,1,0,3.100000e+00,1
71,701,5,6.708000e+01,68,2,2,1,1.355738e-01,1,1,0,2.300000e+00,1
71,702,5,5.599000e+01,21,2,2,1,1.694078e-01,1,1,0,2.300000e+00,1
71,703,5,2.857000e+01,38,1,1,1,4.115647e-01,1,1,0,1.200000e+00,1
71,704,5,1.409200e+02,44,3,2,0,6.496044e-01,2,1,0,3.200000e+00,1
71,705,5,4.376000e+01,70,1,1,1,2.799463e-01,2,1,0,1.200000e+00,1
71,706,5,2.259000e+01,49,1,1,1,5.107698e-01,2,1,0,1.200000e+00,1
71,707,5,6.708000e+01,68,2,2,1,1.478542e-01,2,1,0,2.300000e+00,1
71,708,5,1.138100e+02,41,3,3,1,1.191886e-01,2,1,0,3.200000e+00,1
71,709,5,1.148900e+02,71,3,3,1,7.057458e-01,1,1,0,3.200000e+00,1
71,710,5,3.230000e+01,54,1,1,1,1.009675e+00,1,1,0,1.300000e+00,1
71,711,5,7.621000e+01,39,2,3,0,4.929652e-01,1,1,0,2.300000e+00,1
71,712,5,6.417000e+01,72,2,2,1,8.408462e-01,2,1,0,2.300000e+00,1
71,713,5,6.504000e+01,67,2,4,0,3.394949e-01,2,1,0,2.300000e+00,1
71,714,5,6.708000e+01,68,2,2,1,2.245131e-01,3,1,0,2.300000e+00,1
71,715,5,6.302000e+01,43,2,1,0,8.821052e-01,1,1,0,2.300000e+00,1
71,716,5,7.515000e+01,64,2,3,0,1.464999e-01,2,1,0,2.300000e+00,1
71,717,5,6.040000e+01,15,2,2,1,2.434620e+00,2,1,0,2.100000e+00,1
71,718,5,4.627000e+01,4,1,1,1,8.020816e-01,1,1,0,1.300000e+00,1
71,719,5,1.258400e+02,61,3,3,1,6.455744e-02,1,1,0,3.200000e+00,1
71,720,5,1.726000e+01,25,1,1,1,2.491462e-01,1,1,0,1.300000e+00,1
71,721,5,2.857000e+01,38,1,1,1,5.491637e-01,2,1,0,1.200000e+00,1
71,722,5,9.032000e+01,26,2,3,0,8.095060e-02,2,1,0,2.100000e+00,1
71,723,5,1.318600e+02,7,3,3,1,2.440735e-01,2,1,0,3.200000e+00,1
71,724,5,4.627000e+01,4,1,1,1,4.467094e-01,2,1,0,1.300000e+00,1
71,725,5,7.621000e+01,39,2,2,1,3.132560e-01,2,1,0,2.300000e+00,1
71,726,5,3.833000e+01,56,1,4,0,1.160457e+00,2,1,0,1.300000e+00,1
71,727,5,2.356000e+01,31,1,1,1,2.372954e-01,2,1,0,1.200000e+00,1
71,728,5,1.011000e+02,29,3,3,1,5.091577e-01,1,1,0,3.100000e+00,1
71,729,5,8.536000e+01,46,2,2,1,8.387914e-02,2,1,0,2.100000e+00,1
71,730,5,1.099600e+02,13,3,3,1,1.983785e+00,1,1,0,3.200000e+00,1
71,731,5,4.239000e+01,63,1,1,1,4.000725e-01,3,1,0,1.300000e+00,1
71,732,5,7.290000e+00,8,1,1,1,5.766171e-01,1,1,0,1.300000e+00,1
71,733,5,1.127800e+02,16,3,1,0,4.190827e-01,1,1,0,3.200000e+00,1
71,734,5,9.280000e+00,22,1,1,1,1.671702e+00,2,1,0,1.300000e+00,1
71,735,5,1.070300e+02,59,3,1,0,2.746140e-01,1,1,0,3.100000e+00,1
71,736,5,1.726000e+01,25,1,3,0,6.435171e-01,2,1,0,1.300000e+00,1
71,737,5,1.138100e+02,41,3,3,1,7.513654e-01,3,1,0,3.200000e+00,1
71,738,5,2.356000e+01,31,1,2,0,4.018007e-01,3,1,0,1.200000e+00,1
71,739,5,1.011000e+02,29,3,3,1,3.084149e-01,2,1,0,3.100000e+00,1
71,740,5,1.032500e+02,9,3,3,1,2.709492e-01,1,1,0,3.100000e+00,1
71,741,5,1.421300e+02,6,3,3,1,1.416739e-01,1,1,0,3.100000e+00,1
71,742,5,8.410000e+00,23,1,1,1,5.712314e-01,2,1,0,1.300000e+00,1
71,743,5,9.619000e+01,18,2,2,1,1.175669e+00,2,1,0,2.300000e+00,1
71,744,5,5.599000e+01,21,2,2,1,9.074713e-01,2,1,0,2.300000e+00,1
71,745,5,9.700000e+00,2,1,1,1,2.399349e-01,1,1,0,1.200000e+00,1
71,746,5,3.230000e+01,54,1,1,1,6.775552e-02,2,1,0,1.300000e+00,1
71,747,5,9.619000e+01,18,2,2,1,1.386524e-01,3,1,0,2.300000e+00,1
71,748,5,7.515000e+01,64,2,2,1,1.858499e+00,3,1,0,2.300000e+00,1
71,749,5,1.070300e+02,59,3,3,1,1.184376e-01,2,1,0,3.100000e+00,1
71,750,5,9.130000e+01,17,2,2,1,4.181372e-01,2,1,0,2.100000e+00,1
71,751,5,5.416000e+01,40,2,3,0,7.829896e-01,1,1,0,2.300000e+00,1
71,752,5,1.258400e+02,61,3,4,0,4.789532e-01,2,1,0,3.200000e+00,1
71,753,5,1.361800e+02,58,3,2,0,2.410366e-01,1,1,0,3.100000e+00,1
71,754,5,1.011000e+02,29,3,3,1,1.620578e+00,3,1,0,3.100000e+00,1
71,755,5,9.032000e+01,26,2,1,0,5.681764e-01,3,1,0,2.100000e+00,1
71,756,5,1.127800e+02,16,3,3,1,6.099820e-01,2,1,0,3.200000e+00,1
71,757,5,7.290000e+00,8,1,1,1,5.407233e-01,2,1,0,1.300000e+00,1
71,758,5,1.769000e+01,48,1,1,1,1.130318e+00,1,1,0,1.200000e+00,1
71,759,5,6.302000e+01,43,2,2,1,2.368521e-01,2,1,0,2.300000e+00,1
71,760,5,4.376000e+01,70,1,3,0,1.761853e-01,3,1,0,1.200000e+00,1
71,761,5,9.700000e+00,2,1,1,1,5.015213e-01,2,1,0,1.200000e+00,1
71,762,5,1.409200e+02,44,3,3,1,3.022057e-01,3,1,0,3.200000e+00,1
71,763,5,1.361800e+02,58,3,3,1,2.079564e-01,2,1,0,3.100000e+00,1
71,764,5,3.230000e+01,54,1,1,1,3.687676e-01,3,1,0,1.300000e+00,1
71,765,5,6.302000e+01,43,2,2,1,1.817236e-01,3,1,0,2.300000e+00,1
71,766,5,4.730000e+00,27,1,1,1,4.493569e-01,2,1,0,1.200000e+00,1
71,767,5,2.259000e+01,49,1,1,1,2.369541e-01,3,1,0,1.200000e+00,1
71,768,5,3.465000e+01,35,1,1,1,4.469457e-01,1,1,0,1.200000e+00,1
71,769,5,6.798000e+01,66,2,2,1,5.741253e-01,2,1,0,2.300000e+00,1
71,770,5,6.798000e+01,66,2,2,1,2.248649e-01,3,1,0,2.300000e+00,1
71,771,5,4.730000e+00,27,1,1,1,6.206987e-01,3,1,0,1.200000e+00,1
71,772,5,1.101400e+02,42,3,3,1,2.041475e-01,2,1,0,3.100000e+00,1
71,773,5,1.032500e+02,9,3,3,1,6.584296e-01,2,1,0,3.100000e+00,1
71,774,5,1.318600e+02,7,3,2,0,3.447751e-01,3,1,0,3.200000e+00,1
71,775,5,6.417000e+01,72,2,2,1,2.153002e-01,3,1,0,2.300000e+00,1
71,776,5,1.380500e+02,62,3,3,1,1.344601e+00,1,1,0,3.100000e+00,1
71,777,5,1.769000e+01,48,1,1,1,5.859853e-01,2,1,0,1.200000e+00,1
71,778,5,2.172000e+01,57,1,1,1,2.159630e-01,4,1,0,1.200000e+00,1
71,779,5,1.318600e+02,7,3,3,1,1.016106e-01,4,1,0,3.200000e+00,1
71,780,5,3.833000e+01,56,1,2,0,9.104293e-01,3,1,0,1.300000e+00,1
71,781,5,1.127800e+02,16,3,3,1,5.728921e-01,3,1,0,3.200000e+00,1
71,782,5,7.290000e+00,8,1,1,1,3.081819e-01,3,1,0,1.300000e+00,1
71,783,5,1.127800e+02,16,3,2,0,1.890380e-01,4,1,0,3.200000e+00,1
71,784,5,4.732000e+01,47,1,1,1,1.793870e+00,4,1,0,1.300000e+00,1
71,785,5,1.138100e+02,41,3,1,0,8.373702e-01,4,1,0,3.200000e+00,1
71,786,5,6.302000e+01,43,2,2,1,5.667997e-01,4,1,0,2.300000e+00,1
71,787,5,4.730000e+00,27,1,1,1,1.321908e+00,4,1,0,1.200000e+00,1
71,788,5,1.099600e+02,13,3,2,0,2.276686e-01,2,1,0,3.200000e+00,1
71,789,5,6.708000e+01,68,2,2,1,8.676984e-01,4,1,0,2.300000e+00,1
71,790,5,1.258400e+02,61,3,3,1,1.171893e-01,3,1,0,3.200000e+00,1
71,791,5,2.356000e+01,31,1,1,1,1.364737e-01,4,1,0,1.200000e+00,1
71,792,5,7.290000e+00,8,1,1,1,2.353472e-01,4,1,0,1.300000e+00,1
71,793,5,5.599000e+01,21,2,3,0,5.181907e-01,3,1,0,2.300000e+00,1
71,794,5,1.421300e+02,6,3,3,1,6.194084e-01,2,1,0,3.100000e+00,1
71,795,5,2.857000e+01,38,1,1,1,5.893530e-01,3,1,0,1.200000e+00,1
71,796,5,8.410000e+00,23,1,1,1,1.578026e-01,3,1,0,1.300000e+00,1
71,797,5,3.833000e+01,56,1,3,0,5.718963e-01,4,1,0,1.300000e+00,1
71,798,5,2.259000e+01,49,1,2,0,2.157585e-01,4,1,0,1.200000e+00,1
71,799,5,1.148900e+02,71,3,2,0,1.506061e-01,2,1,0,3.200000e+00,1
71,800,5,9.032000e+01,26,2,2,1,5.848436e-01,4,1,0,2.100000e+00,1
71,801,5,5.147000e+01,19,2,2,1,1.659991e-01,1,1,0,2.100000e+00,1
71,802,5,1.258400e+02,61,3,3,1,3.496652e-01,4,1,0,3.200000e+00,1
71,803,5,6.040000e+01,15,2,2,1,7.171209e-01,3,1,0,2.100000e+00,1
71,804,5,1.409200e+02,44,3,3,1,1.772557e-01,4,1,0,3.200000e+00,1
71,805,5,1.380500e+02,62,3,3,1,1.683149e-01,2,1,0,3.100000e+00,1
71,806,5,8.536000e+01,46,2,1,0,1.131873e-01,3,1,0,2.100000e+00,1
71,807,5,1.099600e+02,13,3,3,1,1.227757e-01,3,1,0,3.200000e+00,1
71,808,5,8.536000e+01,46,2,2,1,1.886313e-01,4,1,0,2.100000e+00,1
71,809,5,6.906000e+01,50,2,2,1,7.359570e-01,4,1,0,2.300000e+00,1
71,810,5,1.070300e+02,59,3,3,1,2.174175e-01,3,1,0,3.100000e+00,1
71,811,5,1.441900e+02,14,3,3,1,2.449945e-01,1,1,0,3.100000e+00,1
71,812,5,9.130000e+01,17,2,2,1,4.184674e-01,3,1,0,2.100000e+00,1
71,813,5,1.101400e+02,42,3,3,1,5.816615e-01,3,1,0,3.100000e+00,1
71,814,5,5.147000e+01,19,2,1,0,4.744760e-01,2,1,0,2.100000e+00,1
71,815,5,1.769000e+01,48,1,1,1,2.069043e-01,3,1,0,1.200000e+00,1
71,816,5,7.621000e+01,39,2,1,0,1.323016e-01,3,1,0,2.300000e+00,1
71,817,5,1.101400e+02,42,3,4,0,2.288470e-01,4,1,0,3.100000e+00,1
71,818,5,2.857000e+01,38,1,1,1,4.757898e-01,4,1,0,1.200000e+00,1
71,819,5,1.726000e+01,25,1,1,1,3.195562e-01,3,1,0,1.300000e+00,1
71,820,5,1.148900e+02,71,3,3,1,1.102421e+00,3,1,0,3.200000e+00,1
71,821,5,9.711000e+01,45,3,1,0,4.162698e-01,3,1,0,3.100000e+00,1
71,822,5,1.441900e+02,14,3,2,0,1.827738e-01,2,1,0,3.100000e+00,1
71,823,5,4.627000e+01,4,1,1,1,5.001097e-01,3,1,0,1.300000e+00,1
71,824,5,5.147000e+01,19,2,2,1,1.971468e+00,3,1,0,2.100000e+00,1
71,825,5,8.410000e+00,23,1,1,1,5.107037e-01,4,1,0,1.300000e+00,1
71,826,5,4.376000e+01,70,1,1,1,4.008366e-01,4,1,0,1.200000e+00,1
71,827,5,1.769000e+01,48,1,4,0,2.326785e-01,4,1,0,1.200000e+00,1
71,828,5,5.416000e+01,40,2,3,0,6.197461e-01,2,1,0,2.300000e+00,1
71,829,5,7.621000e+01,39,2,2,1,1.898448e-01,4,1,0,2.300000e+00,1
71,830,5,4.537000e+01,33,1,1,1,7.129980e-01,1,1,0,1.300000e+00,1
71,831,5,1.421300e+02,6,3,3,1,8.351794e-01,3,1,0,3.100000e+00,1
71,832,5,5.416000e+01,40,2,3,0,3.961565e-01,3,1,0,2.300000e+00,1
71,833,5,6.040000e+01,15,2,2,1,9.505274e-01,4,1,0,2.100000e+00,1
71,834,5,6.417000e+01,72,2,3,0,6.603113e-01,4,1,0,2.300000e+00,1
71,835,5,1.148900e+02,71,3,3,1,3.092915e-01,4,1,0,3.200000e+00,1
71,836,5,9.700000e+00,2,1,1,1,2.474473e-01,3,1,0,1.200000e+00,1
71,837,5,5.416000e+01,40,2,4,0,1.496244e+00,4,1,0,2.300000e+00,1
71,838,5,1.441900e+02,14,3,3,1,3.108455e-01,3,1,0,3.100000e+00,1
71,839,5,9.711000e+01,45,3,3,1,1.105971e+00,4,1,0,3.100000e+00,1
71,840,5,1.441900e+02,14,3,2,0,1.799701e-01,4,1,0,3.100000e+00,1
71,841,5,5.599000e+01,21,2,2,1,1.514132e-01,4,1,0,2.300000e+00,1
71,842,5,6.135000e+01,36,2,2,1,1.589766e-01,2,1,0,2.100000e+00,1
71,843,5,1.070300e+02,59,3,4,0,3.544136e-01,4,1,0,3.100000e+00,1
71,844,5,1.099600e+02,13,3,3,1,2.094466e-01,4,1,0,3.200000e+00,1
71,845,5,6.504000e+01,67,2,2,1,2.755349e-01,3,1,0,2.300000e+00,1
71,846,5,1.032500e+02,9,3,3,1,9.727670e-01,3,1,0,3.100000e+00,1
71,847,5,4.537000e+01,33,1,1,1,3.624816e-01,2,1,0,1.300000e+00,1
71,848,5,9.280000e+00,22,1,1,1,1.222438e-01,3,1,0,1.300000e+00,1
71,849,5,1.380500e+02,62,3,3,1,1.972113e-01,3,1,0,3.100000e+00,1
71,850,5,5.147000e+01,19,2,4,0,3.629055e-01,4,1,0,2.100000e+00,1
71,851,5,4.537000e+01,33,1,4,0,1.652939e-01,3,1,0,1.300000e+00,1
71,852,5,6.135000e+01,36,2,2,1,1.376181e+00,3,1,0,2.100000e+00,1
71,853,5,9.130000e+01,17,2,2,1,1.643334e-01,4,1,0,2.100000e+00,1
71,854,5,7.515000e+01,64,2,2,1,3.327526e-01,4,1,0,2.300000e+00,1
71,855,5,1.011000e+02,29,3,1,0,2.332298e-01,4,1,0,3.100000e+00,1
71,856,5,9.700000e+00,2,1,1,1,6.341898e-01,4,1,0,1.200000e+00,1
71,857,5,1.181500e+02,52,3,4,0,3.477738e-01,2,1,0,3.100000e+00,1
71,858,5,4.537000e+01,33,1,1,1,5.716081e-01,4,1,0,1.300000e+00,1
71,859,5,6.798000e+01,66,2,2,1,4.934173e-01,4,1,0,2.300000e+00,1
71,860,5,3.230000e+01,54,1,1,1,9.833214e-01,4,1,0,1.300000e+00,1
71,861,5,3.465000e+01,35,1,1,1,1.844516e-01,2,1,0,1.200000e+00,1
71,862,5,6.135000e+01,36,2,2,1,2.592709e+00,4,1,0,2.100000e+00,1
71,863,5,9.280000e+00,22,1,3,0,4.549715e-01,4,1,0,1.300000e+00,1
71,864,5,1.228000e+02,3,3,3,1,1.078126e-01,2,1,0,3.200000e+00,1
71,865,5,1.181500e+02,52,3,3,1,2.290859e+00,3,1,0,3.100000e+00,1
71,866,5,4.627000e+01,4,1,1,1,3.228619e-01,4,1,0,1.300000e+00,1
71,867,5,1.228000e+02,3,3,3,1,2.986866e-01,3,1,0,3.200000e+00,1
71,868,5,1.361800e+02,58,3,3,1,5.336436e-01,3,1,0,3.100000e+00,1
71,869,5,1.380500e+02,62,3,3,1,1.165442e+00,4,1,0,3.100000e+00,1
71,870,5,1.421300e+02,6,3,3,1,3.767539e-01,4,1,0,3.100000e+00,1
71,871,5,1.032500e+02,9,3,2,0,3.775063e-01,4,1,0,3.100000e+00,1
71,872,5,4.239000e+01,63,1,3,0,4.129179e-01,4,1,0,1.300000e+00,1
71,873,5,3.465000e+01,35,1,1,1,1.349303e-01,3,1,0,1.200000e+00,1
71,874,5,1.361800e+02,58,3,3,1,2.076735e-01,4,1,0,3.100000e+00,1
71,875,5,1.726000e+01,25,1,3,0,5.313479e-01,4,1,0,1.300000e+00,1
71,876,5,3.465000e+01,35,1,1,1,3.941732e-01,4,1,0,1.200000e+00,1
71,877,5,1.228000e+02,3,3,3,1,1.721541e+00,4,1,0,3.200000e+00,1
71,878,5,6.504000e+01,67,2,3,0,5.914318e-01,4,1,0,2.300000e+00,1
71,879,5,1.181500e+02,52,3,3,1,8.943426e-01,4,1,0,3.100000e+00,1
71,880,5,9.619000e+01,18,2,2,1,1.783005e-01,4,1,0,2.300000e+00,1
71,881,6,69,48,2,2,1,2.741394e-01,NaN,2,0,2,1
71,882,6,96,13,1,1,1,1.833875e-01,NaN,2,0,2,1
71,883,6,86,7,1,1,1,3.657070e-01,NaN,2,0,2,1
71,884,6,50,32,1,1,1,1.127657e+00,NaN,2,1,2,1
71,885,6,38,12,1,1,1,1.485169e+00,NaN,2,1,1,1
71,886,6,141,23,2,2,1,4.665673e-01,NaN,2,0,3,1
71,887,6,80,3,2,2,1,3.963113e-01,NaN,2,0,2,1
71,888,6,116,40,2,2,1,8.573690e-01,NaN,2,0,3,1
71,889,6,58,28,2,1,0,1.104382e+00,NaN,2,1,2,1
71,890,6,12,69,2,2,1,2.153325e+00,NaN,2,1,1,1
71,891,6,14,42,2,2,1,3.709157e-01,NaN,2,0,1,1
71,892,6,139,63,2,1,0,1.423647e-01,NaN,2,0,3,1
71,893,6,119,18,1,1,1,1.604008e+00,NaN,2,0,3,1
71,894,6,108,68,2,2,1,1.767853e+00,NaN,2,0,3,1
71,895,6,92,44,1,2,0,7.366676e-01,NaN,2,0,2,1
71,896,6,47,19,1,1,1,9.745945e-01,NaN,2,0,1,1
71,897,6,126,25,2,2,1,4.125759e-01,NaN,2,0,3,1
71,898,6,32,26,2,2,1,2.564059e-01,NaN,2,0,1,1
71,899,6,18,58,2,2,1,6.177632e-01,NaN,2,0,1,1
71,900,6,94,24,1,1,1,4.174963e-01,NaN,2,1,2,1
71,901,6,135,30,1,1,1,5.263511e+00,NaN,2,1,3,1
71,902,6,137,33,1,2,0,6.669347e-01,NaN,2,0,3,1
71,903,6,30,17,2,2,1,2.651522e-01,NaN,2,0,1,1
71,904,6,143,5,2,2,1,2.012023e-01,NaN,2,1,3,1
71,905,6,59,49,2,2,1,2.426223e-01,NaN,2,0,2,1
71,906,6,33,10,1,1,1,1.297461e-01,NaN,2,1,1,1
71,907,6,78,16,1,1,1,4.586394e-01,NaN,2,0,2,1
71,908,6,132,47,1,1,1,1.538501e-01,NaN,2,0,3,1
71,909,6,93,60,2,2,1,1.743978e+00,NaN,2,1,2,1
71,910,6,102,43,1,1,1,7.430814e-01,NaN,2,0,3,1
71,911,6,52,11,1,1,1,8.411740e-01,NaN,2,1,2,1
71,912,6,27,65,1,1,1,2.635768e-01,NaN,2,1,1,1
71,913,6,35,36,1,1,1,1.341503e+00,NaN,2,0,1,1
71,914,6,3,59,2,1,0,3.731854e-01,NaN,2,0,1,1
71,915,6,11,45,1,1,1,2.408321e-01,NaN,2,0,1,1
71,916,6,73,27,1,1,1,1.486164e-01,NaN,2,0,2,1
71,917,6,130,54,2,1,0,2.549412e+00,NaN,2,0,3,1
71,918,6,127,4,1,1,1,2.744792e+00,NaN,2,0,3,1
71,919,6,99,21,2,2,1,2.502478e+00,NaN,2,0,3,1
71,920,6,5,62,1,1,1,7.336560e-01,NaN,2,0,1,1
71,921,6,29,20,2,2,1,3.000065e-01,NaN,2,1,1,1
71,922,6,10,29,2,2,1,2.678466e-01,NaN,2,0,1,1
71,923,6,57,38,2,2,1,1.962294e+00,NaN,2,0,2,1
71,924,6,76,70,1,1,1,5.080927e-01,NaN,2,0,2,1
71,925,6,89,71,1,1,1,1.834639e+00,NaN,2,0,2,1
71,926,6,26,55,1,1,1,1.272861e+00,NaN,2,1,1,1
71,927,6,84,61,2,2,1,5.104334e-01,NaN,2,0,2,1
71,928,6,81,41,1,2,0,1.807756e-01,NaN,2,0,2,1
71,929,6,2,37,1,1,1,2.013121e+00,NaN,2,1,1,1
71,930,6,79,34,1,1,1,1.568297e-01,NaN,2,1,2,1
71,931,6,13,6,1,1,1,6.756381e-01,NaN,2,0,1,1
71,932,6,19,14,2,1,0,9.821647e-01,NaN,2,0,1,1
71,933,6,120,53,2,2,1,1.623492e-01,NaN,2,1,3,1
71,934,6,128,22,1,1,1,2.611636e-01,NaN,2,0,3,1
71,935,6,129,8,1,1,1,3.600233e-01,NaN,2,0,3,1
71,936,6,25,9,1,1,1,4.888251e+00,NaN,2,0,1,1
71,937,6,115,64,2,2,1,4.658126e-01,NaN,2,0,3,1
71,938,6,15,52,2,2,1,4.767822e-01,NaN,2,0,1,1
71,939,6,42,1,2,2,1,2.025102e-01,NaN,2,1,1,1
71,940,6,65,35,2,2,1,4.229231e-01,NaN,2,0,2,1
71,941,6,56,31,1,1,1,1.445330e+00,NaN,2,0,2,1
71,942,6,98,66,1,1,1,2.055865e-01,NaN,2,0,3,1
71,943,6,133,56,1,1,1,2.451263e-01,NaN,2,0,3,1
71,944,6,121,39,1,1,1,4.188969e-01,NaN,2,0,3,1
71,945,6,106,50,2,2,1,3.617769e-01,NaN,2,0,3,1
71,946,6,87,51,2,2,1,2.484740e+00,NaN,2,1,2,1
71,947,6,104,67,2,2,1,2.875650e+00,NaN,2,0,3,1
71,948,6,40,15,1,1,1,1.647514e-01,NaN,2,0,1,1
71,949,6,70,2,2,2,1,4.239727e-01,NaN,2,0,2,1
71,950,6,72,57,2,2,1,1.691135e-01,NaN,2,0,2,1
71,951,6,117,72,2,2,1,7.116980e-01,NaN,2,0,3,1
71,952,6,36,46,1,1,1,3.086842e-01,NaN,2,0,1,1
71,953,6,77,65,1,1,1,1.515004e+00,NaN,1,1,2,1
71,954,6,124,34,1,1,1,5.384021e-01,NaN,1,1,3,1
71,955,6,100,51,2,2,1,3.858002e-01,NaN,1,1,3,1
71,956,6,63,72,1,1,1,7.458705e-01,NaN,1,0,2,1
71,957,6,134,37,2,2,1,1.026175e+00,NaN,1,1,3,1
71,958,6,44,33,1,1,1,2.063235e-01,NaN,1,0,1,1
71,959,6,16,25,2,2,1,2.577236e-01,NaN,1,0,1,1
71,960,6,71,1,1,2,0,5.767773e-01,NaN,1,1,2,1
71,961,6,112,16,1,1,1,2.118104e+00,NaN,1,0,3,1
71,962,6,118,52,2,2,1,1.038351e+00,NaN,1,0,3,1
71,963,6,43,70,1,1,1,1.776528e-01,NaN,1,0,1,1
71,964,6,64,67,1,2,0,9.840928e-01,NaN,1,0,2,1
71,965,6,97,45,1,1,1,8.311372e-01,NaN,1,0,3,1
71,966,6,62,43,2,2,1,4.465389e-01,NaN,1,0,2,1
71,967,6,88,20,2,2,1,1.671772e-01,NaN,1,1,2,1
71,968,6,101,29,1,1,1,7.132520e-01,NaN,1,0,3,1
71,969,6,95,18,2,2,1,1.590720e-01,NaN,1,0,2,1
71,970,6,17,48,2,2,1,4.602988e-01,NaN,1,0,1,1
71,971,6,122,3,2,2,1,1.249939e+00,NaN,1,0,3,1
71,972,6,82,12,1,1,1,5.348744e-01,NaN,1,1,2,1
71,973,6,54,55,1,1,1,7.994407e-01,NaN,1,1,2,1
71,974,6,1,30,1,1,1,1.921206e+00,NaN,1,1,1,1
71,975,6,22,49,2,2,1,2.718992e-01,NaN,1,0,1,1
71,976,6,75,39,2,2,1,1.727937e+00,NaN,1,0,2,1
71,977,6,113,41,1,1,1,7.048686e-01,NaN,1,0,3,1
71,978,6,103,9,2,2,1,2.612131e-01,NaN,1,0,3,1
71,979,6,49,10,2,2,1,6.666776e-01,NaN,1,1,2,1
71,980,6,138,62,2,2,1,1.253913e-01,NaN,1,0,3,1
71,981,6,20,11,2,2,1,1.692689e+00,NaN,1,1,1,1
71,982,6,28,38,2,1,0,3.670552e-01,NaN,1,0,1,1
71,983,6,74,64,1,2,0,4.339964e-01,NaN,1,0,2,1
71,984,6,46,47,2,1,0,9.249955e-01,NaN,1,0,1,1
71,985,6,41,63,1,1,1,2.600609e-01,NaN,1,0,1,1
71,986,6,111,60,2,2,1,2.282206e+00,NaN,1,1,3,1
71,987,6,91,17,2,2,1,4.364830e-01,NaN,1,0,2,1
71,988,6,31,54,2,2,1,3.273589e-01,NaN,1,0,1,1
71,989,6,9,2,2,2,1,2.114503e+00,NaN,1,0,1,1
71,990,6,144,14,2,2,1,2.305859e-01,NaN,1,0,3,1
71,991,6,114,71,1,1,1,2.154373e-01,NaN,1,0,3,1
71,992,6,45,4,2,2,1,7.603941e-01,NaN,1,0,1,1
71,993,6,142,6,1,2,0,2.178599e-01,NaN,1,0,3,1
71,994,6,123,24,1,1,1,1.309739e+00,NaN,1,1,3,1
71,995,6,37,56,2,2,1,4.976960e-01,NaN,1,0,1,1
71,996,6,110,42,1,1,1,1.058637e+00,NaN,1,0,3,1
71,997,6,23,31,2,2,1,3.286631e+00,NaN,1,0,1,1
71,998,6,21,57,1,1,1,3.080262e-01,NaN,1,0,1,1
71,999,6,136,58,1,1,1,5.044681e-01,NaN,1,0,3,1
71,1000,6,90,26,1,1,1,8.496610e-01,NaN,1,0,2,1
71,1001,6,109,13,2,2,1,6.719190e-01,NaN,1,0,3,1
71,1002,6,125,61,2,1,0,5.684992e-01,NaN,1,0,3,1
71,1003,6,131,7,1,1,1,7.569650e-01,NaN,1,0,3,1
71,1004,6,107,59,2,2,1,1.390430e+00,NaN,1,0,3,1
71,1005,6,67,66,2,2,1,9.998645e-01,NaN,1,0,2,1
71,1006,6,68,50,2,2,1,9.201460e-02,NaN,1,0,2,1
71,1007,6,85,46,1,2,0,3.963433e-01,NaN,1,0,2,1
71,1008,6,83,53,2,2,1,1.785798e+00,NaN,1,1,2,1
71,1009,6,48,5,1,1,1,1.803239e+00,NaN,1,1,1,1
71,1010,6,60,15,2,2,1,4.142747e-01,NaN,1,0,2,1
71,1011,6,140,44,1,1,1,2.304612e+00,NaN,1,0,3,1
71,1012,6,34,35,2,2,1,2.318910e+00,NaN,1,0,1,1
71,1013,6,39,32,1,2,0,8.349559e-01,NaN,1,1,1,1
71,1014,6,61,36,1,1,1,3.201634e-01,NaN,1,0,2,1
71,1015,6,6,8,1,2,0,1.686286e-01,NaN,1,0,1,1
71,1016,6,51,19,1,1,1,2.549694e-01,NaN,1,0,2,1
71,1017,6,7,23,1,1,1,6.140632e-01,NaN,1,0,1,1
71,1018,6,66,68,1,2,0,1.539389e+00,NaN,1,0,2,1
71,1019,6,24,28,2,2,1,1.416003e-01,NaN,1,1,1,1
71,1020,6,55,21,1,2,0,1.038760e+00,NaN,1,0,2,1
71,1021,6,53,40,1,1,1,2.094217e-01,NaN,1,0,2,1
71,1022,6,4,27,1,1,1,2.929371e-01,NaN,1,0,1,1
71,1023,6,8,22,2,2,1,1.837826e-01,NaN,1,0,1,1
71,1024,6,105,69,2,2,1,7.140926e-01,NaN,1,1,3,1
