Subject,Trial,Cond,ImageNum,CueNum,Correct,Resp,Accuracy,RT,CueRep,ImageType,Baseline,Category,Block
57,1,1,7,NaN,NaN,1,NaN,3.698440e-01,NaN,1,0,1,1
57,2,1,4,NaN,NaN,1,NaN,2.610660e-01,NaN,2,0,1,1
57,3,1,20,NaN,NaN,1,NaN,1.272007e+00,NaN,0,0,1,1
57,4,1,84,NaN,NaN,1,NaN,4.721506e-01,NaN,0,0,2,1
57,5,1,5,NaN,NaN,1,NaN,5.656680e-01,NaN,0,0,1,1
57,6,1,13,NaN,NaN,1,NaN,9.404787e-01,NaN,2,0,1,1
57,7,1,140,NaN,NaN,1,NaN,3.320536e-01,NaN,1,0,3,1
57,8,1,132,NaN,NaN,1,NaN,2.129289e+00,NaN,2,1,3,1
57,9,1,123,NaN,NaN,1,NaN,8.927201e-01,NaN,0,1,3,1
57,10,1,112,NaN,NaN,1,NaN,3.175624e-01,NaN,0,0,3,1
57,11,1,44,NaN,NaN,1,NaN,1.027246e+00,NaN,0,0,1,1
57,12,1,35,NaN,NaN,1,NaN,6.552306e-01,NaN,0,0,1,1
57,13,1,83,NaN,NaN,1,NaN,3.932919e-01,NaN,0,1,2,1
57,14,1,73,NaN,NaN,1,NaN,1.205355e+00,NaN,0,0,2,1
57,15,1,48,NaN,NaN,1,NaN,1.318887e+00,NaN,2,0,1,1
57,16,1,112,NaN,NaN,1,NaN,1.160485e+00,NaN,1,0,3,1
57,17,1,104,NaN,NaN,1,NaN,2.268980e+00,NaN,0,0,3,1
57,18,1,59,NaN,NaN,1,NaN,1.531868e+00,NaN,1,1,2,1
57,19,1,80,NaN,NaN,1,NaN,1.004757e-01,NaN,0,0,2,1
57,20,1,8,NaN,NaN,1,NaN,3.720351e+00,NaN,0,1,1,1
57,21,1,86,NaN,NaN,1,NaN,4.180671e-01,NaN,2,0,2,1
57,22,1,29,NaN,NaN,1,NaN,5.625069e-01,NaN,0,1,1,1
57,23,1,143,NaN,NaN,1,NaN,1.923853e-01,NaN,0,0,3,1
57,24,1,84,NaN,NaN,1,NaN,5.543188e+00,NaN,1,0,2,1
57,25,1,115,NaN,NaN,1,NaN,8.952337e-02,NaN,1,0,3,1
57,26,1,10,NaN,NaN,1,NaN,1.888477e-01,NaN,0,0,1,1
57,27,1,13,NaN,NaN,1,NaN,1.862430e-01,NaN,0,0,1,1
57,28,1,67,NaN,NaN,1,NaN,2.014384e-01,NaN,1,0,2,1
57,29,1,27,NaN,NaN,1,NaN,1.538914e+00,NaN,1,0,1,1
57,30,1,78,NaN,NaN,1,NaN,1.669155e+00,NaN,2,0,2,1
57,31,1,69,NaN,NaN,1,NaN,9.826233e-01,NaN,1,0,2,1
57,32,1,51,NaN,NaN,1,NaN,1.784433e-01,NaN,0,0,2,1
57,33,1,69,NaN,NaN,1,NaN,8.146586e-01,NaN,0,0,2,1
57,34,1,41,NaN,NaN,1,NaN,5.339763e-01,NaN,2,0,1,1
57,35,1,29,NaN,NaN,1,NaN,2.246412e-01,NaN,2,1,1,1
57,36,1,127,NaN,NaN,1,NaN,7.242850e-01,NaN,0,1,3,1
57,37,1,106,NaN,NaN,1,NaN,5.988059e-01,NaN,1,0,3,1
57,38,1,22,NaN,NaN,1,NaN,1.435713e+00,NaN,2,0,1,1
57,39,1,101,NaN,NaN,1,NaN,4.116734e-01,NaN,2,0,3,1
57,40,1,139,NaN,NaN,1,NaN,4.099609e-01,NaN,0,0,3,1
57,41,1,121,NaN,NaN,1,NaN,2.669033e-01,NaN,2,0,3,1
57,42,1,56,NaN,NaN,1,NaN,9.829045e-01,NaN,1,0,2,1
57,43,1,37,NaN,NaN,1,NaN,6.045380e-01,NaN,1,1,1,1
57,44,1,47,NaN,NaN,1,NaN,1.667506e-01,NaN,0,0,1,1
57,45,1,50,NaN,NaN,1,NaN,9.177157e-01,NaN,0,0,2,1
57,46,1,3,NaN,NaN,2,NaN,1.184729e+00,NaN,2,0,1,1
57,47,1,45,NaN,NaN,2,NaN,3.346055e-01,NaN,1,0,1,1
57,48,1,11,NaN,NaN,1,NaN,5.009273e+00,NaN,0,0,1,1
57,49,1,60,NaN,NaN,1,NaN,1.019731e+00,NaN,2,0,2,1
57,50,1,7,NaN,NaN,1,NaN,3.711514e+00,NaN,0,0,1,1
57,51,1,48,NaN,NaN,1,NaN,3.570252e-01,NaN,0,0,1,1
57,52,1,59,NaN,NaN,1,NaN,2.949106e-01,NaN,0,1,2,1
57,53,1,43,NaN,NaN,1,NaN,9.450997e-01,NaN,2,0,1,1
57,54,1,144,NaN,NaN,1,NaN,3.847752e-01,NaN,0,1,3,1
57,55,1,97,NaN,NaN,1,NaN,1.136198e+00,NaN,1,0,3,1
57,56,1,83,NaN,NaN,1,NaN,8.944549e-01,NaN,2,1,2,1
57,57,1,131,NaN,NaN,1,NaN,4.511639e-01,NaN,0,0,3,1
57,58,1,58,NaN,NaN,1,NaN,4.095302e+00,NaN,0,0,2,1
57,59,1,133,NaN,NaN,1,NaN,4.940843e-01,NaN,0,0,3,1
57,60,1,54,NaN,NaN,1,NaN,6.459822e-01,NaN,0,0,2,1
57,61,1,110,NaN,NaN,1,NaN,6.029016e-01,NaN,0,1,3,1
57,62,1,19,NaN,NaN,1,NaN,3.646624e-01,NaN,1,1,1,1
57,63,1,23,NaN,NaN,1,NaN,2.650069e-01,NaN,0,0,1,1
57,64,1,120,NaN,NaN,1,NaN,2.200851e+00,NaN,1,0,3,1
57,65,1,21,NaN,NaN,1,NaN,1.136389e-01,NaN,2,0,1,1
57,66,1,73,NaN,NaN,1,NaN,7.876829e-01,NaN,1,0,2,1
57,67,1,114,NaN,NaN,1,NaN,3.357206e-01,NaN,1,1,3,1
57,68,1,103,NaN,NaN,1,NaN,5.488471e-01,NaN,1,0,3,1
57,69,1,137,NaN,NaN,2,NaN,3.158981e-01,NaN,2,0,3,1
57,70,1,10,NaN,NaN,1,NaN,1.222627e+00,NaN,1,0,1,1
57,71,1,28,NaN,NaN,1,NaN,1.506875e+00,NaN,0,0,1,1
57,72,1,49,NaN,NaN,1,NaN,1.309557e+00,NaN,0,0,2,1
57,73,1,101,NaN,NaN,1,NaN,9.194581e-01,NaN,0,0,3,1
57,74,1,36,NaN,NaN,1,NaN,8.816573e-01,NaN,1,1,1,1
57,75,1,9,NaN,NaN,1,NaN,4.940868e+00,NaN,1,0,1,1
57,76,1,35,NaN,NaN,1,NaN,6.409388e-01,NaN,2,0,1,1
57,77,1,65,NaN,NaN,1,NaN,1.225667e+00,NaN,0,1,2,1
57,78,1,121,NaN,NaN,1,NaN,3.088454e-01,NaN,0,0,3,1
57,79,1,38,NaN,NaN,1,NaN,6.863018e-01,NaN,1,0,1,1
57,80,1,54,NaN,NaN,1,NaN,2.144069e-01,NaN,1,0,2,1
57,81,1,16,NaN,NaN,1,NaN,1.413530e+00,NaN,0,0,1,1
57,82,1,109,NaN,NaN,2,NaN,5.559860e-01,NaN,0,0,3,1
57,83,1,52,NaN,NaN,1,NaN,1.019497e+00,NaN,0,0,2,1
57,84,1,124,NaN,NaN,1,NaN,3.242637e+00,NaN,0,1,3,1
57,85,1,137,NaN,NaN,1,NaN,4.298053e-01,NaN,0,0,3,1
57,86,1,42,NaN,NaN,1,NaN,5.894303e-01,NaN,1,0,1,1
57,87,1,44,NaN,NaN,1,NaN,5.287575e+00,NaN,1,0,1,1
57,88,1,21,NaN,NaN,1,NaN,3.556707e-01,NaN,0,0,1,1
57,89,1,85,NaN,NaN,1,NaN,3.921781e-01,NaN,0,0,2,1
57,90,1,81,NaN,NaN,1,NaN,6.417238e-01,NaN,0,1,2,1
57,91,1,102,NaN,NaN,1,NaN,1.915951e-01,NaN,0,1,3,1
57,92,1,14,NaN,NaN,1,NaN,1.769969e+00,NaN,0,0,1,1
57,93,1,63,NaN,NaN,1,NaN,1.252968e-01,NaN,0,1,2,1
57,94,1,46,NaN,NaN,1,NaN,9.738666e-01,NaN,2,0,1,1
57,95,1,40,NaN,NaN,1,NaN,4.701904e-01,NaN,0,1,1,1
57,96,1,135,NaN,NaN,1,NaN,9.666837e-01,NaN,0,0,3,1
57,97,1,90,NaN,NaN,1,NaN,5.351555e-01,NaN,1,1,2,1
57,98,1,34,NaN,NaN,1,NaN,1.514816e+00,NaN,1,0,1,1
57,99,1,128,NaN,NaN,1,NaN,2.898314e-01,NaN,0,0,3,1
57,100,1,120,NaN,NaN,1,NaN,9.494124e-01,NaN,0,0,3,1
57,101,1,34,NaN,NaN,1,NaN,3.732697e-01,NaN,0,0,1,1
57,102,1,77,NaN,NaN,1,NaN,1.556204e+00,NaN,0,0,2,1
57,103,1,71,NaN,NaN,1,NaN,4.936924e-01,NaN,0,0,2,1
57,104,1,66,NaN,NaN,1,NaN,2.604213e+00,NaN,2,1,2,1
57,105,1,74,NaN,NaN,1,NaN,7.571596e-01,NaN,2,0,2,1
57,106,1,93,NaN,NaN,1,NaN,3.382040e-01,NaN,1,0,2,1
57,107,1,60,NaN,NaN,1,NaN,1.122507e+00,NaN,0,0,2,1
57,108,1,118,NaN,NaN,1,NaN,1.509826e+00,NaN,2,0,3,1
57,109,1,53,NaN,NaN,1,NaN,2.061948e-01,NaN,1,0,2,1
57,110,1,86,NaN,NaN,1,NaN,7.439781e-01,NaN,0,0,2,1
57,111,1,96,NaN,NaN,1,NaN,6.847006e-01,NaN,0,1,2,1
57,112,1,79,NaN,NaN,1,NaN,1.536359e+00,NaN,2,0,2,1
57,113,1,88,NaN,NaN,1,NaN,1.084129e+00,NaN,1,0,2,1
57,114,1,130,NaN,NaN,1,NaN,7.881614e-01,NaN,0,0,3,1
57,115,1,64,NaN,NaN,1,NaN,1.004994e+00,NaN,0,0,2,1
57,116,1,68,NaN,NaN,1,NaN,1.360738e+00,NaN,2,1,2,1
57,117,1,107,NaN,NaN,1,NaN,5.552066e-01,NaN,0,0,3,1
57,118,1,81,NaN,NaN,2,NaN,5.712985e-01,NaN,2,1,2,1
57,119,1,47,NaN,NaN,1,NaN,3.218416e+00,NaN,2,0,1,1
57,120,1,18,NaN,NaN,1,NaN,1.051956e-01,NaN,0,0,1,1
57,121,1,128,NaN,NaN,1,NaN,1.176108e-01,NaN,1,0,3,1
57,122,1,136,NaN,NaN,1,NaN,1.313060e+00,NaN,2,0,3,1
57,123,1,75,NaN,NaN,1,NaN,1.671054e+00,NaN,2,0,2,1
57,124,1,32,NaN,NaN,1,NaN,2.183693e-01,NaN,0,0,1,1
57,125,1,92,NaN,NaN,1,NaN,1.453358e+00,NaN,0,1,2,1
57,126,1,89,NaN,NaN,1,NaN,1.148130e+00,NaN,0,1,2,1
57,127,1,106,NaN,NaN,1,NaN,4.921714e-01,NaN,0,0,3,1
57,128,1,103,NaN,NaN,1,NaN,4.731245e-01,NaN,0,0,3,1
57,129,1,66,NaN,NaN,1,NaN,2.746103e-01,NaN,0,1,2,1
57,130,1,77,NaN,NaN,1,NaN,2.824119e-01,NaN,2,0,2,1
57,131,1,40,NaN,NaN,1,NaN,5.721554e-01,NaN,2,1,1,1
57,132,1,130,NaN,NaN,1,NaN,1.454174e+00,NaN,1,0,3,1
57,133,1,133,NaN,NaN,2,NaN,3.165573e-01,NaN,2,0,3,1
57,134,1,2,NaN,NaN,2,NaN,6.383885e-01,NaN,0,0,1,1
57,135,1,57,NaN,NaN,1,NaN,3.561346e-01,NaN,0,0,2,1
57,136,1,56,NaN,NaN,1,NaN,4.303990e-01,NaN,0,0,2,1
57,137,1,126,NaN,NaN,1,NaN,3.858881e-01,NaN,2,0,3,1
57,138,1,87,NaN,NaN,1,NaN,4.433672e-01,NaN,0,1,2,1
57,139,1,141,NaN,NaN,1,NaN,7.282412e-01,NaN,0,0,3,1
57,140,1,97,NaN,NaN,1,NaN,3.387405e-01,NaN,0,0,3,1
57,141,1,70,NaN,NaN,1,NaN,3.853425e-01,NaN,1,0,2,1
57,142,1,117,NaN,NaN,1,NaN,6.870050e-01,NaN,0,0,3,1
57,143,1,100,NaN,NaN,1,NaN,5.540611e-01,NaN,2,0,3,1
57,144,1,72,NaN,NaN,1,NaN,1.960133e-01,NaN,1,1,2,1
57,145,1,32,NaN,NaN,1,NaN,1.625646e-01,NaN,1,0,1,1
57,146,1,139,NaN,NaN,1,NaN,2.937786e-01,NaN,2,0,3,1
57,147,1,108,NaN,NaN,1,NaN,1.456516e+00,NaN,0,0,3,1
57,148,1,102,NaN,NaN,1,NaN,3.809316e-01,NaN,1,1,3,1
57,149,1,51,NaN,NaN,1,NaN,1.980765e-01,NaN,1,0,2,1
57,150,1,119,NaN,NaN,1,NaN,4.781916e-01,NaN,0,0,3,1
57,151,1,116,NaN,NaN,1,NaN,3.719170e-01,NaN,0,0,3,1
57,152,1,61,NaN,NaN,1,NaN,5.883401e-02,NaN,1,0,2,1
57,153,1,39,NaN,NaN,1,NaN,2.030719e+00,NaN,0,1,1,1
57,154,1,37,NaN,NaN,1,NaN,5.304944e-01,NaN,0,1,1,1
57,155,1,22,NaN,NaN,1,NaN,5.122150e-01,NaN,0,0,1,1
57,156,1,57,NaN,NaN,1,NaN,2.532949e-01,NaN,2,0,2,1
57,157,1,72,NaN,NaN,2,NaN,6.686427e-01,NaN,0,1,2,1
57,158,1,134,NaN,NaN,1,NaN,1.892899e+00,NaN,1,0,3,1
57,159,1,127,NaN,NaN,1,NaN,3.071008e-01,NaN,1,1,3,1
57,160,1,2,NaN,NaN,1,NaN,1.995395e+00,NaN,1,0,1,1
57,161,1,96,NaN,NaN,1,NaN,1.833220e-01,NaN,2,1,2,1
57,162,1,142,NaN,NaN,1,NaN,6.257450e-01,NaN,0,1,3,1
57,163,1,118,NaN,NaN,1,NaN,1.159323e+00,NaN,0,0,3,1
57,164,1,33,NaN,NaN,1,NaN,2.837539e+00,NaN,2,0,1,1
57,165,1,30,NaN,NaN,1,NaN,6.957700e-01,NaN,2,0,1,1
57,166,1,113,NaN,NaN,1,NaN,4.577079e-01,NaN,0,0,3,1
57,167,1,1,NaN,NaN,2,NaN,2.083050e+00,NaN,0,1,1,1
57,168,1,85,NaN,NaN,1,NaN,1.790398e-01,NaN,2,0,2,1
57,169,1,138,NaN,NaN,1,NaN,2.112709e+00,NaN,2,0,3,1
57,170,1,49,NaN,NaN,1,NaN,2.668642e-01,NaN,2,0,2,1
57,171,1,16,NaN,NaN,1,NaN,4.724226e-01,NaN,1,0,1,1
57,172,1,71,NaN,NaN,1,NaN,3.481036e-01,NaN,1,0,2,1
57,173,1,1,NaN,NaN,1,NaN,1.359449e+00,NaN,1,1,1,1
57,174,1,131,NaN,NaN,1,NaN,4.289478e-01,NaN,2,0,3,1
57,175,1,8,NaN,NaN,2,NaN,6.476092e-01,NaN,1,1,1,1
57,176,1,104,NaN,NaN,1,NaN,9.048635e-01,NaN,2,0,3,1
57,177,1,30,NaN,NaN,1,NaN,2.270641e-01,NaN,0,0,1,1
57,178,1,123,NaN,NaN,1,NaN,1.279256e+00,NaN,1,1,3,1
57,179,1,82,NaN,NaN,1,NaN,1.060143e-01,NaN,1,0,2,1
57,180,1,27,NaN,NaN,1,NaN,1.341629e+00,NaN,0,0,1,1
57,181,1,143,NaN,NaN,1,NaN,1.897713e+00,NaN,1,0,3,1
57,182,1,132,NaN,NaN,1,NaN,7.800474e-01,NaN,0,1,3,1
57,183,1,3,NaN,NaN,1,NaN,8.493904e-01,NaN,0,0,1,1
57,184,1,26,NaN,NaN,1,NaN,9.839315e-01,NaN,0,0,1,1
57,185,1,110,NaN,NaN,1,NaN,1.725451e+00,NaN,2,1,3,1
57,186,1,25,NaN,NaN,1,NaN,1.558626e+00,NaN,2,0,1,1
57,187,1,116,NaN,NaN,1,NaN,6.486483e-01,NaN,2,0,3,1
57,188,1,78,NaN,NaN,1,NaN,2.413058e+00,NaN,0,0,2,1
57,189,1,11,NaN,NaN,1,NaN,1.770457e+00,NaN,2,0,1,1
57,190,1,136,NaN,NaN,2,NaN,6.314887e-01,NaN,0,0,3,1
57,191,1,125,NaN,NaN,1,NaN,9.143893e-01,NaN,1,0,3,1
57,192,1,89,NaN,NaN,1,NaN,8.037523e-01,NaN,1,1,2,1
57,193,1,119,NaN,NaN,1,NaN,1.441244e+00,NaN,2,0,3,1
57,194,1,98,NaN,NaN,1,NaN,2.428467e-01,NaN,0,0,3,1
57,195,1,53,NaN,NaN,1,NaN,9.194275e-01,NaN,0,0,2,1
57,196,1,98,NaN,NaN,1,NaN,1.431408e-01,NaN,1,0,3,1
57,197,1,19,NaN,NaN,1,NaN,1.505041e-01,NaN,0,1,1,1
57,198,1,93,NaN,NaN,1,NaN,9.948158e-01,NaN,0,0,2,1
57,199,1,113,NaN,NaN,1,NaN,1.822684e+00,NaN,2,0,3,1
57,200,1,95,NaN,NaN,1,NaN,1.247098e+00,NaN,1,0,2,1
57,201,1,129,NaN,NaN,1,NaN,2.649973e-01,NaN,0,0,3,1
57,202,1,144,NaN,NaN,1,NaN,9.571876e-01,NaN,1,1,3,1
57,203,1,5,NaN,NaN,1,NaN,9.916594e-01,NaN,2,0,1,1
57,204,1,62,NaN,NaN,1,NaN,6.102516e-01,NaN,0,1,2,1
57,205,1,114,NaN,NaN,1,NaN,4.463450e-01,NaN,0,1,3,1
57,206,1,67,NaN,NaN,1,NaN,7.538764e-01,NaN,0,0,2,1
57,207,1,45,NaN,NaN,1,NaN,8.028973e-01,NaN,0,0,1,1
57,208,1,25,NaN,NaN,1,NaN,3.538892e-01,NaN,0,0,1,1
57,209,1,140,NaN,NaN,1,NaN,2.988939e-01,NaN,0,0,3,1
57,210,1,111,NaN,NaN,1,NaN,1.289515e+00,NaN,0,1,3,1
57,211,1,9,NaN,NaN,1,NaN,1.306364e-01,NaN,0,0,1,1
57,212,1,17,NaN,NaN,1,NaN,2.614145e+00,NaN,0,0,1,1
57,213,1,12,NaN,NaN,1,NaN,6.757997e-01,NaN,1,1,1,1
57,214,1,46,NaN,NaN,1,NaN,1.608771e+00,NaN,0,0,1,1
57,215,1,31,NaN,NaN,1,NaN,3.613521e-01,NaN,0,0,1,1
57,216,1,17,NaN,NaN,1,NaN,2.105688e+00,NaN,1,0,1,1
57,217,1,50,NaN,NaN,1,NaN,5.425943e-01,NaN,2,0,2,1
57,218,1,108,NaN,NaN,1,NaN,8.678819e-01,NaN,2,0,3,1
57,219,1,24,NaN,NaN,1,NaN,3.823605e-01,NaN,2,0,1,1
57,220,1,52,NaN,NaN,1,NaN,5.048570e-01,NaN,1,0,2,1
57,221,1,94,NaN,NaN,1,NaN,1.350088e+00,NaN,1,0,2,1
57,222,1,91,NaN,NaN,1,NaN,1.131547e+00,NaN,2,1,2,1
57,223,1,87,NaN,NaN,1,NaN,1.631843e-01,NaN,1,1,2,1
57,224,1,15,NaN,NaN,1,NaN,2.537078e-01,NaN,0,0,1,1
57,225,1,99,NaN,NaN,1,NaN,1.113864e+00,NaN,2,0,3,1
57,226,1,91,NaN,NaN,1,NaN,3.457271e-01,NaN,0,1,2,1
57,227,1,24,NaN,NaN,1,NaN,9.715090e-01,NaN,0,0,1,1
57,228,1,55,NaN,NaN,1,NaN,8.280598e-01,NaN,0,1,2,1
57,229,1,135,NaN,NaN,1,NaN,9.655970e-01,NaN,2,0,3,1
57,230,1,15,NaN,NaN,1,NaN,1.306166e+00,NaN,2,0,1,1
57,231,1,80,NaN,NaN,1,NaN,5.379642e+00,NaN,1,0,2,1
57,232,1,129,NaN,NaN,1,NaN,1.349220e+00,NaN,1,0,3,1
57,233,1,122,NaN,NaN,1,NaN,2.187606e+00,NaN,0,0,3,1
57,234,1,90,NaN,NaN,1,NaN,2.245778e+00,NaN,0,1,2,1
57,235,1,33,NaN,NaN,1,NaN,4.159753e-01,NaN,0,0,1,1
57,236,1,39,NaN,NaN,1,NaN,2.622687e+00,NaN,2,1,1,1
57,237,1,4,NaN,NaN,1,NaN,3.207821e-01,NaN,0,0,1,1
57,238,1,134,NaN,NaN,2,NaN,1.109215e-01,NaN,0,0,3,1
57,239,1,126,NaN,NaN,1,NaN,1.021989e+00,NaN,0,0,3,1
57,240,1,95,NaN,NaN,1,NaN,4.073845e-01,NaN,0,0,2,1
57,241,1,6,NaN,NaN,1,NaN,1.045975e+00,NaN,2,1,1,1
57,242,1,125,NaN,NaN,1,NaN,1.639411e+00,NaN,0,0,3,1
57,243,1,111,NaN,NaN,1,NaN,2.267648e+00,NaN,1,1,3,1
57,244,1,122,NaN,NaN,1,NaN,3.632230e-01,NaN,2,0,3,1
57,245,1,79,NaN,NaN,1,NaN,3.993762e+00,NaN,0,0,2,1
57,246,1,55,NaN,NaN,1,NaN,1.993213e+00,NaN,2,1,2,1
57,247,1,88,NaN,NaN,1,NaN,2.703457e-01,NaN,0,0,2,1
57,248,1,74,NaN,NaN,1,NaN,4.091758e-01,NaN,0,0,2,1
57,249,1,75,NaN,NaN,1,NaN,3.108221e+00,NaN,0,0,2,1
57,250,1,82,NaN,NaN,1,NaN,4.452463e-01,NaN,0,0,2,1
57,251,1,115,NaN,NaN,1,NaN,9.902300e-01,NaN,0,0,3,1
57,252,1,76,NaN,NaN,1,NaN,2.701168e+00,NaN,2,0,2,1
57,253,1,142,NaN,NaN,1,NaN,4.299072e-01,NaN,2,1,3,1
57,254,1,99,NaN,NaN,1,NaN,1.447565e+00,NaN,0,0,3,1
57,255,1,141,NaN,NaN,1,NaN,2.223375e-01,NaN,2,0,3,1
57,256,1,12,NaN,NaN,1,NaN,5.853439e-01,NaN,0,1,1,1
57,257,1,14,NaN,NaN,1,NaN,3.654149e-01,NaN,1,0,1,1
57,258,1,42,NaN,NaN,1,NaN,1.399300e+00,NaN,0,0,1,1
57,259,1,68,NaN,NaN,1,NaN,4.757325e-01,NaN,0,1,2,1
57,260,1,43,NaN,NaN,2,NaN,2.295786e-01,NaN,0,0,1,1
57,261,1,31,NaN,NaN,1,NaN,1.775716e+00,NaN,1,0,1,1
57,262,1,92,NaN,NaN,1,NaN,5.315193e-01,NaN,2,1,2,1
57,263,1,124,NaN,NaN,1,NaN,6.023308e-01,NaN,1,1,3,1
57,264,1,138,NaN,NaN,1,NaN,2.229274e+00,NaN,0,0,3,1
57,265,1,70,NaN,NaN,1,NaN,2.936069e+00,NaN,0,0,2,1
57,266,1,18,NaN,NaN,1,NaN,4.055179e+00,NaN,1,0,1,1
57,267,1,105,NaN,NaN,1,NaN,6.428128e-01,NaN,0,0,3,1
57,268,1,38,NaN,NaN,1,NaN,5.075743e-01,NaN,0,0,1,1
57,269,1,28,NaN,NaN,1,NaN,3.560393e-01,NaN,1,0,1,1
57,270,1,63,NaN,NaN,1,NaN,1.178371e+00,NaN,2,1,2,1
57,271,1,23,NaN,NaN,2,NaN,6.586551e-01,NaN,2,0,1,1
57,272,1,20,NaN,NaN,1,NaN,1.451694e+00,NaN,2,0,1,1
57,273,1,76,NaN,NaN,1,NaN,8.340568e-01,NaN,0,0,2,1
57,274,1,117,NaN,NaN,1,NaN,1.287026e+00,NaN,1,0,3,1
57,275,1,64,NaN,NaN,1,NaN,5.485729e-01,NaN,1,0,2,1
57,276,1,26,NaN,NaN,1,NaN,7.032633e-01,NaN,1,0,1,1
57,277,1,65,NaN,NaN,1,NaN,8.228098e-01,NaN,2,1,2,1
57,278,1,62,NaN,NaN,1,NaN,1.892260e-01,NaN,2,1,2,1
57,279,1,41,NaN,NaN,2,NaN,2.014251e-01,NaN,0,0,1,1
57,280,1,105,NaN,NaN,1,NaN,3.249356e-01,NaN,1,0,3,1
57,281,1,58,NaN,NaN,1,NaN,4.673436e+00,NaN,2,0,2,1
57,282,1,61,NaN,NaN,1,NaN,2.795711e+00,NaN,0,0,2,1
57,283,1,6,NaN,NaN,1,NaN,1.549229e+00,NaN,0,1,1,1
57,284,1,109,NaN,NaN,1,NaN,1.935606e+00,NaN,1,0,3,1
57,285,1,36,NaN,NaN,1,NaN,1.484397e+00,NaN,0,1,1,1
57,286,1,107,NaN,NaN,1,NaN,4.237128e-01,NaN,2,0,3,1
57,287,1,100,NaN,NaN,1,NaN,6.522576e-01,NaN,0,0,3,1
57,288,1,94,NaN,NaN,1,NaN,4.690867e-01,NaN,0,0,2,1
57,328,2,36,59,1,2,0,1.625444e+00,NaN,1,1,1,1
57,329,2,45,42,1,1,1,5.904645e-01,NaN,1,0,1,1
57,330,2,80,40,1,2,0,3.032816e-01,NaN,1,0,2,1
57,331,2,130,55,1,1,1,1.115397e+00,NaN,1,0,3,1
57,332,2,129,63,1,1,1,4.268913e-01,NaN,1,0,3,1
57,333,2,115,53,2,1,0,6.073829e-01,NaN,1,0,3,1
57,334,2,37,22,2,2,1,1.117913e+00,NaN,1,1,1,1
57,335,2,123,62,2,2,1,2.667444e+00,NaN,1,1,3,1
57,336,2,84,6,2,2,1,2.512886e-01,NaN,1,0,2,1
57,337,2,72,39,1,1,1,2.187922e+00,NaN,1,1,2,1
57,338,2,70,11,1,1,1,1.988716e-01,NaN,1,0,2,1
57,339,2,140,41,1,1,1,4.844911e+00,NaN,1,0,3,1
57,340,2,109,26,1,1,1,4.010663e-01,NaN,1,0,3,1
57,341,2,9,12,1,1,1,2.735372e+00,NaN,1,0,1,1
57,342,2,117,71,1,1,1,2.348679e+00,NaN,1,0,3,1
57,343,2,28,2,1,1,1,4.386593e-01,NaN,1,0,1,1
57,344,2,34,56,2,2,1,2.719457e-01,NaN,1,0,1,1
57,345,2,10,50,2,2,1,6.396503e-01,NaN,1,0,1,1
57,346,2,102,47,2,2,1,3.021969e-01,NaN,1,1,3,1
57,347,2,32,33,2,2,1,6.564167e-01,NaN,1,0,1,1
57,348,2,64,25,1,1,1,1.249753e+00,NaN,1,0,2,1
57,349,2,127,4,2,2,1,5.624304e-01,NaN,1,1,3,1
57,350,2,103,16,1,2,0,1.399567e+00,NaN,1,0,3,1
57,351,2,51,67,2,2,1,5.357855e-01,NaN,1,0,2,1
57,352,3,103,16,2,2,1,1.179039e+00,NaN,1,0,3,1
57,353,3,45,42,1,1,1,2.768054e-01,NaN,1,0,1,1
57,354,3,36,59,2,2,1,1.520201e+00,NaN,1,1,1,1
57,355,3,117,71,2,2,1,2.203249e-01,NaN,1,0,3,1
57,356,3,34,56,1,1,1,2.979467e-01,NaN,1,0,1,1
57,357,3,51,67,1,2,0,1.208792e+00,NaN,1,0,2,1
57,358,3,64,25,2,1,0,2.140666e-01,NaN,1,0,2,1
57,359,3,129,63,2,2,1,1.096413e+00,NaN,1,0,3,1
57,360,3,72,39,2,2,1,2.102093e-01,NaN,1,1,2,1
57,361,3,32,33,1,1,1,2.150041e-01,NaN,1,0,1,1
57,362,3,130,55,1,2,0,1.333942e+00,NaN,1,0,3,1
57,363,3,127,4,2,2,1,3.502624e+00,NaN,1,1,3,1
57,364,3,28,2,2,2,1,1.664494e+00,NaN,1,0,1,1
57,365,3,84,6,2,2,1,3.521611e-01,NaN,1,0,2,1
57,366,3,102,47,1,1,1,1.123273e+00,NaN,1,1,3,1
57,367,3,140,41,1,1,1,2.954664e-01,NaN,1,0,3,1
57,368,3,70,11,2,1,0,4.387096e-01,NaN,1,0,2,1
57,369,3,115,53,2,2,1,3.261242e-01,NaN,1,0,3,1
57,370,3,37,22,1,1,1,1.087101e-01,NaN,1,1,1,1
57,371,3,10,50,2,2,1,2.702653e-01,NaN,1,0,1,1
57,372,3,80,40,1,1,1,1.639708e+00,NaN,1,0,2,1
57,373,3,109,26,1,1,1,4.335274e-01,NaN,1,0,3,1
57,374,3,123,62,1,1,1,4.269084e-01,NaN,1,1,3,1
57,375,3,9,12,1,1,1,9.597483e-01,NaN,1,0,1,1
57,400,2,111,8,2,2,1,6.914545e-01,NaN,1,1,3,2
57,401,2,27,10,1,2,0,1.030536e+00,NaN,1,0,1,2
57,402,2,106,72,1,1,1,1.780199e+00,NaN,1,0,3,2
57,403,2,19,24,2,2,1,7.143861e-01,NaN,1,1,1,2
57,404,2,105,49,2,2,1,1.073108e+00,NaN,1,0,3,2
57,405,2,53,31,2,2,1,2.657375e-01,NaN,1,0,2,2
57,406,2,143,48,1,1,1,2.364314e+00,NaN,1,0,3,2
57,407,2,56,36,2,2,1,1.459352e+00,NaN,1,0,2,2
57,408,2,16,38,2,2,1,2.351119e-01,NaN,1,0,1,2
57,409,2,134,57,2,2,1,5.018640e-01,NaN,1,0,3,2
57,410,2,18,23,2,1,0,1.369846e+00,NaN,1,0,1,2
57,411,2,71,7,2,2,1,1.619459e+00,NaN,1,0,2,2
57,412,2,94,17,1,1,1,4.805341e-01,NaN,1,0,2,2
57,413,2,144,30,1,1,1,1.123037e+00,NaN,1,1,3,2
57,414,2,128,1,2,1,0,3.183258e-01,NaN,1,0,3,2
57,415,2,1,68,1,1,1,4.691611e-01,NaN,1,1,1,2
57,416,2,54,29,1,1,1,4.493151e-01,NaN,1,0,2,2
57,417,2,90,14,1,1,1,2.953343e-01,NaN,1,1,2,2
57,418,2,52,5,2,2,1,5.735018e-01,NaN,1,0,2,2
57,419,2,8,46,2,1,0,1.251938e+00,NaN,1,1,1,2
57,420,2,93,69,2,2,1,3.157794e-01,NaN,1,0,2,2
57,421,2,17,19,2,2,1,1.193678e+00,NaN,1,0,1,2
57,422,2,120,13,2,2,1,5.135875e-01,NaN,1,0,3,2
57,423,2,88,21,1,2,0,1.632662e+00,NaN,1,0,2,2
57,424,3,111,8,2,1,0,7.163860e-01,NaN,1,1,3,2
57,425,3,27,10,1,1,1,3.716553e-01,NaN,1,0,1,2
57,426,3,106,72,1,1,1,8.477546e-01,NaN,1,0,3,2
57,427,3,90,14,2,2,1,1.843883e-01,NaN,1,1,2,2
57,428,3,54,29,1,1,1,6.097912e-01,NaN,1,0,2,2
57,429,3,94,17,1,1,1,6.656670e-01,NaN,1,0,2,2
57,430,3,134,57,2,2,1,4.631239e-01,NaN,1,0,3,2
57,431,3,120,13,1,2,0,5.211773e-01,NaN,1,0,3,2
57,432,3,18,23,2,1,0,1.614077e-01,NaN,1,0,1,2
57,433,3,56,36,1,1,1,5.993164e-01,NaN,1,0,2,2
57,434,3,1,68,1,1,1,6.660226e-01,NaN,1,1,1,2
57,435,3,19,24,1,2,0,3.221796e-01,NaN,1,1,1,2
57,436,3,17,19,1,2,0,8.358467e-01,NaN,1,0,1,2
57,437,3,93,69,2,2,1,1.943077e+00,NaN,1,0,2,2
57,438,3,71,7,1,1,1,1.726319e+00,NaN,1,0,2,2
57,439,3,128,1,1,2,0,3.085264e+00,NaN,1,0,3,2
57,440,3,88,21,2,1,0,5.295415e-01,NaN,1,0,2,2
57,441,3,16,38,1,2,0,3.630072e-01,NaN,1,0,1,2
57,442,3,143,48,2,2,1,1.010916e+00,NaN,1,0,3,2
57,443,3,105,49,1,1,1,1.715543e+00,NaN,1,0,3,2
57,444,3,53,31,2,2,1,3.489273e-01,NaN,1,0,2,2
57,445,3,8,46,2,2,1,5.350201e-01,NaN,1,1,1,2
57,446,3,52,5,2,2,1,5.983106e-01,NaN,1,0,2,2
57,447,3,144,30,2,2,1,4.920107e-01,NaN,1,1,3,2
57,472,2,98,3,2,1,0,1.838011e+00,NaN,1,0,3,3
57,473,2,12,58,1,1,1,2.643668e-01,NaN,1,1,1,3
57,474,2,125,45,1,1,1,2.865856e+00,NaN,1,0,3,3
57,475,2,42,18,1,2,0,4.005168e-01,NaN,1,0,1,3
57,476,2,82,32,1,1,1,8.135208e-01,NaN,1,0,2,3
57,477,2,95,64,2,2,1,1.062251e+00,NaN,1,0,2,3
57,478,2,114,27,1,1,1,6.669752e-01,NaN,1,1,3,3
57,479,2,97,70,1,1,1,9.322088e-01,NaN,1,0,3,3
57,480,2,7,43,2,2,1,4.324891e-01,NaN,1,0,1,3
57,481,2,44,44,2,2,1,5.469899e-01,NaN,1,0,1,3
57,482,2,124,34,1,1,1,8.664863e-01,NaN,1,1,3,3
57,483,2,61,54,1,1,1,5.726586e-01,NaN,1,0,2,3
57,484,2,14,35,2,2,1,2.707566e-01,NaN,1,0,1,3
57,485,2,73,20,1,1,1,5.751173e-01,NaN,1,0,2,3
57,486,2,59,60,1,1,1,2.883223e+00,NaN,1,1,2,3
57,487,2,89,66,2,1,0,7.429720e-01,NaN,1,1,2,3
57,488,2,87,9,1,1,1,8.032771e-01,NaN,1,1,2,3
57,489,2,31,28,2,2,1,5.294656e-01,NaN,1,0,1,3
57,490,2,67,65,1,1,1,5.925830e-01,NaN,1,0,2,3
57,491,2,26,51,2,2,1,4.461571e-01,NaN,1,0,1,3
57,492,2,69,52,1,1,1,3.694241e-01,NaN,1,0,2,3
57,493,2,112,61,2,1,0,4.662064e+00,NaN,1,0,3,3
57,494,2,2,15,2,2,1,5.593372e-01,NaN,1,0,1,3
57,495,2,38,37,2,2,1,1.774231e+00,NaN,1,0,1,3
57,496,3,38,37,1,2,0,2.108985e-01,NaN,1,0,1,3
57,497,3,61,54,1,2,0,1.126457e+00,NaN,1,0,2,3
57,498,3,12,58,2,2,1,5.644526e-01,NaN,1,1,1,3
57,499,3,124,34,1,1,1,4.834976e+00,NaN,1,1,3,3
57,500,3,69,52,1,1,1,1.035997e+00,NaN,1,0,2,3
57,501,3,59,60,1,1,1,1.081531e+00,NaN,1,1,2,3
57,502,3,97,70,2,2,1,3.077866e-01,NaN,1,0,3,3
57,503,3,2,15,1,1,1,6.143353e-01,NaN,1,0,1,3
57,504,3,89,66,1,1,1,1.209025e+00,NaN,1,1,2,3
57,505,3,112,61,1,1,1,5.735812e-01,NaN,1,0,3,3
57,506,3,14,35,1,2,0,3.382664e-01,NaN,1,0,1,3
57,507,3,98,3,2,2,1,1.529075e+00,NaN,1,0,3,3
57,508,3,125,45,2,2,1,3.474850e-01,NaN,1,0,3,3
57,509,3,73,20,2,2,1,4.542998e-01,NaN,1,0,2,3
57,510,3,31,28,1,1,1,7.885492e-01,NaN,1,0,1,3
57,511,3,26,51,2,2,1,1.153962e+00,NaN,1,0,1,3
57,512,3,44,44,2,2,1,2.040705e+00,NaN,1,0,1,3
57,513,3,87,9,2,2,1,9.126969e-01,NaN,1,1,2,3
57,514,3,67,65,2,2,1,5.359764e-01,NaN,1,0,2,3
57,515,3,114,27,2,2,1,1.637772e-01,NaN,1,1,3,3
57,516,3,7,43,1,2,0,6.986462e-01,NaN,1,0,1,3
57,517,3,42,18,1,1,1,3.683125e-01,NaN,1,0,1,3
57,518,3,95,64,2,2,1,4.991133e-01,NaN,1,0,2,3
57,519,3,82,32,2,2,1,8.149034e-01,NaN,1,0,2,3
57,544,4,131,25,1,1,1,1.905282e-01,NaN,2,0,3,1
57,545,4,68,62,2,2,1,2.214140e-01,NaN,2,1,2,1
57,546,4,122,36,2,2,1,1.090857e+00,NaN,2,0,3,1
57,547,4,41,54,2,1,0,8.210407e-01,NaN,2,0,1,1
57,548,4,126,20,1,1,1,7.269771e-01,NaN,2,0,3,1
57,549,4,6,4,2,2,1,1.190453e+00,NaN,2,1,1,1
57,550,4,5,63,1,2,0,3.165109e+00,NaN,2,0,1,1
57,551,4,35,5,2,2,1,1.821772e+00,NaN,2,0,1,1
57,552,4,20,3,2,2,1,1.538127e+00,NaN,2,0,1,1
57,553,4,75,33,2,2,1,6.746265e-01,NaN,2,0,2,1
57,554,4,63,27,2,1,0,4.095105e-01,NaN,2,1,2,1
57,555,4,85,50,1,2,0,8.026261e-01,NaN,2,0,2,1
57,556,4,21,49,1,1,1,1.694173e+00,NaN,2,0,1,1
57,557,4,47,65,2,2,1,5.310336e-01,NaN,2,0,1,1
57,558,4,50,70,2,2,1,5.021067e-01,NaN,2,0,2,1
57,559,4,15,55,2,2,1,6.021244e-01,NaN,2,0,1,1
57,560,4,99,44,2,2,1,1.067536e+00,NaN,2,0,3,1
57,561,4,138,69,1,1,1,1.506165e+00,NaN,2,0,3,1
57,562,4,81,68,1,1,1,2.840831e-01,NaN,2,1,2,1
57,563,4,121,35,2,2,1,2.311776e-01,NaN,2,0,3,1
57,564,4,11,61,1,1,1,3.475557e+00,NaN,2,0,1,1
57,565,4,30,11,2,2,1,2.102561e-01,NaN,2,0,1,1
57,566,4,91,46,2,2,1,5.954620e-01,NaN,2,1,2,1
57,567,4,46,67,2,1,0,4.478340e-01,NaN,2,0,1,1
57,592,4,113,2,2,2,1,1.233684e+00,NaN,2,0,3,2
57,593,4,60,45,2,2,1,9.320534e-01,NaN,2,0,2,2
57,594,4,13,48,1,1,1,1.416107e+00,NaN,2,0,1,2
57,595,4,133,6,1,1,1,5.121581e-01,NaN,2,0,3,2
57,596,4,49,26,1,1,1,3.456516e-01,NaN,2,0,2,2
57,597,4,96,59,1,1,1,1.686251e+00,NaN,2,1,2,2
57,598,4,39,14,1,1,1,1.301557e+00,NaN,2,1,1,2
57,599,4,104,42,2,2,1,6.257611e-01,NaN,2,0,3,2
57,600,4,101,38,2,2,1,4.343321e-01,NaN,2,0,3,2
57,601,4,24,53,1,1,1,5.824307e-01,NaN,2,0,1,2
57,602,4,139,21,2,2,1,1.567410e+00,NaN,2,0,3,2
57,603,4,136,7,1,1,1,1.294214e+00,NaN,2,0,3,2
57,604,4,66,30,1,1,1,5.242601e-01,NaN,2,1,2,2
57,605,4,33,32,2,1,0,6.849859e-01,NaN,2,0,1,2
57,606,4,135,64,2,2,1,2.952273e-01,NaN,2,0,3,2
57,607,4,107,12,2,1,0,4.791893e-01,NaN,2,0,3,2
57,608,4,110,22,2,2,1,1.197101e+00,NaN,2,1,3,2
57,609,4,77,23,2,2,1,5.665641e-01,NaN,2,0,2,2
57,610,4,142,9,1,2,0,2.168289e+00,NaN,2,1,3,2
57,611,4,86,18,1,1,1,2.976342e+00,NaN,2,0,2,2
57,612,4,78,37,2,2,1,7.855324e-01,NaN,2,0,2,2
57,613,4,65,47,1,2,0,7.647721e-01,NaN,2,1,2,2
57,614,4,83,58,2,2,1,8.518062e-01,NaN,2,1,2,2
57,615,4,79,43,1,1,1,1.554183e-01,NaN,2,0,2,2
57,640,4,108,10,2,1,0,3.777808e-01,NaN,2,0,3,3
57,641,4,116,15,1,1,1,1.721991e+00,NaN,2,0,3,3
57,642,4,118,56,2,2,1,2.364806e-01,NaN,2,0,3,3
57,643,4,76,51,2,2,1,1.125346e+00,NaN,2,0,2,3
57,644,4,100,28,2,2,1,2.685347e-01,NaN,2,0,3,3
57,645,4,132,60,1,1,1,1.470900e+00,NaN,2,1,3,3
57,646,4,62,8,2,2,1,4.256724e-01,NaN,2,1,2,3
57,647,4,4,72,1,2,0,4.365720e+00,NaN,2,0,1,3
57,648,4,25,52,1,1,1,8.112317e-01,NaN,2,0,1,3
57,649,4,23,71,2,1,0,2.774287e+00,NaN,2,0,1,3
57,650,4,74,16,2,2,1,1.752231e+00,NaN,2,0,2,3
57,651,4,119,19,2,2,1,8.583377e-01,NaN,2,0,3,3
57,652,4,55,34,1,1,1,5.592413e-01,NaN,2,1,2,3
57,653,4,40,39,2,2,1,6.006045e-01,NaN,2,1,1,3
57,654,4,29,66,2,2,1,6.876294e-01,NaN,2,1,1,3
57,655,4,58,13,1,1,1,1.343356e+00,NaN,2,0,2,3
57,656,4,57,1,2,2,1,2.068851e-01,NaN,2,0,2,3
57,657,4,48,29,1,1,1,1.131589e+00,NaN,2,0,1,3
57,658,4,43,31,2,2,1,3.075122e+00,NaN,2,0,1,3
57,659,4,141,40,1,1,1,1.300152e+00,NaN,2,0,3,3
57,660,4,92,24,2,2,1,1.258998e+00,NaN,2,1,2,3
57,661,4,137,17,2,2,1,1.008798e+00,NaN,2,0,3,3
57,662,4,22,41,2,2,1,5.827071e-01,NaN,2,0,1,3
57,663,4,3,57,2,2,1,7.663851e-01,NaN,2,0,1,3
57,664,4,2.676000e+01,51,1,4,0,3.246416e-01,1,1,0,1.200000e+00,1
57,665,4,5.146000e+01,67,2,2,1,1.200100e+00,1,1,0,2.100000e+00,1
57,666,4,3.878000e+01,37,1,1,1,1.527488e+00,1,1,0,1.200000e+00,1
57,667,4,7.030000e+01,11,2,1,0,4.800185e-01,1,1,0,2.100000e+00,1
57,668,4,1.121100e+02,61,3,3,1,4.500435e-01,1,1,0,3.100000e+00,1
57,669,4,8.141000e+01,40,2,2,1,2.394536e-01,1,1,0,2.300000e+00,1
57,670,4,1.121100e+02,61,3,3,1,1.263625e+00,2,1,0,3.100000e+00,1
57,671,4,2.808000e+01,10,1,1,1,8.068240e-01,1,1,0,1.300000e+00,1
57,672,4,1.819000e+01,19,1,1,1,9.261017e-01,1,1,0,1.300000e+00,1
57,673,4,5.722000e+01,36,2,2,1,3.636872e-01,1,1,0,2.300000e+00,1
57,674,4,9.750000e+01,70,3,3,1,2.248938e-01,1,1,0,3.200000e+00,1
57,675,4,2.913000e+01,2,1,1,1,4.112446e-01,1,1,0,1.300000e+00,1
57,676,4,3.518000e+01,56,1,1,1,9.608354e-01,1,1,0,1.300000e+00,1
57,677,4,1.037400e+02,16,3,3,1,5.301493e-01,1,1,0,3.200000e+00,1
57,678,4,1.285700e+02,1,3,3,1,2.307201e-01,1,1,0,3.200000e+00,1
57,679,4,1.402200e+02,41,3,3,1,2.254028e-01,1,1,0,3.100000e+00,1
57,680,4,7.426000e+01,20,2,2,1,5.726670e-01,1,1,0,2.300000e+00,1
57,681,4,6.141000e+01,54,2,2,1,1.046133e-01,1,1,0,2.100000e+00,1
57,682,4,7.236000e+01,7,2,2,1,4.466156e-01,1,1,0,2.300000e+00,1
57,683,4,1.037400e+02,16,3,3,1,5.907267e-01,2,1,0,3.200000e+00,1
57,684,4,9.635000e+01,64,2,4,0,1.390444e-01,1,1,0,2.300000e+00,1
57,685,4,32,28,1,1,1,4.776271e-01,1,1,0,1.300000e+00,1
57,686,4,3.275000e+01,33,1,1,1,1.157531e+00,1,1,0,1.200000e+00,1
57,687,4,4.604000e+01,42,1,2,0,1.111516e-01,1,1,0,1.300000e+00,1
57,688,4,9.537000e+01,17,2,3,0,1.738197e-01,1,1,0,2.300000e+00,1
57,689,4,1.402200e+02,41,3,3,1,7.391148e-01,2,1,0,3.100000e+00,1
57,690,4,1.431300e+02,48,3,3,1,5.813238e-01,1,1,0,3.100000e+00,1
57,691,4,1.402200e+02,41,3,3,1,2.755899e-01,3,1,0,3.100000e+00,1
57,692,4,7.236000e+01,7,2,2,1,1.396394e+00,2,1,0,2.300000e+00,1
57,693,4,9.635000e+01,64,2,2,1,5.164511e-01,2,1,0,2.300000e+00,1
57,694,4,8.233000e+01,32,2,2,1,5.899679e-01,1,1,0,2.100000e+00,1
57,695,4,9.438000e+01,69,2,2,1,9.797413e-01,1,1,0,2.300000e+00,1
57,696,4,3.160000e+00,15,1,1,1,5.783879e-01,1,1,0,1.300000e+00,1
57,697,4,1.877000e+01,23,1,1,1,1.040744e+00,1,1,0,1.200000e+00,1
57,698,4,6.531000e+01,25,2,2,1,6.882250e-01,1,1,0,2.300000e+00,1
57,699,4,1.256000e+02,45,3,2,0,9.201929e-02,1,1,0,3.200000e+00,1
57,700,4,1.285700e+02,1,3,3,1,1.174523e+00,2,1,0,3.200000e+00,1
57,701,4,8.939000e+01,21,2,2,1,4.565172e-01,1,1,0,2.300000e+00,1
57,702,4,1.052100e+02,49,3,3,1,9.298187e-01,1,1,0,3.100000e+00,1
57,703,4,1.172300e+02,71,3,3,1,2.582243e-01,1,1,0,3.100000e+00,1
57,704,4,2.913000e+01,2,1,3,0,1.083872e+00,2,1,0,1.300000e+00,1
57,705,4,1.340300e+02,57,3,3,1,1.032223e+00,1,1,0,3.100000e+00,1
57,706,4,1.301500e+02,55,3,3,1,1.410723e-01,1,1,0,3.100000e+00,1
57,707,4,8.141000e+01,40,2,3,0,1.366137e+00,2,1,0,2.300000e+00,1
57,708,4,4.286000e+01,18,1,1,1,1.977549e-01,1,1,0,1.200000e+00,1
57,709,4,1.431300e+02,48,3,3,1,9.721756e-02,2,1,0,3.100000e+00,1
57,710,4,32,28,1,1,1,6.708097e-02,2,1,0,1.300000e+00,1
57,711,4,1.205800e+02,13,3,3,1,7.679995e-01,1,1,0,3.200000e+00,1
57,712,4,9.750000e+01,70,3,3,1,4.099075e-01,2,1,0,3.200000e+00,1
57,713,4,7.426000e+01,20,2,2,1,1.035778e-01,2,1,0,2.300000e+00,1
57,714,4,1.007000e+01,12,1,1,1,1.042502e+00,1,1,0,1.300000e+00,1
57,715,4,4.286000e+01,18,1,1,1,4.073662e-01,2,1,0,1.200000e+00,1
57,716,4,1.037400e+02,16,3,2,0,2.274319e-01,3,1,0,3.200000e+00,1
57,717,4,8.233000e+01,32,2,1,0,6.304206e-01,2,1,0,2.100000e+00,1
57,718,4,2.913000e+01,2,1,3,0,2.681669e-01,3,1,0,1.300000e+00,1
57,719,4,32,28,1,1,1,1.322566e+00,3,1,0,1.300000e+00,1
57,720,4,1.205800e+02,13,3,4,0,1.383537e-01,2,1,0,3.200000e+00,1
57,721,4,6.747000e+01,65,2,2,1,2.604825e-01,1,1,0,2.100000e+00,1
57,722,4,8.939000e+01,21,2,2,1,1.104352e-01,2,1,0,2.300000e+00,1
57,723,4,1.052100e+02,49,3,3,1,1.087351e+00,2,1,0,3.100000e+00,1
57,724,4,1.060400e+02,72,3,2,0,1.944176e-01,1,1,0,3.100000e+00,1
57,725,4,1.172300e+02,71,3,3,1,1.892993e-01,2,1,0,3.100000e+00,1
57,726,4,1.085000e+01,50,1,1,1,8.240241e-01,1,1,0,1.200000e+00,1
57,727,4,5.722000e+01,36,2,2,1,2.956496e-01,2,1,0,2.300000e+00,1
57,728,4,1.701000e+01,38,1,2,0,5.381367e-01,1,1,0,1.300000e+00,1
57,729,4,1.819000e+01,19,1,1,1,3.175394e-01,2,1,0,1.300000e+00,1
57,730,4,1.290500e+02,63,3,3,1,3.861326e-01,1,1,0,3.100000e+00,1
57,731,4,1.007000e+01,12,1,2,0,1.199249e+00,2,1,0,1.300000e+00,1
57,732,4,1.285700e+02,1,3,3,1,2.473432e-01,3,1,0,3.200000e+00,1
57,733,4,7.426000e+01,20,2,2,1,2.955513e-01,3,1,0,2.300000e+00,1
57,734,4,5.235000e+01,5,2,3,0,3.599327e-01,1,1,0,2.100000e+00,1
57,735,4,1.172300e+02,71,3,4,0,3.990561e-01,3,1,0,3.100000e+00,1
57,736,4,7.030000e+01,11,2,2,1,8.390352e-01,2,1,0,2.100000e+00,1
57,737,4,1.094900e+02,26,3,3,1,1.030564e+00,1,1,0,3.200000e+00,1
57,738,4,6.925000e+01,52,2,4,0,4.727562e-01,1,1,0,2.100000e+00,1
57,739,4,9.537000e+01,17,2,2,1,1.041073e-01,2,1,0,2.300000e+00,1
57,740,4,1.152400e+02,53,3,3,1,1.509308e+00,1,1,0,3.100000e+00,1
57,741,4,3.160000e+00,15,1,1,1,1.322113e-01,2,1,0,1.300000e+00,1
57,742,4,2.913000e+01,2,1,3,0,1.006439e+00,4,1,0,1.300000e+00,1
57,743,4,3.275000e+01,33,1,1,1,2.208118e-01,2,1,0,1.200000e+00,1
57,744,4,8.233000e+01,32,2,1,0,2.822216e-01,3,1,0,2.100000e+00,1
57,745,4,1.521000e+01,35,1,1,1,6.751007e-02,1,1,0,1.300000e+00,1
57,746,4,6.531000e+01,25,2,2,1,7.638395e-01,2,1,0,2.300000e+00,1
57,747,4,2.676000e+01,51,1,1,1,4.481854e-01,2,1,0,1.200000e+00,1
57,748,4,3.878000e+01,37,1,4,0,2.074987e-01,2,1,0,1.200000e+00,1
57,749,4,5.722000e+01,36,2,2,1,3.798645e-01,3,1,0,2.300000e+00,1
57,750,4,1.052100e+02,49,3,2,0,2.039228e+00,3,1,0,3.100000e+00,1
57,751,4,7.236000e+01,7,2,2,1,6.236097e-01,3,1,0,2.300000e+00,1
57,752,4,5.722000e+01,36,2,2,1,7.496728e-01,4,1,0,2.300000e+00,1
57,753,4,1.094900e+02,26,3,3,1,1.519510e-01,2,1,0,3.200000e+00,1
57,754,4,1.290500e+02,63,3,3,1,8.924263e-02,2,1,0,3.100000e+00,1
57,755,4,9.750000e+01,70,3,3,1,1.942249e+00,3,1,0,3.200000e+00,1
57,756,4,9.820000e+01,3,3,3,1,2.006091e-01,1,1,0,3.100000e+00,1
57,757,4,1.431300e+02,48,3,3,1,3.151790e-01,3,1,0,3.100000e+00,1
57,758,4,9.635000e+01,64,2,2,1,3.294682e-01,3,1,0,2.300000e+00,1
57,759,4,4.499000e+01,44,1,1,1,2.299912e-01,1,1,0,1.300000e+00,1
57,760,4,1.085000e+01,50,1,1,1,1.496350e+00,2,1,0,1.200000e+00,1
57,761,4,8.533000e+01,6,2,2,1,2.185081e-01,1,1,0,2.300000e+00,1
57,762,4,1.172300e+02,71,3,3,1,3.044800e-01,4,1,0,3.100000e+00,1
57,763,4,5.343000e+01,31,2,2,1,5.397651e-01,1,1,0,2.100000e+00,1
57,764,4,5.343000e+01,31,2,1,0,4.844253e-01,2,1,0,2.100000e+00,1
57,765,4,3.275000e+01,33,1,2,0,1.837686e-01,3,1,0,1.200000e+00,1
57,766,4,5.146000e+01,67,2,2,1,2.414132e+00,2,1,0,2.100000e+00,1
57,767,4,7.426000e+01,20,2,2,1,1.351081e-01,4,1,0,2.300000e+00,1
57,768,4,1.007000e+01,12,1,1,1,1.401437e-01,3,1,0,1.300000e+00,1
57,769,4,8.533000e+01,6,2,2,1,6.925367e-01,2,1,0,2.300000e+00,1
57,770,4,3.518000e+01,56,1,1,1,4.595446e-01,2,1,0,1.300000e+00,1
57,771,4,1.701000e+01,38,1,1,1,2.850936e+00,2,1,0,1.300000e+00,1
57,772,4,7.790000e+00,43,1,1,1,5.368958e-01,1,1,0,1.200000e+00,1
57,773,4,4.604000e+01,42,1,3,0,1.719630e-01,2,1,0,1.300000e+00,1
57,774,4,9.820000e+01,3,3,2,0,5.243509e-02,2,1,0,3.100000e+00,1
57,775,4,3.878000e+01,37,1,4,0,1.020695e+00,3,1,0,1.200000e+00,1
57,776,4,3.518000e+01,56,1,1,1,4.458486e-01,3,1,0,1.300000e+00,1
57,777,4,4.499000e+01,44,1,3,0,1.026867e+00,2,1,0,1.300000e+00,1
57,778,4,4.604000e+01,42,1,1,1,1.595005e-01,3,1,0,1.300000e+00,1
57,779,4,5.343000e+01,31,2,2,1,4.042235e-01,3,1,0,2.100000e+00,1
57,780,4,3.518000e+01,56,1,1,1,2.045098e-01,4,1,0,1.300000e+00,1
57,781,4,3.878000e+01,37,1,2,0,9.168409e-02,4,1,0,1.200000e+00,1
57,782,4,1.152400e+02,53,3,3,1,3.929500e+00,2,1,0,3.100000e+00,1
57,783,4,4.499000e+01,44,1,3,0,2.403641e-01,3,1,0,1.300000e+00,1
57,784,4,5.343000e+01,31,2,4,0,3.045663e-01,4,1,0,2.100000e+00,1
57,785,4,2.676000e+01,51,1,1,1,4.245253e-01,3,1,0,1.200000e+00,1
57,786,4,6.747000e+01,65,2,2,1,4.915289e-01,2,1,0,2.100000e+00,1
57,787,4,5.235000e+01,5,2,4,0,2.342994e-01,2,1,0,2.100000e+00,1
57,788,4,6.141000e+01,54,2,2,1,9.609030e-02,2,1,0,2.100000e+00,1
57,789,4,9.820000e+01,3,3,1,0,5.100250e-01,3,1,0,3.100000e+00,1
57,790,4,8.533000e+01,6,2,2,1,4.021713e-01,3,1,0,2.300000e+00,1
57,791,4,1.701000e+01,38,1,1,1,2.410104e+00,3,1,0,1.300000e+00,1
57,792,4,7.790000e+00,43,1,3,0,3.424551e-01,2,1,0,1.200000e+00,1
57,793,4,7.790000e+00,43,1,1,1,3.097375e-01,3,1,0,1.200000e+00,1
57,794,4,7.236000e+01,7,2,2,1,1.365680e+00,4,1,0,2.300000e+00,1
57,795,4,1.877000e+01,23,1,1,1,1.170041e+00,2,1,0,1.200000e+00,1
57,796,4,2.808000e+01,10,1,1,1,4.072738e-01,2,1,0,1.300000e+00,1
57,797,4,1.094900e+02,26,3,3,1,5.378611e-01,3,1,0,3.200000e+00,1
57,798,4,4.499000e+01,44,1,1,1,1.475233e-01,4,1,0,1.300000e+00,1
57,799,4,9.537000e+01,17,2,2,1,4.382343e-01,3,1,0,2.300000e+00,1
57,800,4,1.340300e+02,57,3,2,0,2.362121e-01,2,1,0,3.100000e+00,1
57,801,4,1.052100e+02,49,3,3,1,1.505520e+00,4,1,0,3.100000e+00,1
57,802,4,1.819000e+01,19,1,1,1,1.390198e-01,3,1,0,1.300000e+00,1
57,803,4,1.340300e+02,57,3,3,1,3.547701e-01,3,1,0,3.100000e+00,1
57,804,4,1.521000e+01,35,1,4,0,2.913561e-01,2,1,0,1.300000e+00,1
57,805,4,1.205800e+02,13,3,3,1,5.108529e-01,3,1,0,3.200000e+00,1
57,806,4,7.790000e+00,43,1,1,1,5.182709e-01,4,1,0,1.200000e+00,1
57,807,4,32,28,1,1,1,2.944080e-01,4,1,0,1.300000e+00,1
57,808,4,4.286000e+01,18,1,1,1,1.742975e+00,3,1,0,1.200000e+00,1
57,809,4,1.301500e+02,55,3,3,1,1.472340e-01,2,1,0,3.100000e+00,1
57,810,4,1.340300e+02,57,3,1,0,3.405022e-01,4,1,0,3.100000e+00,1
57,811,4,1.121100e+02,61,3,3,1,1.727490e-01,3,1,0,3.100000e+00,1
57,812,4,1.060400e+02,72,3,3,1,2.261321e+00,2,1,0,3.100000e+00,1
57,813,4,1.121100e+02,61,3,3,1,1.127358e+00,4,1,0,3.100000e+00,1
57,814,4,6.925000e+01,52,2,2,1,1.294030e+00,2,1,0,2.100000e+00,1
57,815,4,9.820000e+01,3,3,4,0,8.274769e-01,4,1,0,3.100000e+00,1
57,816,4,9.635000e+01,64,2,2,1,9.565440e-02,4,1,0,2.300000e+00,1
57,817,4,3.160000e+00,15,1,2,0,2.865090e-01,3,1,0,1.300000e+00,1
57,818,4,9.438000e+01,69,2,2,1,3.366788e-01,2,1,0,2.300000e+00,1
57,819,4,1.152400e+02,53,3,3,1,4.917038e-01,3,1,0,3.100000e+00,1
57,820,4,7.030000e+01,11,2,2,1,1.637392e-01,3,1,0,2.100000e+00,1
57,821,4,2.676000e+01,51,1,1,1,4.004136e-01,4,1,0,1.200000e+00,1
57,822,4,1.701000e+01,38,1,1,1,5.963471e-01,4,1,0,1.300000e+00,1
57,823,4,1.256000e+02,45,3,3,1,1.923336e-01,2,1,0,3.200000e+00,1
57,824,4,5.448000e+01,29,2,1,0,2.832546e-01,1,1,0,2.100000e+00,1
57,825,4,1.301500e+02,55,3,3,1,1.312167e-01,3,1,0,3.100000e+00,1
57,826,4,5.146000e+01,67,2,1,0,2.240919e-01,3,1,0,2.100000e+00,1
57,827,4,8.233000e+01,32,2,2,1,1.028267e-01,4,1,0,2.100000e+00,1
57,828,4,9.537000e+01,17,2,2,1,2.157422e-01,4,1,0,2.300000e+00,1
57,829,4,4.604000e+01,42,1,1,1,1.003523e+00,4,1,0,1.300000e+00,1
57,830,4,6.141000e+01,54,2,2,1,4.320343e-01,3,1,0,2.100000e+00,1
57,831,4,1.085000e+01,50,1,1,1,2.494217e-01,3,1,0,1.200000e+00,1
57,832,4,8.939000e+01,21,2,2,1,3.777513e-01,3,1,0,2.300000e+00,1
57,833,4,1.290500e+02,63,3,4,0,1.480736e-01,3,1,0,3.100000e+00,1
57,834,4,6.531000e+01,25,2,1,0,3.500667e-01,3,1,0,2.300000e+00,1
57,835,4,1.037400e+02,16,3,3,1,1.238277e+00,4,1,0,3.200000e+00,1
57,836,4,6.925000e+01,52,2,2,1,2.961627e-01,3,1,0,2.100000e+00,1
57,837,4,8.141000e+01,40,2,2,1,5.641296e-01,3,1,0,2.300000e+00,1
57,838,4,1.402200e+02,41,3,3,1,4.935446e-01,4,1,0,3.100000e+00,1
57,839,4,1.085000e+01,50,1,1,1,9.582453e-01,4,1,0,1.200000e+00,1
57,840,4,1.060400e+02,72,3,3,1,1.459554e-01,3,1,0,3.100000e+00,1
57,841,4,5.146000e+01,67,2,2,1,9.906528e-02,4,1,0,2.100000e+00,1
57,842,4,1.007000e+01,12,1,1,1,1.269963e-01,4,1,0,1.300000e+00,1
57,843,4,7.030000e+01,11,2,2,1,1.350109e+00,4,1,0,2.100000e+00,1
57,844,4,9.438000e+01,69,2,2,1,9.091281e-02,3,1,0,2.300000e+00,1
57,845,4,6.925000e+01,52,2,2,1,3.332557e-01,4,1,0,2.100000e+00,1
57,846,4,6.747000e+01,65,2,2,1,2.096041e-01,3,1,0,2.100000e+00,1
57,847,4,3.275000e+01,33,1,1,1,1.210176e-01,4,1,0,1.200000e+00,1
57,848,4,3.160000e+00,15,1,1,1,1.543381e-01,4,1,0,1.300000e+00,1
57,849,4,8.939000e+01,21,2,2,1,2.554329e-01,4,1,0,2.300000e+00,1
57,850,4,6.531000e+01,25,2,2,1,2.277705e-01,4,1,0,2.300000e+00,1
57,851,4,1.285700e+02,1,3,3,1,1.419619e-01,4,1,0,3.200000e+00,1
57,852,4,1.819000e+01,19,1,3,0,3.676930e-01,4,1,0,1.300000e+00,1
57,853,4,1.431300e+02,48,3,3,1,2.295093e-01,4,1,0,3.100000e+00,1
57,854,4,1.877000e+01,23,1,1,1,7.307047e-01,3,1,0,1.200000e+00,1
57,855,4,1.152400e+02,53,3,3,1,2.286247e+00,4,1,0,3.100000e+00,1
57,856,4,5.448000e+01,29,2,2,1,1.551877e-01,2,1,0,2.100000e+00,1
57,857,4,1.301500e+02,55,3,3,1,1.862884e+00,4,1,0,3.100000e+00,1
57,858,4,1.290500e+02,63,3,3,1,6.049050e-01,4,1,0,3.100000e+00,1
57,859,4,2.808000e+01,10,1,3,0,3.754541e-01,3,1,0,1.300000e+00,1
57,860,4,1.521000e+01,35,1,1,1,3.558861e-01,3,1,0,1.300000e+00,1
57,861,4,5.448000e+01,29,2,2,1,1.284134e+00,3,1,0,2.100000e+00,1
57,862,4,5.235000e+01,5,2,2,1,1.130837e+00,3,1,0,2.100000e+00,1
57,863,4,1.877000e+01,23,1,1,1,9.887790e-01,4,1,0,1.200000e+00,1
57,864,4,1.094900e+02,26,3,3,1,6.271532e-01,4,1,0,3.200000e+00,1
57,865,4,4.286000e+01,18,1,1,1,5.660381e-01,4,1,0,1.200000e+00,1
57,866,4,2.808000e+01,10,1,3,0,1.403650e+00,4,1,0,1.300000e+00,1
57,867,4,1.205800e+02,13,3,3,1,1.631149e-01,4,1,0,3.200000e+00,1
57,868,4,8.533000e+01,6,2,2,1,3.076895e-01,4,1,0,2.300000e+00,1
57,869,4,1.256000e+02,45,3,4,0,2.772769e+00,3,1,0,3.200000e+00,1
57,870,4,9.750000e+01,70,3,2,0,7.614925e-01,4,1,0,3.200000e+00,1
57,871,4,5.448000e+01,29,2,2,1,3.650796e-01,4,1,0,2.100000e+00,1
57,872,4,1.256000e+02,45,3,1,0,1.642610e-01,4,1,0,3.200000e+00,1
57,873,4,6.141000e+01,54,2,2,1,4.554251e-01,4,1,0,2.100000e+00,1
57,874,4,6.747000e+01,65,2,2,1,8.994716e-01,4,1,0,2.100000e+00,1
57,875,4,9.438000e+01,69,2,2,1,5.824206e-01,4,1,0,2.300000e+00,1
57,876,4,8.141000e+01,40,2,3,0,7.193266e-01,4,1,0,2.300000e+00,1
57,877,4,5.235000e+01,5,2,2,1,1.092053e+00,4,1,0,2.100000e+00,1
57,878,4,1.521000e+01,35,1,4,0,2.725505e-01,4,1,0,1.300000e+00,1
57,879,4,1.060400e+02,72,3,3,1,2.159565e-01,4,1,0,3.100000e+00,1
57,880,6,43,31,2,2,1,5.789537e-01,NaN,2,0,1,1
57,881,6,135,64,1,1,1,1.099794e+00,NaN,2,0,3,1
57,882,6,132,60,1,1,1,1.906016e+00,NaN,2,1,3,1
57,883,6,86,18,1,1,1,2.006756e+00,NaN,2,0,2,1
57,884,6,58,13,2,2,1,3.294324e-01,NaN,2,0,2,1
57,885,6,5,63,2,2,1,3.028553e-01,NaN,2,0,1,1
57,886,6,76,51,1,2,0,4.003250e-01,NaN,2,0,2,1
57,887,6,68,62,1,1,1,4.797673e-01,NaN,2,1,2,1
57,888,6,6,4,1,1,1,2.885223e+00,NaN,2,1,1,1
57,889,6,24,53,1,1,1,6.118334e-01,NaN,2,0,1,1
57,890,6,126,20,2,2,1,2.458699e-01,NaN,2,0,3,1
57,891,6,23,71,2,2,1,2.116499e-01,NaN,2,0,1,1
57,892,6,20,3,2,2,1,1.319090e-01,NaN,2,0,1,1
57,893,6,25,52,1,1,1,1.871228e-01,NaN,2,0,1,1
57,894,6,48,29,2,2,1,1.799160e-01,NaN,2,0,1,1
57,895,6,29,66,1,1,1,3.589244e-01,NaN,2,1,1,1
57,896,6,39,14,2,2,1,2.405364e-01,NaN,2,1,1,1
57,897,6,92,24,2,2,1,1.301940e+00,NaN,2,1,2,1
57,898,6,91,46,2,2,1,8.479679e-01,NaN,2,1,2,1
57,899,6,85,50,1,1,1,3.418573e-01,NaN,2,0,2,1
57,900,6,136,7,2,2,1,7.019476e-01,NaN,2,0,3,1
57,901,6,63,27,2,2,1,5.216915e-01,NaN,2,1,2,1
57,902,6,41,54,2,2,1,1.151618e+00,NaN,2,0,1,1
57,903,6,104,42,2,2,1,7.789529e-01,NaN,2,0,3,1
57,904,6,100,28,1,1,1,6.580821e-01,NaN,2,0,3,1
57,905,6,119,19,2,2,1,4.785054e-01,NaN,2,0,3,1
57,906,6,77,23,2,2,1,1.129218e+00,NaN,2,0,2,1
57,907,6,57,1,1,1,1,7.183417e-01,NaN,2,0,2,1
57,908,6,65,47,1,1,1,4.223856e-01,NaN,2,1,2,1
57,909,6,113,2,1,1,1,1.203005e-01,NaN,2,0,3,1
57,910,6,50,70,2,2,1,2.052159e+00,NaN,2,0,2,1
57,911,6,66,30,1,1,1,2.976919e-01,NaN,2,1,2,1
57,912,6,118,56,1,1,1,1.478047e+00,NaN,2,0,3,1
57,913,6,78,37,2,2,1,8.860567e-01,NaN,2,0,2,1
57,914,6,62,8,1,1,1,5.438930e-01,NaN,2,1,2,1
57,915,6,11,61,1,1,1,2.251635e-01,NaN,2,0,1,1
57,916,6,15,55,2,1,0,1.007706e+00,NaN,2,0,1,1
57,917,6,99,44,1,1,1,5.709195e-01,NaN,2,0,3,1
57,918,6,46,67,1,2,0,2.028808e+00,NaN,2,0,1,1
57,919,6,110,22,1,2,0,2.786492e-01,NaN,2,1,3,1
57,920,6,122,36,2,2,1,2.752359e+00,NaN,2,0,3,1
57,921,6,49,26,1,2,0,3.044331e-01,NaN,2,0,2,1
57,922,6,75,33,1,1,1,1.021022e+00,NaN,2,0,2,1
57,923,6,96,59,2,2,1,2.314826e-01,NaN,2,1,2,1
57,924,6,35,5,1,1,1,2.370792e-01,NaN,2,0,1,1
57,925,6,30,11,1,2,0,7.569128e-01,NaN,2,0,1,1
57,926,6,139,21,1,1,1,9.768130e-01,NaN,2,0,3,1
57,927,6,116,15,2,2,1,2.324766e-01,NaN,2,0,3,1
57,928,6,121,35,2,1,0,1.361658e+00,NaN,2,0,3,1
57,929,6,60,45,1,1,1,2.112313e-01,NaN,2,0,2,1
57,930,6,47,65,1,1,1,4.043614e+00,NaN,2,0,1,1
57,931,6,21,49,1,1,1,2.298266e-01,NaN,2,0,1,1
57,932,6,81,68,1,1,1,1.410866e+00,NaN,2,1,2,1
57,933,6,131,25,2,2,1,1.968192e+00,NaN,2,0,3,1
57,934,6,133,6,2,2,1,3.970249e-01,NaN,2,0,3,1
57,935,6,40,39,2,2,1,2.743850e-01,NaN,2,1,1,1
57,936,6,3,57,2,2,1,1.536782e-01,NaN,2,0,1,1
57,937,6,137,17,1,1,1,2.310815e-01,NaN,2,0,3,1
57,938,6,101,38,2,2,1,1.168070e+00,NaN,2,0,3,1
57,939,6,142,9,1,1,1,6.535595e-01,NaN,2,1,3,1
57,940,6,83,58,1,1,1,8.552215e-01,NaN,2,1,2,1
57,941,6,4,72,2,1,0,2.922298e-01,NaN,2,0,1,1
57,942,6,33,32,2,2,1,2.517419e+00,NaN,2,0,1,1
57,943,6,22,41,2,2,1,1.031629e+00,NaN,2,0,1,1
57,944,6,141,40,1,1,1,2.419239e-01,NaN,2,0,3,1
57,945,6,55,34,2,2,1,1.032016e+00,NaN,2,1,2,1
57,946,6,138,69,1,1,1,2.294405e-01,NaN,2,0,3,1
57,947,6,79,43,1,2,0,2.794831e-01,NaN,2,0,2,1
57,948,6,108,10,1,2,0,1.780219e+00,NaN,2,0,3,1
57,949,6,107,12,2,1,0,2.846307e+00,NaN,2,0,3,1
57,950,6,74,16,1,1,1,9.782177e-01,NaN,2,0,2,1
57,951,6,13,48,1,1,1,1.625377e-01,NaN,2,0,1,1
57,952,6,54,29,2,2,1,1.581803e-01,NaN,1,0,2,1
57,953,6,28,2,1,1,1,2.609417e-01,NaN,1,0,1,1
57,954,6,123,62,2,1,0,3.978181e-01,NaN,1,1,3,1
57,955,6,59,60,2,2,1,1.431198e+00,NaN,1,1,2,1
57,956,6,125,45,1,1,1,4.629676e-01,NaN,1,0,3,1
57,957,6,102,47,1,2,0,1.944763e-01,NaN,1,1,3,1
57,958,6,73,20,2,2,1,2.570421e+00,NaN,1,0,2,1
57,959,6,87,9,2,2,1,2.271324e-01,NaN,1,1,2,1
57,960,6,44,44,1,1,1,9.516372e-01,NaN,1,0,1,1
57,961,6,80,40,1,1,1,4.969043e-01,NaN,1,0,2,1
57,962,6,98,3,1,1,1,6.616043e-01,NaN,1,0,3,1
57,963,6,1,68,2,2,1,3.684487e-01,NaN,1,1,1,1
57,964,6,90,14,2,2,1,3.365165e+00,NaN,1,1,2,1
57,965,6,120,13,2,1,0,3.396301e-01,NaN,1,0,3,1
57,966,6,14,35,2,2,1,9.429855e-01,NaN,1,0,1,1
57,967,6,38,37,2,2,1,4.303790e-01,NaN,1,0,1,1
57,968,6,71,7,1,1,1,4.016485e-01,NaN,1,0,2,1
57,969,6,61,54,2,2,1,1.103915e+00,NaN,1,0,2,1
57,970,6,36,59,2,2,1,2.891899e+00,NaN,1,1,1,1
57,971,6,37,22,2,2,1,3.829018e-01,NaN,1,1,1,1
57,972,6,105,49,1,1,1,1.872227e-01,NaN,1,0,3,1
57,973,6,18,23,2,2,1,9.344498e-01,NaN,1,0,1,1
57,974,6,9,12,1,1,1,1.627659e+00,NaN,1,0,1,1
57,975,6,12,58,1,1,1,1.795168e+00,NaN,1,1,1,1
57,976,6,130,55,2,2,1,2.033091e-01,NaN,1,0,3,1
57,977,6,27,10,1,2,0,1.305426e+00,NaN,1,0,1,1
57,978,6,93,69,1,1,1,7.015743e-01,NaN,1,0,2,1
57,979,6,19,24,2,2,1,3.275900e-01,NaN,1,1,1,1
57,980,6,7,43,2,2,1,1.775665e+00,NaN,1,0,1,1
57,981,6,144,30,2,2,1,1.682282e-01,NaN,1,1,3,1
57,982,6,26,51,2,2,1,8.875539e-01,NaN,1,0,1,1
57,983,6,117,71,1,1,1,3.074932e-01,NaN,1,0,3,1
57,984,6,106,72,2,2,1,4.282398e-01,NaN,1,0,3,1
57,985,6,67,65,1,1,1,3.842155e-01,NaN,1,0,2,1
57,986,6,82,32,1,1,1,1.101954e+00,NaN,1,0,2,1
57,987,6,94,17,1,1,1,3.679854e-01,NaN,1,0,2,1
57,988,6,140,41,2,2,1,5.809014e-01,NaN,1,0,3,1
57,989,6,143,48,2,2,1,4.009325e-01,NaN,1,0,3,1
57,990,6,134,57,2,2,1,4.954566e-01,NaN,1,0,3,1
57,991,6,70,11,2,2,1,9.308005e-02,NaN,1,0,2,1
57,992,6,89,66,1,1,1,8.844419e-01,NaN,1,1,2,1
57,993,6,72,39,2,2,1,1.763656e-01,NaN,1,1,2,1
57,994,6,128,1,1,1,1,1.034381e+00,NaN,1,0,3,1
57,995,6,32,33,1,1,1,5.984408e-01,NaN,1,0,1,1
57,996,6,88,21,2,2,1,1.427687e+00,NaN,1,0,2,1
57,997,6,69,52,2,1,0,1.924154e-01,NaN,1,0,2,1
57,998,6,8,46,1,1,1,1.362756e+00,NaN,1,1,1,1
57,999,6,97,70,1,1,1,1.613056e+00,NaN,1,0,3,1
57,1000,6,114,27,2,2,1,3.901950e-01,NaN,1,1,3,1
57,1001,6,34,56,1,1,1,7.351693e-01,NaN,1,0,1,1
57,1002,6,115,53,1,2,0,6.503501e-01,NaN,1,0,3,1
57,1003,6,53,31,2,2,1,7.244698e-01,NaN,1,0,2,1
57,1004,6,64,25,2,2,1,1.428755e+00,NaN,1,0,2,1
57,1005,6,103,16,2,1,0,1.533113e+00,NaN,1,0,3,1
57,1006,6,127,4,2,2,1,6.152163e-01,NaN,1,1,3,1
57,1007,6,56,36,2,2,1,6.525101e-01,NaN,1,0,2,1
57,1008,6,95,64,2,2,1,5.329853e-01,NaN,1,0,2,1
57,1009,6,31,28,1,1,1,1.063951e+00,NaN,1,0,1,1
57,1010,6,124,34,2,2,1,5.152798e-01,NaN,1,1,3,1
57,1011,6,17,19,2,2,1,1.081427e+00,NaN,1,0,1,1
57,1012,6,112,61,2,2,1,1.976979e-01,NaN,1,0,3,1
57,1013,6,109,26,1,1,1,4.115642e-01,NaN,1,0,3,1
57,1014,6,111,8,1,1,1,4.844922e+00,NaN,1,1,3,1
57,1015,6,10,50,2,2,1,2.784379e-01,NaN,1,0,1,1
57,1016,6,129,63,2,2,1,4.550925e-01,NaN,1,0,3,1
57,1017,6,2,15,2,2,1,6.596645e-01,NaN,1,0,1,1
57,1018,6,42,18,1,1,1,1.561035e+00,NaN,1,0,1,1
57,1019,6,84,6,1,1,1,2.996632e+00,NaN,1,0,2,1
57,1020,6,45,42,1,2,0,4.907588e-01,NaN,1,0,1,1
57,1021,6,16,38,1,1,1,3.701818e-01,NaN,1,0,1,1
57,1022,6,52,5,1,1,1,8.953274e-01,NaN,1,0,2,1
57,1023,6,51,67,1,2,0,4.433274e-01,NaN,1,0,2,1
