Subject,Trial,Cond,ImageNum,CueNum,Correct,Resp,Accuracy,RT,CueRep,ImageType,Baseline,Category,Block
60,1,1,96,NaN,NaN,1,NaN,2.128660e+00,NaN,0,1,2,1
60,2,1,85,NaN,NaN,1,NaN,3.303675e-01,NaN,2,1,2,1
60,3,1,72,NaN,NaN,1,NaN,1.670882e+00,NaN,0,0,2,1
60,4,1,85,NaN,NaN,1,NaN,7.914588e-01,NaN,0,1,2,1
60,5,1,115,NaN,NaN,2,NaN,2.322090e+00,NaN,1,1,3,1
60,6,1,3,NaN,NaN,1,NaN,1.988997e-01,NaN,2,0,1,1
60,7,1,27,NaN,NaN,1,NaN,5.576918e-01,NaN,2,0,1,1
60,8,1,137,NaN,NaN,1,NaN,6.520713e+00,NaN,1,0,3,1
60,9,1,78,NaN,NaN,1,NaN,1.287860e+00,NaN,1,0,2,1
60,10,1,64,NaN,NaN,1,NaN,1.191477e+00,NaN,2,0,2,1
60,11,1,39,NaN,NaN,1,NaN,2.075767e+00,NaN,0,0,1,1
60,12,1,120,NaN,NaN,1,NaN,6.467012e-01,NaN,0,1,3,1
60,13,1,130,NaN,NaN,1,NaN,2.548817e-01,NaN,2,0,3,1
60,14,1,6,NaN,NaN,1,NaN,8.818583e-01,NaN,0,1,1,1
60,15,1,104,NaN,NaN,1,NaN,4.977833e-01,NaN,1,0,3,1
60,16,1,105,NaN,NaN,1,NaN,2.772432e-01,NaN,0,0,3,1
60,17,1,64,NaN,NaN,2,NaN,4.995440e-01,NaN,0,0,2,1
60,18,1,58,NaN,NaN,1,NaN,2.677049e+00,NaN,1,0,2,1
60,19,1,94,NaN,NaN,1,NaN,5.211115e-01,NaN,1,1,2,1
60,20,1,25,NaN,NaN,1,NaN,2.312003e-01,NaN,0,0,1,1
60,21,1,124,NaN,NaN,1,NaN,1.536799e-01,NaN,0,0,3,1
60,22,1,69,NaN,NaN,2,NaN,2.114898e-01,NaN,0,0,2,1
60,23,1,63,NaN,NaN,2,NaN,6.248514e-01,NaN,1,0,2,1
60,24,1,45,NaN,NaN,1,NaN,1.711911e+00,NaN,1,0,1,1
60,25,1,78,NaN,NaN,1,NaN,3.671333e+00,NaN,0,0,2,1
60,26,1,122,NaN,NaN,1,NaN,5.601236e-01,NaN,1,1,3,1
60,27,1,7,NaN,NaN,1,NaN,2.867146e+00,NaN,0,0,1,1
60,28,1,22,NaN,NaN,1,NaN,4.740137e-01,NaN,2,1,1,1
60,29,1,131,NaN,NaN,1,NaN,8.081784e-01,NaN,0,1,3,1
60,30,1,95,NaN,NaN,1,NaN,4.054134e+00,NaN,2,0,2,1
60,31,1,112,NaN,NaN,1,NaN,5.462403e-01,NaN,0,0,3,1
60,32,1,118,NaN,NaN,1,NaN,1.716285e+00,NaN,0,0,3,1
60,33,1,143,NaN,NaN,1,NaN,1.000400e+00,NaN,0,0,3,1
60,34,1,125,NaN,NaN,1,NaN,1.348204e+00,NaN,0,0,3,1
60,35,1,140,NaN,NaN,1,NaN,7.345245e-01,NaN,1,0,3,1
60,36,1,57,NaN,NaN,1,NaN,9.379226e-01,NaN,1,1,2,1
60,37,1,126,NaN,NaN,1,NaN,7.336675e-01,NaN,0,1,3,1
60,38,1,53,NaN,NaN,1,NaN,2.352355e-01,NaN,0,1,2,1
60,39,1,103,NaN,NaN,1,NaN,2.814902e-01,NaN,1,1,3,1
60,40,1,135,NaN,NaN,1,NaN,1.796544e-01,NaN,0,0,3,1
60,41,1,120,NaN,NaN,1,NaN,4.591511e-01,NaN,2,1,3,1
60,42,1,108,NaN,NaN,1,NaN,6.898151e-01,NaN,0,0,3,1
60,43,1,30,NaN,NaN,1,NaN,5.107474e-01,NaN,0,0,1,1
60,44,1,67,NaN,NaN,1,NaN,1.897624e+00,NaN,2,0,2,1
60,45,1,113,NaN,NaN,1,NaN,6.534498e+00,NaN,0,0,3,1
60,46,1,53,NaN,NaN,1,NaN,2.115319e+00,NaN,1,1,2,1
60,47,1,65,NaN,NaN,1,NaN,1.084449e+00,NaN,0,0,2,1
60,48,1,46,NaN,NaN,1,NaN,3.181166e-01,NaN,0,0,1,1
60,49,1,79,NaN,NaN,1,NaN,4.969334e-01,NaN,0,0,2,1
60,50,1,20,NaN,NaN,1,NaN,4.437034e-01,NaN,0,0,1,1
60,51,1,113,NaN,NaN,2,NaN,1.882670e+00,NaN,1,0,3,1
60,52,1,125,NaN,NaN,1,NaN,4.710147e-01,NaN,1,0,3,1
60,53,1,73,NaN,NaN,1,NaN,2.491747e+00,NaN,0,0,2,1
60,54,1,18,NaN,NaN,1,NaN,1.131938e+00,NaN,0,1,1,1
60,55,1,34,NaN,NaN,1,NaN,6.834564e-01,NaN,1,0,1,1
60,56,1,47,NaN,NaN,2,NaN,2.164966e-01,NaN,0,0,1,1
60,57,1,15,NaN,NaN,1,NaN,3.387514e-01,NaN,0,0,1,1
60,58,1,51,NaN,NaN,1,NaN,1.896791e+00,NaN,2,0,2,1
60,59,1,112,NaN,NaN,1,NaN,1.671298e+00,NaN,1,0,3,1
60,60,1,73,NaN,NaN,1,NaN,9.727342e-01,NaN,1,0,2,1
60,61,1,6,NaN,NaN,1,NaN,1.928857e+00,NaN,1,1,1,1
60,62,1,13,NaN,NaN,1,NaN,2.987381e+00,NaN,1,0,1,1
60,63,1,29,NaN,NaN,2,NaN,6.328257e-01,NaN,0,0,1,1
60,64,1,82,NaN,NaN,1,NaN,4.382448e-01,NaN,0,0,2,1
60,65,1,60,NaN,NaN,1,NaN,1.244062e+00,NaN,2,0,2,1
60,66,1,57,NaN,NaN,1,NaN,2.785910e+00,NaN,0,1,2,1
60,67,1,89,NaN,NaN,1,NaN,1.353604e+00,NaN,0,0,2,1
60,68,1,100,NaN,NaN,1,NaN,6.842938e-01,NaN,1,0,3,1
60,69,1,13,NaN,NaN,1,NaN,5.373352e-01,NaN,0,0,1,1
60,70,1,98,NaN,NaN,1,NaN,7.300936e-01,NaN,1,0,3,1
60,71,1,50,NaN,NaN,1,NaN,6.551189e-01,NaN,1,0,2,1
60,72,1,60,NaN,NaN,1,NaN,2.201776e+00,NaN,0,0,2,1
60,73,1,109,NaN,NaN,1,NaN,3.686903e+00,NaN,0,1,3,1
60,74,1,23,NaN,NaN,1,NaN,1.221053e+00,NaN,2,0,1,1
60,75,1,127,NaN,NaN,1,NaN,1.446662e+00,NaN,0,1,3,1
60,76,1,76,NaN,NaN,1,NaN,3.926256e-01,NaN,2,1,2,1
60,77,1,29,NaN,NaN,1,NaN,4.932909e-01,NaN,2,0,1,1
60,78,1,80,NaN,NaN,2,NaN,2.323050e-01,NaN,0,0,2,1
60,79,1,119,NaN,NaN,1,NaN,9.897580e-01,NaN,2,0,3,1
60,80,1,126,NaN,NaN,1,NaN,6.666064e-02,NaN,2,1,3,1
60,81,1,105,NaN,NaN,1,NaN,1.109477e+00,NaN,1,0,3,1
60,82,1,52,NaN,NaN,1,NaN,5.858762e-01,NaN,1,1,2,1
60,83,1,143,NaN,NaN,1,NaN,1.292661e+00,NaN,1,0,3,1
60,84,1,19,NaN,NaN,1,NaN,7.927323e-01,NaN,2,0,1,1
60,85,1,103,NaN,NaN,1,NaN,4.032135e-01,NaN,0,1,3,1
60,86,1,19,NaN,NaN,1,NaN,1.522413e+00,NaN,0,0,1,1
60,87,1,116,NaN,NaN,1,NaN,5.208856e-01,NaN,2,0,3,1
60,88,1,97,NaN,NaN,1,NaN,3.823181e-01,NaN,1,1,3,1
60,89,1,17,NaN,NaN,1,NaN,1.423225e+00,NaN,2,0,1,1
60,90,1,98,NaN,NaN,1,NaN,1.545534e+00,NaN,0,0,3,1
60,91,1,138,NaN,NaN,1,NaN,4.184919e+00,NaN,2,0,3,1
60,92,1,106,NaN,NaN,1,NaN,9.673579e-01,NaN,2,0,3,1
60,93,1,71,NaN,NaN,1,NaN,6.503871e-01,NaN,1,1,2,1
60,94,1,40,NaN,NaN,1,NaN,2.222269e+00,NaN,0,1,1,1
60,95,1,81,NaN,NaN,1,NaN,5.346106e-01,NaN,1,1,2,1
60,96,1,107,NaN,NaN,1,NaN,1.423280e-01,NaN,0,1,3,1
60,97,1,107,NaN,NaN,1,NaN,1.192818e+00,NaN,1,1,3,1
60,98,1,44,NaN,NaN,1,NaN,3.816278e-01,NaN,0,0,1,1
60,99,1,121,NaN,NaN,1,NaN,3.367713e-01,NaN,2,1,3,1
60,100,1,77,NaN,NaN,1,NaN,8.333155e-01,NaN,0,1,2,1
60,101,1,37,NaN,NaN,1,NaN,1.734105e+00,NaN,2,0,1,1
60,102,1,136,NaN,NaN,1,NaN,3.203203e-01,NaN,0,1,3,1
60,103,1,40,NaN,NaN,1,NaN,1.016059e+00,NaN,1,1,1,1
60,104,1,129,NaN,NaN,1,NaN,8.461228e-01,NaN,1,0,3,1
60,105,1,90,NaN,NaN,1,NaN,1.672612e+00,NaN,0,0,2,1
60,106,1,95,NaN,NaN,1,NaN,4.505985e-01,NaN,0,0,2,1
60,107,1,23,NaN,NaN,1,NaN,3.221443e-01,NaN,0,0,1,1
60,108,1,58,NaN,NaN,1,NaN,3.042394e-01,NaN,0,0,2,1
60,109,1,51,NaN,NaN,1,NaN,9.803166e-01,NaN,0,0,2,1
60,110,1,56,NaN,NaN,1,NaN,2.299036e+00,NaN,0,0,2,1
60,111,1,35,NaN,NaN,1,NaN,2.587679e-01,NaN,0,0,1,1
60,112,1,32,NaN,NaN,1,NaN,6.829774e-01,NaN,0,0,1,1
60,113,1,8,NaN,NaN,2,NaN,5.699344e-01,NaN,0,0,1,1
60,114,1,144,NaN,NaN,1,NaN,8.138614e-01,NaN,1,0,3,1
60,115,1,49,NaN,NaN,2,NaN,4.657942e-01,NaN,0,0,2,1
60,116,1,12,NaN,NaN,1,NaN,1.971728e-01,NaN,1,0,1,1
60,117,1,133,NaN,NaN,2,NaN,6.398499e-01,NaN,0,0,3,1
60,118,1,93,NaN,NaN,1,NaN,3.044037e-01,NaN,2,0,2,1
60,119,1,83,NaN,NaN,1,NaN,5.531664e-01,NaN,1,0,2,1
60,120,1,22,NaN,NaN,1,NaN,4.056004e-01,NaN,0,1,1,1
60,121,1,70,NaN,NaN,1,NaN,1.854553e+00,NaN,0,0,2,1
60,122,1,109,NaN,NaN,1,NaN,6.634561e-01,NaN,2,1,3,1
60,123,1,1,NaN,NaN,1,NaN,1.973534e+00,NaN,0,0,1,1
60,124,1,67,NaN,NaN,1,NaN,1.105202e+00,NaN,0,0,2,1
60,125,1,27,NaN,NaN,1,NaN,9.732051e-01,NaN,0,0,1,1
60,126,1,132,NaN,NaN,1,NaN,3.843339e-01,NaN,2,1,3,1
60,127,1,37,NaN,NaN,1,NaN,5.360217e+00,NaN,0,0,1,1
60,128,1,82,NaN,NaN,1,NaN,4.757077e-01,NaN,2,0,2,1
60,129,1,39,NaN,NaN,1,NaN,5.492165e-01,NaN,1,0,1,1
60,130,1,44,NaN,NaN,1,NaN,3.351294e-01,NaN,1,0,1,1
60,131,1,38,NaN,NaN,1,NaN,6.802201e-01,NaN,0,0,1,1
60,132,1,2,NaN,NaN,1,NaN,2.059348e+00,NaN,0,0,1,1
60,133,1,7,NaN,NaN,1,NaN,1.345065e+00,NaN,1,0,1,1
60,134,1,66,NaN,NaN,1,NaN,8.203208e-01,NaN,0,0,2,1
60,135,1,133,NaN,NaN,1,NaN,1.730895e+00,NaN,2,0,3,1
60,136,1,63,NaN,NaN,1,NaN,2.475582e+00,NaN,0,0,2,1
60,137,1,134,NaN,NaN,1,NaN,2.657600e+00,NaN,2,0,3,1
60,138,1,41,NaN,NaN,1,NaN,1.196002e+00,NaN,0,0,1,1
60,139,1,52,NaN,NaN,1,NaN,3.827748e-01,NaN,0,1,2,1
60,140,1,33,NaN,NaN,1,NaN,3.995443e-01,NaN,0,0,1,1
60,141,1,21,NaN,NaN,1,NaN,5.516311e-01,NaN,0,0,1,1
60,142,1,71,NaN,NaN,1,NaN,1.167267e+00,NaN,0,1,2,1
60,143,1,42,NaN,NaN,1,NaN,3.000460e-01,NaN,0,0,1,1
60,144,1,55,NaN,NaN,1,NaN,1.071495e+00,NaN,1,1,2,1
60,145,1,121,NaN,NaN,1,NaN,1.202822e+00,NaN,0,1,3,1
60,146,1,114,NaN,NaN,1,NaN,5.493248e-01,NaN,0,0,3,1
60,147,1,74,NaN,NaN,1,NaN,9.537945e-01,NaN,1,0,2,1
60,148,1,127,NaN,NaN,1,NaN,1.974278e-01,NaN,2,1,3,1
60,149,1,86,NaN,NaN,1,NaN,7.405838e-01,NaN,0,0,2,1
60,150,1,54,NaN,NaN,1,NaN,1.383029e-01,NaN,1,0,2,1
60,151,1,101,NaN,NaN,2,NaN,3.772139e-01,NaN,1,0,3,1
60,152,1,100,NaN,NaN,1,NaN,2.844775e-01,NaN,0,0,3,1
60,153,1,108,NaN,NaN,1,NaN,6.461368e-01,NaN,1,0,3,1
60,154,1,97,NaN,NaN,1,NaN,1.460983e+00,NaN,0,1,3,1
60,155,1,5,NaN,NaN,1,NaN,1.121934e-01,NaN,2,1,1,1
60,156,1,86,NaN,NaN,1,NaN,3.424137e-01,NaN,2,0,2,1
60,157,1,12,NaN,NaN,1,NaN,5.723648e-01,NaN,0,0,1,1
60,158,1,144,NaN,NaN,1,NaN,4.580689e-01,NaN,0,0,3,1
60,159,1,9,NaN,NaN,1,NaN,7.436564e-01,NaN,2,0,1,1
60,160,1,32,NaN,NaN,1,NaN,6.940796e-01,NaN,2,0,1,1
60,161,1,61,NaN,NaN,1,NaN,1.487610e+00,NaN,0,0,2,1
60,162,1,30,NaN,NaN,1,NaN,1.635771e-01,NaN,1,0,1,1
60,163,1,142,NaN,NaN,1,NaN,5.134868e-01,NaN,2,0,3,1
60,164,1,119,NaN,NaN,1,NaN,7.260310e-01,NaN,0,0,3,1
60,165,1,124,NaN,NaN,1,NaN,1.130619e+00,NaN,1,0,3,1
60,166,1,15,NaN,NaN,1,NaN,9.588768e-01,NaN,1,0,1,1
60,167,1,91,NaN,NaN,1,NaN,1.529229e+00,NaN,2,0,2,1
60,168,1,43,NaN,NaN,1,NaN,4.934759e-01,NaN,1,0,1,1
60,169,1,138,NaN,NaN,1,NaN,5.906613e-01,NaN,0,0,3,1
60,170,1,10,NaN,NaN,2,NaN,9.235924e-01,NaN,0,0,1,1
60,171,1,62,NaN,NaN,1,NaN,5.355083e-01,NaN,2,0,2,1
60,172,1,111,NaN,NaN,1,NaN,9.771048e-01,NaN,0,0,3,1
60,173,1,90,NaN,NaN,2,NaN,5.603338e-01,NaN,2,0,2,1
60,174,1,47,NaN,NaN,2,NaN,1.519753e+00,NaN,2,0,1,1
60,175,1,92,NaN,NaN,1,NaN,1.063129e+00,NaN,0,0,2,1
60,176,1,87,NaN,NaN,1,NaN,5.450971e-01,NaN,2,0,2,1
60,177,1,36,NaN,NaN,2,NaN,1.043545e+00,NaN,2,1,1,1
60,178,1,130,NaN,NaN,1,NaN,2.396823e+00,NaN,0,0,3,1
60,179,1,59,NaN,NaN,1,NaN,3.243394e+00,NaN,2,0,2,1
60,180,1,35,NaN,NaN,1,NaN,4.609490e-01,NaN,2,0,1,1
60,181,1,99,NaN,NaN,1,NaN,6.173616e-01,NaN,0,0,3,1
60,182,1,111,NaN,NaN,2,NaN,3.400990e-01,NaN,1,0,3,1
60,183,1,54,NaN,NaN,1,NaN,3.242535e-01,NaN,0,0,2,1
60,184,1,123,NaN,NaN,1,NaN,6.858603e-01,NaN,2,0,3,1
60,185,1,48,NaN,NaN,1,NaN,1.123011e+00,NaN,0,0,1,1
60,186,1,110,NaN,NaN,1,NaN,2.698666e+00,NaN,1,1,3,1
60,187,1,28,NaN,NaN,1,NaN,4.995483e-01,NaN,1,0,1,1
60,188,1,62,NaN,NaN,1,NaN,2.137504e+00,NaN,0,0,2,1
60,189,1,38,NaN,NaN,1,NaN,4.455126e-01,NaN,1,0,1,1
60,190,1,128,NaN,NaN,1,NaN,5.217268e+00,NaN,0,0,3,1
60,191,1,1,NaN,NaN,1,NaN,4.584439e-01,NaN,1,0,1,1
60,192,1,88,NaN,NaN,1,NaN,3.533032e-01,NaN,0,1,2,1
60,193,1,84,NaN,NaN,1,NaN,8.066017e-01,NaN,0,0,2,1
60,194,1,76,NaN,NaN,1,NaN,2.900387e+00,NaN,0,1,2,1
60,195,1,137,NaN,NaN,1,NaN,3.170327e-01,NaN,0,0,3,1
60,196,1,140,NaN,NaN,1,NaN,1.882457e+00,NaN,0,0,3,1
60,197,1,31,NaN,NaN,1,NaN,6.894024e-01,NaN,1,0,1,1
60,198,1,26,NaN,NaN,1,NaN,2.600559e+00,NaN,1,1,1,1
60,199,1,50,NaN,NaN,1,NaN,6.789934e-01,NaN,0,0,2,1
60,200,1,4,NaN,NaN,1,NaN,1.714478e+00,NaN,1,0,1,1
60,201,1,89,NaN,NaN,1,NaN,3.722753e+00,NaN,1,0,2,1
60,202,1,24,NaN,NaN,1,NaN,2.406197e+00,NaN,0,0,1,1
60,203,1,45,NaN,NaN,1,NaN,3.353618e-01,NaN,0,0,1,1
60,204,1,31,NaN,NaN,1,NaN,6.638231e-01,NaN,0,0,1,1
60,205,1,16,NaN,NaN,1,NaN,2.534479e+00,NaN,1,1,1,1
60,206,1,10,NaN,NaN,1,NaN,1.336302e+00,NaN,2,0,1,1
60,207,1,2,NaN,NaN,1,NaN,2.763820e-01,NaN,1,0,1,1
60,208,1,33,NaN,NaN,1,NaN,4.960719e-01,NaN,2,0,1,1
60,209,1,123,NaN,NaN,1,NaN,1.368174e+00,NaN,0,0,3,1
60,210,1,41,NaN,NaN,1,NaN,4.857220e-01,NaN,2,0,1,1
60,211,1,135,NaN,NaN,1,NaN,3.182777e-01,NaN,2,0,3,1
60,212,1,11,NaN,NaN,1,NaN,2.341809e+00,NaN,0,0,1,1
60,213,1,122,NaN,NaN,1,NaN,1.089682e+00,NaN,0,1,3,1
60,214,1,75,NaN,NaN,1,NaN,1.555758e+00,NaN,1,0,2,1
60,215,1,81,NaN,NaN,1,NaN,3.712034e-01,NaN,0,1,2,1
60,216,1,94,NaN,NaN,2,NaN,8.435759e-01,NaN,0,1,2,1
60,217,1,139,NaN,NaN,1,NaN,1.894873e-01,NaN,2,0,3,1
60,218,1,48,NaN,NaN,1,NaN,3.640186e-01,NaN,2,0,1,1
60,219,1,128,NaN,NaN,1,NaN,9.371408e-01,NaN,1,0,3,1
60,220,1,141,NaN,NaN,1,NaN,3.493238e-01,NaN,0,1,3,1
60,221,1,65,NaN,NaN,1,NaN,3.762254e-01,NaN,2,0,2,1
60,222,1,96,NaN,NaN,1,NaN,1.542975e+00,NaN,2,1,2,1
60,223,1,36,NaN,NaN,1,NaN,2.741014e-01,NaN,0,1,1,1
60,224,1,11,NaN,NaN,2,NaN,1.730678e-01,NaN,2,0,1,1
60,225,1,18,NaN,NaN,1,NaN,8.942508e-01,NaN,1,1,1,1
60,226,1,134,NaN,NaN,1,NaN,3.384177e-01,NaN,0,0,3,1
60,227,1,4,NaN,NaN,1,NaN,1.716704e+00,NaN,0,0,1,1
60,228,1,141,NaN,NaN,1,NaN,7.966408e-01,NaN,2,1,3,1
60,229,1,99,NaN,NaN,1,NaN,1.375572e-01,NaN,2,0,3,1
60,230,1,68,NaN,NaN,1,NaN,7.666566e-01,NaN,2,0,2,1
60,231,1,66,NaN,NaN,1,NaN,5.199023e-01,NaN,1,0,2,1
60,232,1,9,NaN,NaN,1,NaN,7.106438e-01,NaN,0,0,1,1
60,233,1,20,NaN,NaN,1,NaN,2.194871e-01,NaN,2,0,1,1
60,234,1,3,NaN,NaN,1,NaN,1.059329e+00,NaN,0,0,1,1
60,235,1,72,NaN,NaN,1,NaN,8.938377e-01,NaN,2,0,2,1
60,236,1,14,NaN,NaN,1,NaN,6.662554e-01,NaN,0,0,1,1
60,237,1,70,NaN,NaN,1,NaN,1.567742e+00,NaN,2,0,2,1
60,238,1,77,NaN,NaN,1,NaN,3.506175e-01,NaN,2,1,2,1
60,239,1,104,NaN,NaN,1,NaN,8.278203e-01,NaN,0,0,3,1
60,240,1,34,NaN,NaN,1,NaN,3.366769e+00,NaN,0,0,1,1
60,241,1,110,NaN,NaN,1,NaN,1.359516e+00,NaN,0,1,3,1
60,242,1,49,NaN,NaN,1,NaN,8.644151e-01,NaN,1,0,2,1
60,243,1,56,NaN,NaN,1,NaN,1.921946e+00,NaN,1,0,2,1
60,244,1,101,NaN,NaN,1,NaN,8.582977e-01,NaN,0,0,3,1
60,245,1,116,NaN,NaN,1,NaN,3.334908e-01,NaN,0,0,3,1
60,246,1,26,NaN,NaN,1,NaN,3.681609e-01,NaN,0,1,1,1
60,247,1,139,NaN,NaN,1,NaN,1.996730e+00,NaN,0,0,3,1
60,248,1,24,NaN,NaN,1,NaN,9.806066e-01,NaN,2,0,1,1
60,249,1,43,NaN,NaN,1,NaN,6.368186e-01,NaN,0,0,1,1
60,250,1,87,NaN,NaN,1,NaN,6.302936e-01,NaN,0,0,2,1
60,251,1,93,NaN,NaN,1,NaN,8.979987e-01,NaN,0,0,2,1
60,252,1,84,NaN,NaN,1,NaN,2.184424e+00,NaN,1,0,2,1
60,253,1,75,NaN,NaN,1,NaN,1.796066e-01,NaN,0,0,2,1
60,254,1,118,NaN,NaN,1,NaN,4.991303e-01,NaN,2,0,3,1
60,255,1,42,NaN,NaN,1,NaN,1.884906e-01,NaN,1,0,1,1
60,256,1,117,NaN,NaN,2,NaN,1.096773e+00,NaN,0,0,3,1
60,257,1,17,NaN,NaN,1,NaN,1.092523e+00,NaN,0,0,1,1
60,258,1,46,NaN,NaN,1,NaN,3.016952e+00,NaN,1,0,1,1
60,259,1,80,NaN,NaN,1,NaN,3.167895e-01,NaN,1,0,2,1
60,260,1,131,NaN,NaN,1,NaN,1.281117e+00,NaN,2,1,3,1
60,261,1,25,NaN,NaN,1,NaN,1.818947e-01,NaN,2,0,1,1
60,262,1,74,NaN,NaN,1,NaN,3.316077e+00,NaN,0,0,2,1
60,263,1,117,NaN,NaN,1,NaN,7.617082e-01,NaN,2,0,3,1
60,264,1,61,NaN,NaN,1,NaN,4.107663e-01,NaN,2,0,2,1
60,265,1,129,NaN,NaN,1,NaN,1.633311e+00,NaN,0,0,3,1
60,266,1,5,NaN,NaN,1,NaN,7.631766e-01,NaN,0,1,1,1
60,267,1,69,NaN,NaN,1,NaN,1.922973e+00,NaN,2,0,2,1
60,268,1,142,NaN,NaN,1,NaN,1.176314e-01,NaN,0,0,3,1
60,269,1,68,NaN,NaN,1,NaN,2.337471e-01,NaN,0,0,2,1
60,270,1,79,NaN,NaN,1,NaN,5.028043e-01,NaN,1,0,2,1
60,271,1,115,NaN,NaN,1,NaN,1.663470e+00,NaN,0,1,3,1
60,272,1,106,NaN,NaN,1,NaN,6.745392e-01,NaN,0,0,3,1
60,273,1,102,NaN,NaN,1,NaN,8.684084e-01,NaN,0,1,3,1
60,274,1,8,NaN,NaN,1,NaN,1.554724e+00,NaN,2,0,1,1
60,275,1,91,NaN,NaN,1,NaN,4.875128e-01,NaN,0,0,2,1
60,276,1,16,NaN,NaN,1,NaN,6.378719e-01,NaN,0,1,1,1
60,277,1,28,NaN,NaN,1,NaN,5.283246e-01,NaN,0,0,1,1
60,278,1,114,NaN,NaN,1,NaN,2.933183e-01,NaN,1,0,3,1
60,279,1,136,NaN,NaN,1,NaN,4.354390e-01,NaN,2,1,3,1
60,280,1,14,NaN,NaN,1,NaN,5.007150e-01,NaN,1,0,1,1
60,281,1,55,NaN,NaN,1,NaN,6.082985e-01,NaN,0,1,2,1
60,282,1,83,NaN,NaN,1,NaN,1.379830e+00,NaN,0,0,2,1
60,283,1,59,NaN,NaN,1,NaN,3.726815e-01,NaN,0,0,2,1
60,284,1,92,NaN,NaN,1,NaN,3.770861e-01,NaN,1,0,2,1
60,285,1,132,NaN,NaN,1,NaN,1.268154e-01,NaN,0,1,3,1
60,286,1,102,NaN,NaN,1,NaN,1.183359e+00,NaN,2,1,3,1
60,287,1,88,NaN,NaN,1,NaN,1.387793e+00,NaN,2,1,2,1
60,288,1,21,NaN,NaN,1,NaN,2.326213e+00,NaN,2,0,1,1
60,333,2,108,59,1,1,1,2.510914e-01,NaN,1,0,3,1
60,334,2,112,72,1,2,0,4.897977e-01,NaN,1,0,3,1
60,335,2,38,35,1,1,1,7.218178e-01,NaN,1,0,1,1
60,336,2,100,15,1,1,1,3.751952e-01,NaN,1,0,3,1
60,337,2,12,12,2,1,0,1.113735e+00,NaN,1,0,1,1
60,338,2,75,26,1,2,0,7.084441e-01,NaN,1,0,2,1
60,339,2,16,34,1,1,1,2.029457e+00,NaN,1,1,1,1
60,340,2,57,4,1,1,1,3.592638e-01,NaN,1,1,2,1
60,341,2,128,7,1,1,1,1.758933e+00,NaN,1,0,3,1
60,342,2,4,2,1,1,1,5.508396e-01,NaN,1,0,1,1
60,343,2,26,65,2,2,1,6.639855e-01,NaN,1,1,1,1
60,344,2,14,68,2,1,0,1.069297e+00,NaN,1,0,1,1
60,345,2,42,20,2,1,0,9.016981e-01,NaN,1,0,1,1
60,346,2,50,63,2,2,1,1.363210e+00,NaN,1,0,2,1
60,347,2,110,1,1,2,0,2.882766e-01,NaN,1,1,3,1
60,348,2,53,40,1,2,0,9.544139e-01,NaN,1,1,2,1
60,349,2,104,18,2,2,1,1.332586e+00,NaN,1,0,3,1
60,350,2,125,41,1,1,1,9.334639e-01,NaN,1,0,3,1
60,351,2,46,16,2,2,1,3.881304e-01,NaN,1,0,1,1
60,352,2,1,58,2,2,1,3.180146e-01,NaN,1,0,1,1
60,353,2,111,67,1,1,1,2.623257e+00,NaN,1,0,3,1
60,354,2,144,55,2,2,1,4.379477e-01,NaN,1,0,3,1
60,355,2,6,38,1,2,0,2.619188e-01,NaN,1,1,1,1
60,356,2,103,45,2,2,1,3.231386e-01,NaN,1,1,3,1
60,357,3,75,26,1,1,1,1.966352e-01,NaN,1,0,2,1
60,358,3,103,45,2,1,0,2.639348e-01,NaN,1,1,3,1
60,359,3,100,15,2,1,0,1.737271e+00,NaN,1,0,3,1
60,360,3,26,65,2,2,1,3.048714e+00,NaN,1,1,1,1
60,361,3,110,1,2,2,1,5.450372e-01,NaN,1,1,3,1
60,362,3,38,35,2,2,1,2.165588e-01,NaN,1,0,1,1
60,363,3,125,41,1,1,1,1.628501e-01,NaN,1,0,3,1
60,364,3,50,63,1,1,1,3.353102e-01,NaN,1,0,2,1
60,365,3,57,4,1,1,1,7.631164e-01,NaN,1,1,2,1
60,366,3,111,67,2,2,1,5.082715e-01,NaN,1,0,3,1
60,367,3,6,38,1,1,1,1.547956e+00,NaN,1,1,1,1
60,368,3,53,40,2,2,1,1.796873e+00,NaN,1,1,2,1
60,369,3,104,18,1,1,1,7.635712e-01,NaN,1,0,3,1
60,370,3,46,16,1,1,1,1.576850e+00,NaN,1,0,1,1
60,371,3,144,55,2,2,1,9.742527e-01,NaN,1,0,3,1
60,372,3,112,72,2,2,1,8.041841e-01,NaN,1,0,3,1
60,373,3,42,20,2,2,1,1.883277e+00,NaN,1,0,1,1
60,374,3,12,12,2,2,1,9.626853e-01,NaN,1,0,1,1
60,375,3,108,59,2,2,1,1.837710e+00,NaN,1,0,3,1
60,376,3,1,58,2,1,0,4.988917e-01,NaN,1,0,1,1
60,377,3,14,68,2,2,1,3.620881e+00,NaN,1,0,1,1
60,378,3,128,7,2,2,1,7.868933e-01,NaN,1,0,3,1
60,379,3,16,34,1,1,1,1.244942e+00,NaN,1,1,1,1
60,380,3,4,2,1,1,1,4.440963e-01,NaN,1,0,1,1
60,405,2,124,24,1,2,0,1.404151e-01,NaN,1,0,3,2
60,406,2,28,51,1,1,1,2.449945e-01,NaN,1,0,1,2
60,407,2,39,28,2,2,1,6.762486e-01,NaN,1,0,1,2
60,408,2,140,10,1,1,1,4.632789e-01,NaN,1,0,3,2
60,409,2,55,8,1,1,1,3.535253e-01,NaN,1,1,2,2
60,410,2,52,42,2,1,0,2.050356e+00,NaN,1,1,2,2
60,411,2,98,21,1,2,0,3.988753e-01,NaN,1,0,3,2
60,412,2,101,36,2,2,1,5.090515e-01,NaN,1,0,3,2
60,413,2,107,53,2,2,1,7.977668e-01,NaN,1,1,3,2
60,414,2,40,44,2,2,1,2.046829e+00,NaN,1,1,1,2
60,415,2,105,3,1,1,1,2.101650e+00,NaN,1,0,3,2
60,416,2,49,27,2,2,1,1.774540e+00,NaN,1,0,2,2
60,417,2,71,57,2,2,1,2.783929e-01,NaN,1,1,2,2
60,418,2,78,25,1,1,1,2.405905e-01,NaN,1,0,2,2
60,419,2,44,50,2,2,1,3.533678e+00,NaN,1,0,1,2
60,420,2,89,48,2,2,1,5.527941e-01,NaN,1,0,2,2
60,421,2,2,30,1,1,1,5.067981e+00,NaN,1,0,1,2
60,422,2,113,66,1,2,0,2.412453e+00,NaN,1,0,3,2
60,423,2,31,22,2,2,1,3.407901e-01,NaN,1,0,1,2
60,424,2,34,37,2,2,1,1.825768e+00,NaN,1,0,1,2
60,425,2,115,43,1,1,1,2.231926e+00,NaN,1,1,3,2
60,426,2,92,46,2,2,1,6.043570e-01,NaN,1,0,2,2
60,427,2,129,61,2,2,1,4.362218e-01,NaN,1,0,3,2
60,428,2,63,17,2,2,1,2.101360e-01,NaN,1,0,2,2
60,429,3,98,21,2,1,0,3.520869e-01,NaN,1,0,3,2
60,430,3,107,53,2,2,1,6.635204e-01,NaN,1,1,3,2
60,431,3,140,10,2,1,0,1.370550e+00,NaN,1,0,3,2
60,432,3,63,17,2,1,0,4.727800e-01,NaN,1,0,2,2
60,433,3,105,3,1,1,1,2.044962e+00,NaN,1,0,3,2
60,434,3,101,36,2,2,1,2.691834e+00,NaN,1,0,3,2
60,435,3,115,43,2,2,1,1.152167e-01,NaN,1,1,3,2
60,436,3,40,44,1,1,1,1.323552e+00,NaN,1,1,1,2
60,437,3,52,42,1,1,1,8.769515e-01,NaN,1,1,2,2
60,438,3,39,28,2,2,1,4.343768e-01,NaN,1,0,1,2
60,439,3,78,25,2,2,1,1.217018e-01,NaN,1,0,2,2
60,440,3,31,22,2,2,1,4.651886e+00,NaN,1,0,1,2
60,441,3,49,27,1,1,1,9.518674e+00,NaN,1,0,2,2
60,442,3,89,48,2,2,1,7.434551e-01,NaN,1,0,2,2
60,443,3,113,66,1,2,0,2.352526e+00,NaN,1,0,3,2
60,444,3,55,8,1,1,1,6.792935e-01,NaN,1,1,2,2
60,445,3,71,57,1,1,1,1.313882e+00,NaN,1,1,2,2
60,446,3,124,24,2,2,1,2.462611e+00,NaN,1,0,3,2
60,447,3,34,37,1,2,0,1.524517e-01,NaN,1,0,1,2
60,448,3,129,61,2,1,0,9.208918e-01,NaN,1,0,3,2
60,449,3,28,51,2,2,1,5.412260e-01,NaN,1,0,1,2
60,450,3,92,46,1,2,0,1.836471e-01,NaN,1,0,2,2
60,451,3,2,30,1,1,1,1.926267e+00,NaN,1,0,1,2
60,452,3,44,50,1,1,1,1.992912e-01,NaN,1,0,1,2
60,477,2,97,32,2,2,1,1.564294e+00,NaN,1,1,3,3
60,478,2,143,70,2,1,0,3.868025e-01,NaN,1,0,3,3
60,479,2,58,13,1,1,1,4.423736e+00,NaN,1,0,2,3
60,480,2,122,62,2,2,1,4.575723e+00,NaN,1,1,3,3
60,481,2,30,69,1,1,1,1.258157e+00,NaN,1,0,1,3
60,482,2,74,47,1,1,1,3.247107e+00,NaN,1,0,2,3
60,483,2,94,54,1,1,1,7.109942e-01,NaN,1,1,2,3
60,484,2,7,56,2,2,1,5.290935e-01,NaN,1,0,1,3
60,485,2,73,23,1,1,1,6.680927e-01,NaN,1,0,2,3
60,486,2,84,52,2,1,0,7.275139e-01,NaN,1,0,2,3
60,487,2,56,64,1,1,1,1.335254e+00,NaN,1,0,2,3
60,488,2,81,9,2,2,1,2.116863e-01,NaN,1,1,2,3
60,489,2,114,5,1,1,1,1.436427e+00,NaN,1,0,3,3
60,490,2,13,19,2,2,1,1.944360e+00,NaN,1,0,1,3
60,491,2,54,6,1,1,1,1.239010e+00,NaN,1,0,2,3
60,492,2,45,14,1,1,1,3.130284e+00,NaN,1,0,1,3
60,493,2,66,49,2,2,1,9.199135e-01,NaN,1,0,2,3
60,494,2,15,71,2,2,1,4.088496e-01,NaN,1,0,1,3
60,495,2,137,33,1,2,0,5.240194e-01,NaN,1,0,3,3
60,496,2,18,29,2,2,1,2.764808e+00,NaN,1,1,1,3
60,497,2,80,31,2,2,1,7.371752e-01,NaN,1,0,2,3
60,498,2,83,11,1,1,1,9.503736e-01,NaN,1,0,2,3
60,499,2,79,39,1,1,1,2.086108e-01,NaN,1,0,2,3
60,500,2,43,60,2,2,1,9.579985e-02,NaN,1,0,1,3
60,501,3,7,56,2,2,1,9.525629e-01,NaN,1,0,1,3
60,502,3,56,64,2,2,1,2.102201e+00,NaN,1,0,2,3
60,503,3,18,29,2,2,1,1.094540e+00,NaN,1,1,1,3
60,504,3,94,54,1,1,1,1.171357e+00,NaN,1,1,2,3
60,505,3,13,19,1,1,1,1.068389e+00,NaN,1,0,1,3
60,506,3,84,52,1,1,1,1.063748e+00,NaN,1,0,2,3
60,507,3,143,70,2,1,0,3.701637e-01,NaN,1,0,3,3
60,508,3,137,33,1,1,1,1.261198e-01,NaN,1,0,3,3
60,509,3,73,23,2,1,0,2.854438e-01,NaN,1,0,2,3
60,510,3,43,60,2,2,1,6.222231e-01,NaN,1,0,1,3
60,511,3,97,32,2,2,1,8.373035e-01,NaN,1,1,3,3
60,512,3,74,47,1,1,1,1.941621e+00,NaN,1,0,2,3
60,513,3,122,62,1,1,1,1.393763e-01,NaN,1,1,3,3
60,514,3,80,31,2,1,0,3.817486e-01,NaN,1,0,2,3
60,515,3,15,71,2,2,1,8.707764e-01,NaN,1,0,1,3
60,516,3,54,6,1,2,0,8.778998e-01,NaN,1,0,2,3
60,517,3,114,5,2,1,0,1.859032e+00,NaN,1,0,3,3
60,518,3,81,9,2,2,1,2.036709e-01,NaN,1,1,2,3
60,519,3,83,11,2,2,1,2.133974e+00,NaN,1,0,2,3
60,520,3,45,14,1,1,1,8.660349e-01,NaN,1,0,1,3
60,521,3,30,69,2,2,1,1.676925e-01,NaN,1,0,1,3
60,522,3,66,49,1,1,1,3.610639e-01,NaN,1,0,2,3
60,523,3,58,13,1,1,1,4.620893e-01,NaN,1,0,2,3
60,524,3,79,39,2,2,1,6.402198e-01,NaN,1,0,2,3
60,549,4,60,51,1,1,1,9.530372e-01,NaN,2,0,2,1
60,550,4,24,61,2,2,1,5.112199e-01,NaN,2,0,1,1
60,551,4,142,68,1,2,0,3.359134e-01,NaN,2,0,3,1
60,552,4,70,14,1,1,1,1.540934e-01,NaN,2,0,2,1
60,553,4,20,31,2,2,1,8.456517e-01,NaN,2,0,1,1
60,554,4,120,54,1,2,0,7.585870e-01,NaN,2,1,3,1
60,555,4,116,6,2,2,1,1.003350e+00,NaN,2,0,3,1
60,556,4,121,40,2,2,1,2.960727e-01,NaN,2,1,3,1
60,557,4,72,2,1,1,1,1.326525e+00,NaN,2,0,2,1
60,558,4,134,71,2,2,1,3.174598e-01,NaN,2,0,3,1
60,559,4,118,46,2,2,1,7.828617e-01,NaN,2,0,3,1
60,560,4,131,65,1,1,1,5.693512e-01,NaN,2,1,3,1
60,561,4,68,35,1,1,1,1.065356e+00,NaN,2,0,2,1
60,562,4,33,55,1,1,1,2.137438e-01,NaN,2,0,1,1
60,563,4,95,3,1,1,1,2.628726e+00,NaN,2,0,2,1
60,564,4,62,37,1,1,1,4.392750e-01,NaN,2,0,2,1
60,565,4,32,5,2,2,1,1.736342e+00,NaN,2,0,1,1
60,566,4,77,43,2,2,1,1.547104e+00,NaN,2,1,2,1
60,567,4,69,69,1,1,1,1.391881e+00,NaN,2,0,2,1
60,568,4,126,42,2,1,0,6.676387e-01,NaN,2,1,3,1
60,569,4,127,29,2,2,1,1.061071e+00,NaN,2,1,3,1
60,570,4,138,50,1,1,1,8.832651e-01,NaN,2,0,3,1
60,571,4,17,26,1,1,1,1.153353e+00,NaN,2,0,1,1
60,572,4,61,28,2,2,1,3.360416e-01,NaN,2,0,2,1
60,597,4,59,58,2,2,1,3.351104e+00,NaN,2,0,2,2
60,598,4,21,64,1,1,1,5.705710e-01,NaN,2,0,1,2
60,599,4,11,48,1,1,1,2.994864e+00,NaN,2,0,1,2
60,600,4,88,45,2,1,0,1.399972e+00,NaN,2,1,2,2
60,601,4,25,66,2,1,0,1.419744e-01,NaN,2,0,1,2
60,602,4,51,30,1,1,1,3.849838e+00,NaN,2,0,2,2
60,603,4,29,18,1,1,1,7.405650e-01,NaN,2,0,1,2
60,604,4,19,17,1,2,0,4.620810e-01,NaN,2,0,1,2
60,605,4,109,9,1,1,1,1.296154e+00,NaN,2,1,3,2
60,606,4,64,60,2,2,1,1.598422e+00,NaN,2,0,2,2
60,607,4,8,47,1,1,1,2.393264e-01,NaN,2,0,1,2
60,608,4,91,15,1,1,1,2.363738e-01,NaN,2,0,2,2
60,609,4,76,53,2,2,1,1.129963e+00,NaN,2,1,2,2
60,610,4,136,34,1,1,1,9.011827e-01,NaN,2,1,3,2
60,611,4,117,25,1,1,1,1.730738e+00,NaN,2,0,3,2
60,612,4,65,16,1,1,1,8.722236e-01,NaN,2,0,2,2
60,613,4,93,72,2,2,1,4.828301e-01,NaN,2,0,2,2
60,614,4,141,38,1,1,1,4.077546e+00,NaN,2,1,3,2
60,615,4,37,21,2,2,1,6.446572e-01,NaN,2,0,1,2
60,616,4,36,62,1,1,1,4.552613e+00,NaN,2,1,1,2
60,617,4,132,44,1,1,1,3.507037e-01,NaN,2,1,3,2
60,618,4,9,39,1,2,0,8.947378e-01,NaN,2,0,1,2
60,619,4,5,8,1,2,0,1.044282e+00,NaN,2,1,1,2
60,620,4,23,52,1,1,1,5.570803e-01,NaN,2,0,1,2
60,645,4,135,19,1,2,0,4.104042e-01,NaN,2,0,3,3
60,646,4,106,23,1,1,1,1.933319e-01,NaN,2,0,3,3
60,647,4,130,56,1,1,1,1.131036e+00,NaN,2,0,3,3
60,648,4,86,70,2,2,1,5.091333e+00,NaN,2,0,2,3
60,649,4,139,12,1,1,1,6.574764e-01,NaN,2,0,3,3
60,650,4,47,59,1,1,1,1.656660e-01,NaN,2,0,1,3
60,651,4,99,11,2,2,1,4.304787e-01,NaN,2,0,3,3
60,652,4,123,13,1,1,1,9.818014e-01,NaN,2,0,3,3
60,653,4,35,7,1,2,0,6.706486e-01,NaN,2,0,1,3
60,654,4,119,49,1,2,0,4.349905e-01,NaN,2,0,3,3
60,655,4,67,22,2,2,1,1.676012e+00,NaN,2,0,2,3
60,656,4,87,10,1,1,1,7.966605e-01,NaN,2,0,2,3
60,657,4,3,63,2,2,1,7.816751e-01,NaN,2,0,1,3
60,658,4,82,33,1,1,1,5.915207e-01,NaN,2,0,2,3
60,659,4,41,24,1,1,1,5.062069e-01,NaN,2,0,1,3
60,660,4,22,4,2,2,1,4.960272e-01,NaN,2,1,1,3
60,661,4,133,20,1,1,1,9.721350e-01,NaN,2,0,3,3
60,662,4,27,67,1,1,1,5.864169e-01,NaN,2,0,1,3
60,663,4,48,41,2,2,1,8.081324e-01,NaN,2,0,1,3
60,664,4,85,32,2,1,0,8.206485e-01,NaN,2,1,2,3
60,665,4,102,57,1,2,0,2.068815e+00,NaN,2,1,3,3
60,666,4,96,1,1,2,0,4.504859e-01,NaN,2,1,2,3
60,667,4,10,27,2,2,1,5.639090e-01,NaN,2,0,1,3
60,668,4,90,36,1,1,1,4.491529e-01,NaN,2,0,2,3
60,669,4,5.621000e+01,64,2,1,0,1.117028e+00,1,1,0,2.100000e+00,1
60,670,4,2.510000e+00,30,1,1,1,5.734433e-01,1,1,0,1.200000e+00,1
60,671,4,1.443300e+02,55,3,2,0,2.715888e-01,1,1,0,3.100000e+00,1
60,672,4,1.443300e+02,55,3,3,1,4.484671e-01,2,1,0,3.100000e+00,1
60,673,4,1.590000e+00,58,1,1,1,5.990093e-01,1,1,0,1.200000e+00,1
60,674,4,8.020000e+01,31,2,2,1,4.848351e-01,1,1,0,2.100000e+00,1
60,675,4,4.910000e+01,27,2,2,1,3.316358e+00,1,1,0,2.100000e+00,1
60,676,4,8.020000e+01,31,2,2,1,2.369544e-01,2,1,0,2.100000e+00,1
60,677,4,5.003000e+01,63,2,2,1,8.719628e-02,1,1,0,2.100000e+00,1
60,678,4,4.910000e+01,27,2,2,1,1.777001e+00,2,1,0,2.100000e+00,1
60,679,4,8.300000e+00,56,1,1,1,1.038928e-01,1,1,0,1.300000e+00,1
60,680,4,4.364000e+01,60,1,1,1,4.193262e-01,1,1,0,1.200000e+00,1
60,681,4,2.510000e+00,30,1,1,1,6.873129e-01,2,1,0,1.200000e+00,1
60,682,4,1.443300e+02,55,3,4,0,4.476355e-01,3,1,0,3.100000e+00,1
60,683,4,1.542000e+01,68,1,1,1,1.931075e-01,1,1,0,1.300000e+00,1
60,684,4,4.570000e+01,14,1,1,1,6.114869e-02,1,1,0,1.200000e+00,1
60,685,4,4.333000e+01,20,1,1,1,4.208043e-01,1,1,0,1.300000e+00,1
60,686,4,5.923000e+01,13,2,3,0,3.713521e-01,1,1,0,2.300000e+00,1
60,687,4,1.112700e+02,67,3,3,1,1.488984e-01,1,1,0,3.100000e+00,1
60,688,4,7.408000e+01,47,2,2,1,5.309081e-01,1,1,0,2.100000e+00,1
60,689,4,1.435000e+01,19,1,1,1,1.476400e-01,1,1,0,1.300000e+00,1
60,690,4,4.720000e+00,2,1,1,1,5.400515e-01,1,1,0,1.200000e+00,1
60,691,4,1.438600e+02,70,3,3,1,1.614118e+00,1,1,0,3.200000e+00,1
60,692,4,8.911000e+01,48,2,2,1,4.242522e-01,1,1,0,2.100000e+00,1
60,693,4,4.665000e+01,16,1,1,1,3.720797e-01,1,1,0,1.200000e+00,1
60,694,4,4.333000e+01,20,1,4,0,3.581049e-01,2,1,0,1.300000e+00,1
60,695,4,4.364000e+01,60,1,4,0,9.987039e-02,2,1,0,1.200000e+00,1
60,696,4,1.435000e+01,19,1,1,1,6.445560e-01,2,1,0,1.300000e+00,1
60,697,4,4.910000e+01,27,2,2,1,1.378896e-01,3,1,0,2.100000e+00,1
60,698,4,1.129300e+02,72,3,2,0,1.948988e-01,1,1,0,3.200000e+00,1
60,699,4,3.069000e+01,69,1,1,1,8.334553e-01,1,1,0,1.200000e+00,1
60,700,4,4.364000e+01,60,1,1,1,2.444149e-01,3,1,0,1.200000e+00,1
60,701,4,7.517000e+01,26,2,1,0,2.173156e-01,1,1,0,2.100000e+00,1
60,702,4,1.378200e+02,33,3,3,1,9.521037e-01,1,1,0,3.200000e+00,1
60,703,4,1.143200e+02,5,3,2,0,1.010270e+00,1,1,0,3.100000e+00,1
60,704,4,5.923000e+01,13,2,2,1,4.270046e-01,2,1,0,2.300000e+00,1
60,705,4,8.423000e+01,52,2,2,1,1.286073e+00,1,1,0,2.100000e+00,1
60,706,4,1.112700e+02,67,3,3,1,1.129547e+00,2,1,0,3.100000e+00,1
60,707,4,1.112700e+02,67,3,3,1,1.212986e-01,3,1,0,3.100000e+00,1
60,708,4,1.408700e+02,10,3,1,0,2.752490e-01,1,1,0,3.200000e+00,1
60,709,4,1.009100e+02,15,3,3,1,5.311660e-01,1,1,0,3.200000e+00,1
60,710,4,8.911000e+01,48,2,2,1,3.675708e-01,2,1,0,2.100000e+00,1
60,711,4,1.059500e+02,3,3,3,1,1.223619e+00,1,1,0,3.200000e+00,1
60,712,4,1.443300e+02,55,3,3,1,2.630822e-01,4,1,0,3.100000e+00,1
60,713,4,1.019000e+02,36,3,1,0,1.093506e+00,1,1,0,3.200000e+00,1
60,714,4,1.112700e+02,67,3,3,1,2.129428e-01,4,1,0,3.100000e+00,1
60,715,4,3.462000e+01,37,1,1,1,5.414164e-01,1,1,0,1.200000e+00,1
60,716,4,7.917000e+01,25,2,1,0,4.433897e-02,1,1,0,2.300000e+00,1
60,717,4,4.720000e+00,2,1,1,1,1.018589e-01,2,1,0,1.200000e+00,1
60,718,4,1.244100e+02,24,3,3,1,2.584423e-01,1,1,0,3.100000e+00,1
60,719,4,1.339000e+01,12,1,2,0,5.096879e-01,1,1,0,1.300000e+00,1
60,720,4,1.438600e+02,70,3,3,1,5.247787e-01,2,1,0,3.200000e+00,1
60,721,4,3.167000e+01,22,1,1,1,6.945162e-02,1,1,0,1.200000e+00,1
60,722,4,4.364000e+01,60,1,2,0,4.700412e-01,4,1,0,1.200000e+00,1
60,723,4,2.860000e+01,51,1,1,1,1.074973e-01,1,1,0,1.200000e+00,1
60,724,4,8.020000e+01,31,2,2,1,1.915102e-01,3,1,0,2.100000e+00,1
60,725,4,8.300000e+00,56,1,1,1,5.616877e-01,2,1,0,1.300000e+00,1
60,726,4,8.020000e+01,31,2,2,1,3.849753e-01,4,1,0,2.100000e+00,1
60,727,4,8.399000e+01,11,2,2,1,1.126831e-01,1,1,0,2.300000e+00,1
60,728,4,3.961000e+01,28,1,1,1,6.667139e-01,1,1,0,1.200000e+00,1
60,729,4,4.720000e+00,2,1,3,0,1.607061e-01,3,1,0,1.200000e+00,1
60,730,4,7.917000e+01,25,2,2,1,3.341677e-01,2,1,0,2.300000e+00,1
60,731,4,2.860000e+01,51,1,1,1,2.220863e-01,2,1,0,1.200000e+00,1
60,732,4,5.621000e+01,64,2,2,1,1.243568e-01,2,1,0,2.100000e+00,1
60,733,4,6.319000e+01,17,2,2,1,1.809107e+00,1,1,0,2.100000e+00,1
60,734,4,1.129300e+02,72,3,3,1,7.979541e-01,2,1,0,3.200000e+00,1
60,735,4,1.438600e+02,70,3,3,1,1.285218e-01,3,1,0,3.200000e+00,1
60,736,4,9.837000e+01,21,3,3,1,1.609789e-01,1,1,0,3.100000e+00,1
60,737,4,7.909000e+01,39,2,2,1,2.272269e-01,1,1,0,2.100000e+00,1
60,738,4,1.244100e+02,24,3,3,1,1.553513e+00,2,1,0,3.100000e+00,1
60,739,4,1.254800e+02,41,3,3,1,8.269108e-02,1,1,0,3.100000e+00,1
60,740,4,1.292400e+02,61,3,3,1,1.848026e-01,1,1,0,3.100000e+00,1
60,741,4,3.167000e+01,22,1,1,1,5.821606e-01,2,1,0,1.200000e+00,1
60,742,4,3.462000e+01,37,1,1,1,1.970119e+00,2,1,0,1.200000e+00,1
60,743,4,7.406000e+01,23,2,2,1,1.525377e-01,1,1,0,2.300000e+00,1
60,744,4,6.319000e+01,17,2,2,1,2.208095e+00,2,1,0,2.100000e+00,1
60,745,4,7.406000e+01,23,2,3,0,2.472049e-01,2,1,0,2.300000e+00,1
60,746,4,7.517000e+01,26,2,2,1,3.594357e-01,2,1,0,2.100000e+00,1
60,747,4,1.542000e+01,68,1,1,1,4.262629e-01,2,1,0,1.300000e+00,1
60,748,4,5.003000e+01,63,2,2,1,4.314043e-01,2,1,0,2.100000e+00,1
60,749,4,1.292400e+02,61,3,3,1,2.411863e-01,2,1,0,3.100000e+00,1
60,750,4,7.408000e+01,47,2,2,1,4.509669e-01,2,1,0,2.100000e+00,1
60,751,4,7.408000e+01,47,2,2,1,4.109777e-01,3,1,0,2.100000e+00,1
60,752,4,1.339000e+01,12,1,3,0,3.759071e-01,2,1,0,1.300000e+00,1
60,753,4,1.084700e+02,59,3,3,1,8.342808e-01,1,1,0,3.100000e+00,1
60,754,4,4.720000e+00,2,1,2,0,2.726345e-01,4,1,0,1.200000e+00,1
60,755,4,2.510000e+00,30,1,1,1,1.349055e-01,3,1,0,1.200000e+00,1
60,756,4,1.634000e+01,71,1,1,1,5.465140e-01,1,1,0,1.300000e+00,1
60,757,4,1.634000e+01,71,1,2,0,2.725960e-01,2,1,0,1.300000e+00,1
60,758,4,4.570000e+01,14,1,4,0,2.228713e-01,2,1,0,1.200000e+00,1
60,759,4,5.003000e+01,63,2,2,1,4.759124e-01,3,1,0,2.100000e+00,1
60,760,4,6.719000e+01,49,2,2,1,2.162681e-01,1,1,0,2.300000e+00,1
60,761,4,1.283500e+02,7,3,3,1,5.872618e-01,1,1,0,3.100000e+00,1
60,762,4,4.665000e+01,16,1,1,1,2.849603e-01,2,1,0,1.200000e+00,1
60,763,4,6.719000e+01,49,2,2,1,6.645690e-01,2,1,0,2.300000e+00,1
60,764,4,4.538000e+01,50,1,4,0,4.243776e-01,1,1,0,1.300000e+00,1
60,765,4,1.634000e+01,71,1,1,1,2.601004e-01,3,1,0,1.300000e+00,1
60,766,4,4.570000e+01,14,1,1,1,8.707203e-01,3,1,0,1.200000e+00,1
60,767,4,4.333000e+01,20,1,1,1,1.969962e+00,3,1,0,1.300000e+00,1
60,768,4,8.300000e+00,56,1,1,1,6.423827e-01,3,1,0,1.300000e+00,1
60,769,4,3.462000e+01,37,1,2,0,1.571315e+00,3,1,0,1.200000e+00,1
60,770,4,8.399000e+01,11,2,2,1,6.407289e-01,2,1,0,2.300000e+00,1
60,771,4,1.132500e+02,66,3,4,0,1.646287e-01,1,1,0,3.100000e+00,1
60,772,4,8.399000e+01,11,2,2,1,7.097861e-01,3,1,0,2.300000e+00,1
60,773,4,6.719000e+01,49,2,2,1,3.306892e-01,3,1,0,2.300000e+00,1
60,774,4,1.143200e+02,5,3,3,1,7.744650e-01,2,1,0,3.100000e+00,1
60,775,4,4.910000e+01,27,2,2,1,2.471339e-01,4,1,0,2.100000e+00,1
60,776,4,9.318000e+01,46,2,2,1,5.793596e-01,1,1,0,2.300000e+00,1
60,777,4,1.254800e+02,41,3,2,0,1.797219e+00,2,1,0,3.100000e+00,1
60,778,4,1.009100e+02,15,3,3,1,9.142213e-01,2,1,0,3.200000e+00,1
60,779,4,8.423000e+01,52,2,2,1,2.897788e-01,2,1,0,2.100000e+00,1
60,780,4,7.909000e+01,39,2,2,1,4.123822e-01,2,1,0,2.100000e+00,1
60,781,4,1.059500e+02,3,3,3,1,9.529361e-02,2,1,0,3.200000e+00,1
60,782,4,1.435000e+01,19,1,1,1,3.725328e-01,3,1,0,1.300000e+00,1
60,783,4,7.917000e+01,25,2,2,1,5.427490e-01,3,1,0,2.300000e+00,1
60,784,4,1.129300e+02,72,3,3,1,2.720556e-01,3,1,0,3.200000e+00,1
60,785,4,4.538000e+01,50,1,1,1,2.016772e-01,2,1,0,1.300000e+00,1
60,786,4,3.069000e+01,69,1,1,1,7.052699e-01,2,1,0,1.200000e+00,1
60,787,4,3.961000e+01,28,1,1,1,6.225809e-01,2,1,0,1.200000e+00,1
60,788,4,1.590000e+00,58,1,1,1,4.544805e-01,2,1,0,1.200000e+00,1
60,789,4,1.590000e+00,58,1,1,1,4.086794e-01,3,1,0,1.200000e+00,1
60,790,4,1.378200e+02,33,3,3,1,7.948047e-01,2,1,0,3.200000e+00,1
60,791,4,1.019000e+02,36,3,3,1,5.721432e-01,2,1,0,3.200000e+00,1
60,792,4,7.909000e+01,39,2,2,1,1.072981e-01,3,1,0,2.100000e+00,1
60,793,4,1.084700e+02,59,3,3,1,1.092901e-01,2,1,0,3.100000e+00,1
60,794,4,1.129300e+02,72,3,3,1,2.318990e-01,4,1,0,3.200000e+00,1
60,795,4,9.318000e+01,46,2,2,1,6.565015e-01,2,1,0,2.300000e+00,1
60,796,4,5.516000e+01,6,2,2,1,5.453030e-01,1,1,0,2.300000e+00,1
60,797,4,2.510000e+00,30,1,1,1,2.608308e+00,4,1,0,1.200000e+00,1
60,798,4,5.516000e+01,6,2,2,1,2.041326e-01,2,1,0,2.300000e+00,1
60,799,4,1.132500e+02,66,3,3,1,1.769602e+00,2,1,0,3.100000e+00,1
60,800,4,3.167000e+01,22,1,1,1,3.335780e-01,3,1,0,1.200000e+00,1
60,801,4,7.909000e+01,39,2,2,1,7.532126e-01,4,1,0,2.100000e+00,1
60,802,4,9.837000e+01,21,3,3,1,7.607625e-01,2,1,0,3.100000e+00,1
60,803,4,2.860000e+01,51,1,1,1,3.924378e-01,3,1,0,1.200000e+00,1
60,804,4,3.069000e+01,69,1,1,1,8.490370e-01,3,1,0,1.200000e+00,1
60,805,4,1.283500e+02,7,3,4,0,1.777498e-01,2,1,0,3.100000e+00,1
60,806,4,1.244100e+02,24,3,3,1,3.370815e-01,3,1,0,3.100000e+00,1
60,807,4,3.069000e+01,69,1,1,1,1.971329e-01,4,1,0,1.200000e+00,1
60,808,4,8.911000e+01,48,2,1,0,1.979030e-01,3,1,0,2.100000e+00,1
60,809,4,1.132500e+02,66,3,3,1,8.843330e-01,3,1,0,3.100000e+00,1
60,810,4,1.254800e+02,41,3,1,0,3.013681e-01,3,1,0,3.100000e+00,1
60,811,4,1.435000e+01,19,1,2,0,6.505914e-01,4,1,0,1.300000e+00,1
60,812,4,5.516000e+01,6,2,2,1,2.395104e-01,3,1,0,2.300000e+00,1
60,813,4,8.423000e+01,52,2,2,1,1.030400e+00,3,1,0,2.100000e+00,1
60,814,4,4.538000e+01,50,1,1,1,4.939670e-01,3,1,0,1.300000e+00,1
60,815,4,1.059500e+02,3,3,4,0,1.118694e+00,3,1,0,3.200000e+00,1
60,816,4,1.283500e+02,7,3,3,1,2.150550e-01,3,1,0,3.100000e+00,1
60,817,4,7.406000e+01,23,2,2,1,5.100238e-01,3,1,0,2.300000e+00,1
60,818,4,4.665000e+01,16,1,3,0,2.561269e-01,3,1,0,1.200000e+00,1
60,819,4,1.542000e+01,68,1,3,0,1.703596e-01,3,1,0,1.300000e+00,1
60,820,4,9.318000e+01,46,2,2,1,1.955424e-01,3,1,0,2.300000e+00,1
60,821,4,1.634000e+01,71,1,1,1,5.221985e-01,4,1,0,1.300000e+00,1
60,822,4,1.042900e+02,18,3,1,0,5.276407e-01,1,1,0,3.100000e+00,1
60,823,4,1.408700e+02,10,3,3,1,2.601051e-01,2,1,0,3.200000e+00,1
60,824,4,1.143200e+02,5,3,3,1,6.941027e-01,3,1,0,3.100000e+00,1
60,825,4,3.868000e+01,35,1,1,1,9.477445e-01,1,1,0,1.200000e+00,1
60,826,4,4.333000e+01,20,1,1,1,8.774483e-01,4,1,0,1.300000e+00,1
60,827,4,5.923000e+01,13,2,2,1,4.224888e-01,3,1,0,2.300000e+00,1
60,828,4,9.837000e+01,21,3,3,1,1.326345e-01,3,1,0,3.100000e+00,1
60,829,4,1.408700e+02,10,3,4,0,4.768840e-01,3,1,0,3.200000e+00,1
60,830,4,1.339000e+01,12,1,4,0,1.298769e-01,3,1,0,1.300000e+00,1
60,831,4,1.339000e+01,12,1,1,1,4.954963e-01,4,1,0,1.300000e+00,1
60,832,4,1.084700e+02,59,3,3,1,4.644682e-01,3,1,0,3.100000e+00,1
60,833,4,3.868000e+01,35,1,2,0,7.332779e-01,2,1,0,1.200000e+00,1
60,834,4,5.621000e+01,64,2,2,1,3.500153e-01,3,1,0,2.100000e+00,1
60,835,4,7.517000e+01,26,2,1,0,2.311459e-01,3,1,0,2.100000e+00,1
60,836,4,1.378200e+02,33,3,3,1,1.153955e-01,3,1,0,3.200000e+00,1
60,837,4,8.911000e+01,48,2,1,0,3.681348e-01,4,1,0,2.100000e+00,1
60,838,4,1.244100e+02,24,3,1,0,2.432249e-01,4,1,0,3.100000e+00,1
60,839,4,2.860000e+01,51,1,2,0,1.171419e+00,4,1,0,1.200000e+00,1
60,840,4,6.319000e+01,17,2,2,1,6.773345e-01,3,1,0,2.100000e+00,1
60,841,4,7.406000e+01,23,2,2,1,4.729102e-01,4,1,0,2.300000e+00,1
60,842,4,9.318000e+01,46,2,2,1,9.292393e-01,4,1,0,2.300000e+00,1
60,843,4,8.300000e+00,56,1,3,0,5.918891e-01,4,1,0,1.300000e+00,1
60,844,4,1.019000e+02,36,3,3,1,1.340164e-01,3,1,0,3.200000e+00,1
60,845,4,6.319000e+01,17,2,2,1,5.109630e-01,4,1,0,2.100000e+00,1
60,846,4,1.009100e+02,15,3,3,1,3.266458e-01,3,1,0,3.200000e+00,1
60,847,4,3.868000e+01,35,1,1,1,4.001618e-01,3,1,0,1.200000e+00,1
60,848,4,1.292400e+02,61,3,3,1,3.082146e-01,3,1,0,3.100000e+00,1
60,849,4,1.042900e+02,18,3,3,1,2.465194e+00,2,1,0,3.100000e+00,1
60,850,4,7.917000e+01,25,2,2,1,4.886211e-01,4,1,0,2.300000e+00,1
60,851,4,1.042900e+02,18,3,3,1,2.513273e-01,3,1,0,3.100000e+00,1
60,852,4,7.517000e+01,26,2,2,1,2.009357e+00,4,1,0,2.100000e+00,1
60,853,4,5.516000e+01,6,2,2,1,1.805236e-01,4,1,0,2.300000e+00,1
60,854,4,3.167000e+01,22,1,1,1,2.456993e-01,4,1,0,1.200000e+00,1
60,855,4,1.542000e+01,68,1,1,1,4.272210e-01,4,1,0,1.300000e+00,1
60,856,4,9.837000e+01,21,3,3,1,7.127999e-01,4,1,0,3.100000e+00,1
60,857,4,3.462000e+01,37,1,3,0,8.069413e-01,4,1,0,1.200000e+00,1
60,858,4,5.003000e+01,63,2,2,1,6.725346e-01,4,1,0,2.100000e+00,1
60,859,4,4.538000e+01,50,1,1,1,8.344479e-02,4,1,0,1.300000e+00,1
60,860,4,1.019000e+02,36,3,3,1,1.962860e-01,4,1,0,3.200000e+00,1
60,861,4,1.378200e+02,33,3,3,1,8.243573e-01,4,1,0,3.200000e+00,1
60,862,4,1.143200e+02,5,3,3,1,8.175728e-02,4,1,0,3.100000e+00,1
60,863,4,1.009100e+02,15,3,4,0,2.831648e-01,4,1,0,3.200000e+00,1
60,864,4,1.059500e+02,3,3,3,1,5.299737e-01,4,1,0,3.200000e+00,1
60,865,4,1.590000e+00,58,1,1,1,1.494980e-01,4,1,0,1.200000e+00,1
60,866,4,1.438600e+02,70,3,3,1,1.744899e-01,4,1,0,3.200000e+00,1
60,867,4,1.408700e+02,10,3,3,1,2.956538e-01,4,1,0,3.200000e+00,1
60,868,4,4.570000e+01,14,1,1,1,9.319815e-01,4,1,0,1.200000e+00,1
60,869,4,1.283500e+02,7,3,3,1,3.710197e-01,4,1,0,3.100000e+00,1
60,870,4,5.923000e+01,13,2,2,1,2.201540e-01,4,1,0,2.300000e+00,1
60,871,4,1.042900e+02,18,3,3,1,3.481950e-01,4,1,0,3.100000e+00,1
60,872,4,3.961000e+01,28,1,1,1,5.353533e-01,3,1,0,1.200000e+00,1
60,873,4,1.292400e+02,61,3,3,1,2.621664e-01,4,1,0,3.100000e+00,1
60,874,4,8.399000e+01,11,2,1,0,4.928182e-01,4,1,0,2.300000e+00,1
60,875,4,3.868000e+01,35,1,1,1,5.237919e-01,4,1,0,1.200000e+00,1
60,876,4,8.423000e+01,52,2,2,1,1.019975e+00,4,1,0,2.100000e+00,1
60,877,4,1.132500e+02,66,3,2,0,2.476849e-01,4,1,0,3.100000e+00,1
60,878,4,6.719000e+01,49,2,3,0,3.533448e-01,4,1,0,2.300000e+00,1
60,879,4,3.961000e+01,28,1,1,1,3.353542e-01,4,1,0,1.200000e+00,1
60,880,4,7.408000e+01,47,2,1,0,5.518346e-01,4,1,0,2.100000e+00,1
60,881,4,1.084700e+02,59,3,2,0,6.484621e-01,4,1,0,3.100000e+00,1
60,882,4,5.621000e+01,64,2,2,1,3.533952e-01,4,1,0,2.100000e+00,1
60,883,4,1.254800e+02,41,3,3,1,1.934806e-01,4,1,0,3.100000e+00,1
60,884,4,4.665000e+01,16,1,1,1,2.806870e+00,4,1,0,1.200000e+00,1
60,885,6,95,3,1,2,0,4.090799e-01,NaN,2,0,2,1
60,886,6,90,36,2,2,1,6.241523e-01,NaN,2,0,2,1
60,887,6,131,65,2,2,1,9.959769e-01,NaN,2,1,3,1
60,888,6,88,45,1,1,1,1.036824e+00,NaN,2,1,2,1
60,889,6,72,2,1,2,0,1.884925e-01,NaN,2,0,2,1
60,890,6,23,52,2,2,1,1.049891e+00,NaN,2,0,1,1
60,891,6,33,55,2,2,1,1.503247e+00,NaN,2,0,1,1
60,892,6,139,12,2,2,1,1.051281e-01,NaN,2,0,3,1
60,893,6,91,15,1,1,1,1.870084e-01,NaN,2,0,2,1
60,894,6,120,54,1,1,1,1.145260e+00,NaN,2,1,3,1
60,895,6,21,64,1,1,1,4.824487e-01,NaN,2,0,1,1
60,896,6,5,8,2,2,1,2.863889e-01,NaN,2,1,1,1
60,897,6,65,16,2,2,1,1.911063e-01,NaN,2,0,2,1
60,898,6,17,26,2,2,1,3.959571e-01,NaN,2,0,1,1
60,899,6,25,66,2,2,1,6.528325e-01,NaN,2,0,1,1
60,900,6,9,39,1,1,1,1.043055e-01,NaN,2,0,1,1
60,901,6,119,49,1,1,1,1.422680e-01,NaN,2,0,3,1
60,902,6,93,72,1,1,1,1.222583e+00,NaN,2,0,2,1
60,903,6,141,38,2,2,1,2.308404e-01,NaN,2,1,3,1
60,904,6,51,30,2,2,1,6.400718e-01,NaN,2,0,2,1
60,905,6,59,58,1,1,1,2.337068e-01,NaN,2,0,2,1
60,906,6,36,62,1,1,1,8.087330e-01,NaN,2,1,1,1
60,907,6,126,42,2,2,1,4.444644e-01,NaN,2,1,3,1
60,908,6,134,71,2,2,1,6.224412e-01,NaN,2,0,3,1
60,909,6,69,69,1,1,1,6.004651e-01,NaN,2,0,2,1
60,910,6,86,70,1,1,1,3.324856e-01,NaN,2,0,2,1
60,911,6,87,10,1,2,0,7.233385e-01,NaN,2,0,2,1
60,912,6,99,11,1,1,1,1.040042e+00,NaN,2,0,3,1
60,913,6,11,48,1,1,1,1.681317e+00,NaN,2,0,1,1
60,914,6,48,41,1,2,0,3.106441e-01,NaN,2,0,1,1
60,915,6,62,37,2,2,1,2.767222e-01,NaN,2,0,2,1
60,916,6,142,68,1,1,1,4.497662e-01,NaN,2,0,3,1
60,917,6,29,18,2,2,1,3.312465e-01,NaN,2,0,1,1
60,918,6,47,59,2,2,1,9.656012e-01,NaN,2,0,1,1
60,919,6,22,4,2,2,1,1.052069e+00,NaN,2,1,1,1
60,920,6,136,34,2,2,1,6.609940e-01,NaN,2,1,3,1
60,921,6,35,7,2,2,1,3.423296e-01,NaN,2,0,1,1
60,922,6,96,1,2,2,1,2.688323e+00,NaN,2,1,2,1
60,923,6,117,25,2,2,1,3.252229e-01,NaN,2,0,3,1
60,924,6,37,21,1,2,0,1.936693e-01,NaN,2,0,1,1
60,925,6,118,46,2,2,1,3.933956e+00,NaN,2,0,3,1
60,926,6,10,27,2,2,1,1.035070e+00,NaN,2,0,1,1
60,927,6,60,51,1,1,1,1.132018e-01,NaN,2,0,2,1
60,928,6,24,61,2,2,1,3.079608e-01,NaN,2,0,1,1
60,929,6,109,9,2,1,0,7.027287e-01,NaN,2,1,3,1
60,930,6,132,44,1,1,1,1.337512e-01,NaN,2,1,3,1
60,931,6,130,56,1,1,1,2.358115e+00,NaN,2,0,3,1
60,932,6,76,53,2,2,1,1.037152e+00,NaN,2,1,2,1
60,933,6,133,20,1,1,1,2.493229e-01,NaN,2,0,3,1
60,934,6,70,14,2,2,1,3.868092e-01,NaN,2,0,2,1
60,935,6,116,6,1,1,1,6.119457e-01,NaN,2,0,3,1
60,936,6,32,5,1,1,1,2.639265e-01,NaN,2,0,1,1
60,937,6,19,17,2,2,1,2.903543e-01,NaN,2,0,1,1
60,938,6,67,22,1,1,1,4.050632e+00,NaN,2,0,2,1
60,939,6,121,40,2,2,1,6.494229e-01,NaN,2,1,3,1
60,940,6,68,35,2,2,1,1.913319e+00,NaN,2,0,2,1
60,941,6,138,50,1,2,0,7.965994e-01,NaN,2,0,3,1
60,942,6,123,13,2,2,1,1.090073e-01,NaN,2,0,3,1
60,943,6,27,67,2,2,1,2.845795e-01,NaN,2,0,1,1
60,944,6,102,57,2,2,1,2.871934e-01,NaN,2,1,3,1
60,945,6,127,29,1,1,1,1.022662e+00,NaN,2,1,3,1
60,946,6,20,31,1,1,1,2.536712e+00,NaN,2,0,1,1
60,947,6,135,19,2,2,1,1.873875e+00,NaN,2,0,3,1
60,948,6,41,24,2,1,0,2.825806e-01,NaN,2,0,1,1
60,949,6,8,47,1,1,1,1.030651e+00,NaN,2,0,1,1
60,950,6,61,28,1,1,1,3.437304e-01,NaN,2,0,2,1
60,951,6,64,60,2,2,1,4.378533e-01,NaN,2,0,2,1
60,952,6,3,63,2,1,0,2.786902e-01,NaN,2,0,1,1
60,953,6,106,23,1,1,1,1.885635e-01,NaN,2,0,3,1
60,954,6,77,43,1,1,1,2.928492e-01,NaN,2,1,2,1
60,955,6,85,32,2,2,1,8.489387e-01,NaN,2,1,2,1
60,956,6,82,33,1,1,1,4.188201e-01,NaN,2,0,2,1
60,957,6,2,30,1,1,1,6.034548e+00,NaN,1,0,1,1
60,958,6,4,2,1,1,1,3.045667e+00,NaN,1,0,1,1
60,959,6,124,24,1,1,1,9.403672e-02,NaN,1,0,3,1
60,960,6,98,21,2,2,1,5.035411e-01,NaN,1,0,3,1
60,961,6,71,57,1,1,1,5.195905e-01,NaN,1,1,2,1
60,962,6,107,53,2,2,1,2.107700e+00,NaN,1,1,3,1
60,963,6,28,51,2,2,1,3.405899e-01,NaN,1,0,1,1
60,964,6,79,39,1,1,1,1.289792e+00,NaN,1,0,2,1
60,965,6,73,23,1,1,1,1.182060e+00,NaN,1,0,2,1
60,966,6,50,63,2,1,0,2.826972e-01,NaN,1,0,2,1
60,967,6,97,32,2,2,1,5.394343e-02,NaN,1,1,3,1
60,968,6,104,18,2,1,0,5.988371e-01,NaN,1,0,3,1
60,969,6,103,45,2,1,0,1.993062e-01,NaN,1,1,3,1
60,970,6,15,71,1,1,1,5.586305e-01,NaN,1,0,1,1
60,971,6,6,38,2,2,1,1.064912e+00,NaN,1,1,1,1
60,972,6,40,44,1,2,0,3.825853e-01,NaN,1,1,1,1
60,973,6,66,49,1,1,1,2.777946e-01,NaN,1,0,2,1
60,974,6,80,31,2,2,1,1.944721e+00,NaN,1,0,2,1
60,975,6,38,35,2,2,1,8.845883e-01,NaN,1,0,1,1
60,976,6,111,67,2,2,1,5.914161e-01,NaN,1,0,3,1
60,977,6,55,8,2,2,1,5.312356e-01,NaN,1,1,2,1
60,978,6,75,26,1,1,1,8.105040e-01,NaN,1,0,2,1
60,979,6,14,68,2,2,1,1.878258e+00,NaN,1,0,1,1
60,980,6,129,61,2,2,1,7.557610e-01,NaN,1,0,3,1
60,981,6,78,25,2,1,0,5.698282e-01,NaN,1,0,2,1
60,982,6,30,69,2,1,0,2.606846e+00,NaN,1,0,1,1
60,983,6,113,66,2,2,1,1.899863e-01,NaN,1,0,3,1
60,984,6,122,62,1,1,1,3.687391e-01,NaN,1,1,3,1
60,985,6,63,17,1,1,1,7.930779e-01,NaN,1,0,2,1
60,986,6,140,10,2,2,1,9.737659e-01,NaN,1,0,3,1
60,987,6,12,12,1,1,1,9.477007e-01,NaN,1,0,1,1
60,988,6,115,43,1,1,1,2.126296e+00,NaN,1,1,3,1
60,989,6,1,58,2,1,0,4.094660e-01,NaN,1,0,1,1
60,990,6,94,54,1,2,0,1.897819e+00,NaN,1,1,2,1
60,991,6,112,72,1,1,1,2.164256e-01,NaN,1,0,3,1
60,992,6,18,29,1,1,1,1.290322e+00,NaN,1,1,1,1
60,993,6,42,20,2,1,0,3.354777e-01,NaN,1,0,1,1
60,994,6,81,9,2,2,1,3.926094e-01,NaN,1,1,2,1
60,995,6,110,1,2,2,1,2.491407e-01,NaN,1,1,3,1
60,996,6,92,46,1,1,1,1.655418e+00,NaN,1,0,2,1
60,997,6,101,36,2,2,1,4.470300e-01,NaN,1,0,3,1
60,998,6,26,65,2,2,1,1.546170e+00,NaN,1,1,1,1
60,999,6,16,34,2,2,1,2.608937e-01,NaN,1,1,1,1
60,1000,6,125,41,2,2,1,1.029674e-01,NaN,1,0,3,1
60,1001,6,34,37,2,2,1,6.804505e-01,NaN,1,0,1,1
60,1002,6,7,56,2,1,0,6.002598e-01,NaN,1,0,1,1
60,1003,6,114,5,1,1,1,2.887004e-01,NaN,1,0,3,1
60,1004,6,89,48,1,1,1,6.384302e-01,NaN,1,0,2,1
60,1005,6,46,16,1,1,1,5.932112e-01,NaN,1,0,1,1
60,1006,6,53,40,2,2,1,2.310470e-01,NaN,1,1,2,1
60,1007,6,144,55,2,2,1,2.907870e-01,NaN,1,0,3,1
60,1008,6,74,47,1,2,0,3.942933e-01,NaN,1,0,2,1
60,1009,6,137,33,2,2,1,1.520742e+00,NaN,1,0,3,1
60,1010,6,100,15,1,1,1,1.130817e+00,NaN,1,0,3,1
60,1011,6,49,27,1,1,1,6.973585e-01,NaN,1,0,2,1
60,1012,6,44,50,2,2,1,3.241880e-01,NaN,1,0,1,1
60,1013,6,54,6,2,2,1,1.762691e-01,NaN,1,0,2,1
60,1014,6,39,28,1,1,1,3.790080e-01,NaN,1,0,1,1
60,1015,6,143,70,1,1,1,1.211772e-01,NaN,1,0,3,1
60,1016,6,56,64,2,2,1,8.625150e-01,NaN,1,0,2,1
60,1017,6,57,4,1,1,1,4.130247e-01,NaN,1,1,2,1
60,1018,6,84,52,1,1,1,3.079562e-01,NaN,1,0,2,1
60,1019,6,13,19,2,2,1,1.589699e+00,NaN,1,0,1,1
60,1020,6,58,13,2,1,0,8.126191e-01,NaN,1,0,2,1
60,1021,6,43,60,1,1,1,6.792040e-01,NaN,1,0,1,1
60,1022,6,128,7,2,2,1,7.306360e-01,NaN,1,0,3,1
60,1023,6,83,11,1,1,1,9.546337e-01,NaN,1,0,2,1
60,1024,6,52,42,2,2,1,1.819490e-01,NaN,1,1,2,1
60,1025,6,45,14,2,1,0,3.061018e-01,NaN,1,0,1,1
60,1026,6,31,22,1,1,1,9.684640e-01,NaN,1,0,1,1
60,1027,6,108,59,1,1,1,1.425577e+00,NaN,1,0,3,1
60,1028,6,105,3,1,1,1,6.608253e-01,NaN,1,0,3,1
