Subject,Trial,Cond,ImageNum,CueNum,Correct,Resp,Accuracy,RT,CueRep,ImageType,Baseline,Category,Block
2,1,1,100,NaN,NaN,2,NaN,5.462521e-02,NaN,2,0,3,1
2,2,1,123,NaN,NaN,1,NaN,2.889490e+00,NaN,2,0,3,1
2,3,1,123,NaN,NaN,1,NaN,2.416089e+00,NaN,0,0,3,1
2,4,1,89,NaN,NaN,1,NaN,4.730446e-01,NaN,0,1,2,1
2,5,1,77,NaN,NaN,1,NaN,4.884518e-01,NaN,0,0,2,1
2,6,1,30,NaN,NaN,1,NaN,1.567158e+00,NaN,0,1,1,1
2,7,1,41,NaN,NaN,1,NaN,9.947666e-01,NaN,2,0,1,1
2,8,1,112,NaN,NaN,1,NaN,2.540749e+00,NaN,2,0,3,1
2,9,1,10,NaN,NaN,1,NaN,7.214344e-01,NaN,0,1,1,1
2,10,1,20,NaN,NaN,1,NaN,3.021381e-01,NaN,1,0,1,1
2,11,1,133,NaN,NaN,2,NaN,1.868510e+00,NaN,2,0,3,1
2,12,1,81,NaN,NaN,1,NaN,4.281534e-01,NaN,0,0,2,1
2,13,1,66,NaN,NaN,1,NaN,2.931847e-01,NaN,2,0,2,1
2,14,1,88,NaN,NaN,1,NaN,6.598108e-01,NaN,0,0,2,1
2,15,1,118,NaN,NaN,1,NaN,9.478602e-01,NaN,0,0,3,1
2,16,1,115,NaN,NaN,2,NaN,1.391872e+00,NaN,0,0,3,1
2,17,1,116,NaN,NaN,1,NaN,8.581492e-01,NaN,0,0,3,1
2,18,1,71,NaN,NaN,1,NaN,2.500411e-01,NaN,2,1,2,1
2,19,1,73,NaN,NaN,1,NaN,7.706870e-01,NaN,0,1,2,1
2,20,1,17,NaN,NaN,1,NaN,1.258701e-04,NaN,1,0,1,1
2,21,1,37,NaN,NaN,2,NaN,1.282849e-04,NaN,0,0,1,1
2,22,1,29,NaN,NaN,1,NaN,2.182884e-01,NaN,0,0,1,1
2,23,1,2,NaN,NaN,1,NaN,3.241466e-01,NaN,2,0,1,1
2,24,1,23,NaN,NaN,1,NaN,1.137063e+00,NaN,0,0,1,1
2,25,1,137,NaN,NaN,1,NaN,5.498275e-01,NaN,0,0,3,1
2,26,1,58,NaN,NaN,1,NaN,4.902909e-01,NaN,0,0,2,1
2,27,1,38,NaN,NaN,1,NaN,3.924401e-01,NaN,1,0,1,1
2,28,1,106,NaN,NaN,1,NaN,6.274305e-01,NaN,0,0,3,1
2,29,1,107,NaN,NaN,1,NaN,3.961114e-01,NaN,0,0,3,1
2,30,1,91,NaN,NaN,2,NaN,1.038812e+00,NaN,1,1,2,1
2,31,1,141,NaN,NaN,1,NaN,6.231763e-01,NaN,2,0,3,1
2,32,1,39,NaN,NaN,2,NaN,1.520748e+00,NaN,2,0,1,1
2,33,1,108,NaN,NaN,2,NaN,5.418141e-01,NaN,2,0,3,1
2,34,1,122,NaN,NaN,2,NaN,1.450291e+00,NaN,1,1,3,1
2,35,1,62,NaN,NaN,1,NaN,3.060446e-01,NaN,2,0,2,1
2,36,1,94,NaN,NaN,1,NaN,3.117923e-01,NaN,0,1,2,1
2,37,1,12,NaN,NaN,1,NaN,2.937905e-01,NaN,0,0,1,1
2,38,1,79,NaN,NaN,1,NaN,2.563877e+00,NaN,1,0,2,1
2,39,1,132,NaN,NaN,1,NaN,2.143492e+00,NaN,0,0,3,1
2,40,1,90,NaN,NaN,1,NaN,9.237429e-01,NaN,1,0,2,1
2,41,1,8,NaN,NaN,1,NaN,1.200752e+00,NaN,0,0,1,1
2,42,1,29,NaN,NaN,1,NaN,5.916650e-02,NaN,1,0,1,1
2,43,1,64,NaN,NaN,1,NaN,7.229705e-01,NaN,0,0,2,1
2,44,1,124,NaN,NaN,1,NaN,3.284389e-01,NaN,2,0,3,1
2,45,1,93,NaN,NaN,1,NaN,3.571533e-01,NaN,1,0,2,1
2,46,1,59,NaN,NaN,1,NaN,2.653200e-01,NaN,1,0,2,1
2,47,1,21,NaN,NaN,1,NaN,1.531631e-01,NaN,1,0,1,1
2,48,1,46,NaN,NaN,1,NaN,2.412794e+00,NaN,1,0,1,1
2,49,1,127,NaN,NaN,1,NaN,1.822101e-01,NaN,2,0,3,1
2,50,1,105,NaN,NaN,2,NaN,1.137096e+00,NaN,1,1,3,1
2,51,1,11,NaN,NaN,1,NaN,1.977072e-01,NaN,2,0,1,1
2,52,1,86,NaN,NaN,1,NaN,4.240320e-01,NaN,0,0,2,1
2,53,1,108,NaN,NaN,2,NaN,3.056012e-01,NaN,0,0,3,1
2,54,1,105,NaN,NaN,1,NaN,2.119421e+00,NaN,0,1,3,1
2,55,1,2,NaN,NaN,1,NaN,6.047491e-01,NaN,0,0,1,1
2,56,1,131,NaN,NaN,2,NaN,7.424676e-01,NaN,0,0,3,1
2,57,1,45,NaN,NaN,1,NaN,1.550146e-01,NaN,1,1,1,1
2,58,1,136,NaN,NaN,1,NaN,9.993269e-01,NaN,2,1,3,1
2,59,1,85,NaN,NaN,1,NaN,3.373654e-01,NaN,0,1,2,1
2,60,1,142,NaN,NaN,2,NaN,3.981214e-01,NaN,0,1,3,1
2,61,1,119,NaN,NaN,1,NaN,2.799200e-01,NaN,1,0,3,1
2,62,1,98,NaN,NaN,1,NaN,4.149962e-01,NaN,0,1,3,1
2,63,1,107,NaN,NaN,1,NaN,1.686623e-01,NaN,1,0,3,1
2,64,1,109,NaN,NaN,1,NaN,3.880986e-01,NaN,0,0,3,1
2,65,1,52,NaN,NaN,1,NaN,2.465669e-01,NaN,1,1,2,1
2,66,1,26,NaN,NaN,1,NaN,3.429106e-01,NaN,2,0,1,1
2,67,1,43,NaN,NaN,1,NaN,7.591628e-02,NaN,0,0,1,1
2,68,1,76,NaN,NaN,1,NaN,1.914772e+00,NaN,1,0,2,1
2,69,1,120,NaN,NaN,1,NaN,1.520668e-01,NaN,0,0,3,1
2,70,1,125,NaN,NaN,1,NaN,1.100572e+00,NaN,2,1,3,1
2,71,1,47,NaN,NaN,1,NaN,7.150627e-01,NaN,2,0,1,1
2,72,1,130,NaN,NaN,2,NaN,4.324496e-01,NaN,0,0,3,1
2,73,1,80,NaN,NaN,1,NaN,9.054510e-01,NaN,2,1,2,1
2,74,1,121,NaN,NaN,1,NaN,3.269478e-01,NaN,2,0,3,1
2,75,1,69,NaN,NaN,1,NaN,3.966019e-01,NaN,2,0,2,1
2,76,1,128,NaN,NaN,1,NaN,1.907539e-01,NaN,2,0,3,1
2,77,1,9,NaN,NaN,1,NaN,2.731677e-01,NaN,0,0,1,1
2,78,1,125,NaN,NaN,1,NaN,1.072953e+00,NaN,0,1,3,1
2,79,1,110,NaN,NaN,1,NaN,3.215655e+00,NaN,1,0,3,1
2,80,1,126,NaN,NaN,2,NaN,1.840819e+00,NaN,2,0,3,1
2,81,1,94,NaN,NaN,1,NaN,3.934603e-01,NaN,2,1,2,1
2,82,1,132,NaN,NaN,1,NaN,9.993061e-02,NaN,1,0,3,1
2,83,1,97,NaN,NaN,1,NaN,7.782513e-01,NaN,2,0,3,1
2,84,1,31,NaN,NaN,1,NaN,1.252015e-01,NaN,0,0,1,1
2,85,1,56,NaN,NaN,1,NaN,5.787650e-01,NaN,0,1,2,1
2,86,1,82,NaN,NaN,1,NaN,8.372777e-01,NaN,0,1,2,1
2,87,1,3,NaN,NaN,1,NaN,1.261720e-04,NaN,0,0,1,1
2,88,1,19,NaN,NaN,1,NaN,1.276812e-04,NaN,0,0,1,1
2,89,1,22,NaN,NaN,1,NaN,2.586483e-01,NaN,2,0,1,1
2,90,1,71,NaN,NaN,1,NaN,6.428727e-01,NaN,0,1,2,1
2,91,1,24,NaN,NaN,1,NaN,2.832467e-01,NaN,1,0,1,1
2,92,1,90,NaN,NaN,1,NaN,3.545115e-01,NaN,0,0,2,1
2,93,1,39,NaN,NaN,1,NaN,1.118245e+00,NaN,0,0,1,1
2,94,1,126,NaN,NaN,2,NaN,3.638642e-01,NaN,0,0,3,1
2,95,1,143,NaN,NaN,1,NaN,1.193572e-01,NaN,0,1,3,1
2,96,1,52,NaN,NaN,1,NaN,4.610843e-01,NaN,0,1,2,1
2,97,1,53,NaN,NaN,1,NaN,4.449252e-01,NaN,0,0,2,1
2,98,1,28,NaN,NaN,1,NaN,3.409851e-01,NaN,0,0,1,1
2,99,1,44,NaN,NaN,1,NaN,3.378616e-01,NaN,2,0,1,1
2,100,1,68,NaN,NaN,1,NaN,4.619825e-02,NaN,0,1,2,1
2,101,1,61,NaN,NaN,1,NaN,7.104508e-01,NaN,1,0,2,1
2,102,1,120,NaN,NaN,1,NaN,2.443365e-01,NaN,1,0,3,1
2,103,1,87,NaN,NaN,1,NaN,2.052398e-01,NaN,0,0,2,1
2,104,1,44,NaN,NaN,1,NaN,6.072982e-01,NaN,0,0,1,1
2,105,1,114,NaN,NaN,1,NaN,2.169282e-01,NaN,0,0,3,1
2,106,1,118,NaN,NaN,1,NaN,7.869526e-01,NaN,1,0,3,1
2,107,1,88,NaN,NaN,1,NaN,1.789529e+00,NaN,2,0,2,1
2,108,1,15,NaN,NaN,1,NaN,3.436166e-01,NaN,0,0,1,1
2,109,1,55,NaN,NaN,1,NaN,1.068435e+00,NaN,2,0,2,1
2,110,1,117,NaN,NaN,2,NaN,2.659511e+00,NaN,1,1,3,1
2,111,1,76,NaN,NaN,1,NaN,3.796016e-01,NaN,0,0,2,1
2,112,1,16,NaN,NaN,1,NaN,4.302971e-01,NaN,2,1,1,1
2,113,1,74,NaN,NaN,1,NaN,3.595662e-01,NaN,1,0,2,1
2,114,1,101,NaN,NaN,2,NaN,2.435354e-01,NaN,2,0,3,1
2,115,1,129,NaN,NaN,1,NaN,3.719595e-01,NaN,0,1,3,1
2,116,1,25,NaN,NaN,1,NaN,8.869113e-01,NaN,0,0,1,1
2,117,1,85,NaN,NaN,1,NaN,2.215142e-01,NaN,2,1,2,1
2,118,1,101,NaN,NaN,1,NaN,1.752426e-01,NaN,0,0,3,1
2,119,1,81,NaN,NaN,1,NaN,3.623218e-01,NaN,1,0,2,1
2,120,1,113,NaN,NaN,1,NaN,4.137224e-01,NaN,0,0,3,1
2,121,1,31,NaN,NaN,1,NaN,4.878034e-01,NaN,1,0,1,1
2,122,1,63,NaN,NaN,1,NaN,2.862307e-01,NaN,2,1,2,1
2,123,1,51,NaN,NaN,1,NaN,5.491411e-01,NaN,1,1,2,1
2,124,1,4,NaN,NaN,1,NaN,1.352274e-04,NaN,0,0,1,1
2,125,1,4,NaN,NaN,1,NaN,2.279450e-01,NaN,1,0,1,1
2,126,1,33,NaN,NaN,1,NaN,4.688921e-01,NaN,1,0,1,1
2,127,1,18,NaN,NaN,1,NaN,3.563633e-01,NaN,0,1,1,1
2,128,1,59,NaN,NaN,1,NaN,3.282333e-01,NaN,0,0,2,1
2,129,1,47,NaN,NaN,1,NaN,4.372052e-01,NaN,0,0,1,1
2,130,1,65,NaN,NaN,1,NaN,1.037872e+00,NaN,1,0,2,1
2,131,1,130,NaN,NaN,2,NaN,8.546879e-01,NaN,1,0,3,1
2,132,1,6,NaN,NaN,1,NaN,1.497160e-04,NaN,2,0,1,1
2,133,1,93,NaN,NaN,1,NaN,1.527441e-01,NaN,0,0,2,1
2,134,1,111,NaN,NaN,1,NaN,1.328126e-04,NaN,0,0,3,1
2,135,1,139,NaN,NaN,1,NaN,1.288886e-04,NaN,1,0,3,1
2,136,1,115,NaN,NaN,2,NaN,7.537030e-01,NaN,1,0,3,1
2,137,1,74,NaN,NaN,1,NaN,3.415188e-01,NaN,0,0,2,1
2,138,1,103,NaN,NaN,1,NaN,3.061391e-01,NaN,0,0,3,1
2,139,1,28,NaN,NaN,1,NaN,3.999582e-01,NaN,1,0,1,1
2,140,1,25,NaN,NaN,1,NaN,2.428056e-01,NaN,1,0,1,1
2,141,1,57,NaN,NaN,1,NaN,1.107022e+00,NaN,0,0,2,1
2,142,1,106,NaN,NaN,1,NaN,3.693443e-01,NaN,2,0,3,1
2,143,1,140,NaN,NaN,1,NaN,4.475211e-02,NaN,0,0,3,1
2,144,1,135,NaN,NaN,1,NaN,4.766761e-01,NaN,2,1,3,1
2,145,1,8,NaN,NaN,1,NaN,6.201491e-01,NaN,1,0,1,1
2,146,1,140,NaN,NaN,1,NaN,1.397166e+00,NaN,2,0,3,1
2,147,1,37,NaN,NaN,1,NaN,4.954897e-01,NaN,2,0,1,1
2,148,1,5,NaN,NaN,1,NaN,8.379508e-01,NaN,0,0,1,1
2,149,1,27,NaN,NaN,1,NaN,5.503832e-01,NaN,0,0,1,1
2,150,1,15,NaN,NaN,1,NaN,4.264407e-01,NaN,1,0,1,1
2,151,1,49,NaN,NaN,1,NaN,1.931841e+00,NaN,2,0,2,1
2,152,1,91,NaN,NaN,1,NaN,3.683566e-01,NaN,0,1,2,1
2,153,1,32,NaN,NaN,1,NaN,5.243649e-01,NaN,2,1,1,1
2,154,1,14,NaN,NaN,1,NaN,1.252664e-04,NaN,0,0,1,1
2,155,1,104,NaN,NaN,2,NaN,6.196839e-01,NaN,0,0,3,1
2,156,1,87,NaN,NaN,1,NaN,1.284718e+00,NaN,2,0,2,1
2,157,1,128,NaN,NaN,1,NaN,7.956820e-01,NaN,0,0,3,1
2,158,1,96,NaN,NaN,1,NaN,2.623272e-01,NaN,0,0,2,1
2,159,1,95,NaN,NaN,1,NaN,3.419818e-01,NaN,1,0,2,1
2,160,1,82,NaN,NaN,1,NaN,1.383337e-01,NaN,1,1,2,1
2,161,1,96,NaN,NaN,1,NaN,3.350783e-01,NaN,2,0,2,1
2,162,1,35,NaN,NaN,1,NaN,2.680427e-01,NaN,0,0,1,1
2,163,1,21,NaN,NaN,1,NaN,2.754041e-01,NaN,0,0,1,1
2,164,1,22,NaN,NaN,1,NaN,3.468205e-01,NaN,0,0,1,1
2,165,1,103,NaN,NaN,1,NaN,7.273128e-01,NaN,1,0,3,1
2,166,1,20,NaN,NaN,2,NaN,1.436200e+00,NaN,0,0,1,1
2,167,1,69,NaN,NaN,1,NaN,4.292331e-01,NaN,0,0,2,1
2,168,1,110,NaN,NaN,1,NaN,4.229423e-01,NaN,0,0,3,1
2,169,1,117,NaN,NaN,2,NaN,1.367391e+00,NaN,0,1,3,1
2,170,1,102,NaN,NaN,2,NaN,4.828812e-01,NaN,0,0,3,1
2,171,1,138,NaN,NaN,1,NaN,4.495271e-01,NaN,1,0,3,1
2,172,1,78,NaN,NaN,1,NaN,2.100730e-01,NaN,0,0,2,1
2,173,1,66,NaN,NaN,1,NaN,1.401858e-01,NaN,0,0,2,1
2,174,1,99,NaN,NaN,2,NaN,4.886130e-01,NaN,0,0,3,1
2,175,1,143,NaN,NaN,1,NaN,4.310052e-01,NaN,1,1,3,1
2,176,1,35,NaN,NaN,1,NaN,8.229249e-03,NaN,2,0,1,1
2,177,1,10,NaN,NaN,1,NaN,2.980628e-01,NaN,1,1,1,1
2,178,1,11,NaN,NaN,1,NaN,5.926194e-01,NaN,0,0,1,1
2,179,1,133,NaN,NaN,2,NaN,3.308211e-01,NaN,0,0,3,1
2,180,1,139,NaN,NaN,1,NaN,1.264738e-04,NaN,0,0,3,1
2,181,1,72,NaN,NaN,1,NaN,1.267757e-04,NaN,1,1,2,1
2,182,1,122,NaN,NaN,1,NaN,2.689105e-01,NaN,0,1,3,1
2,183,1,13,NaN,NaN,1,NaN,2.922997e-01,NaN,0,0,1,1
2,184,1,30,NaN,NaN,1,NaN,2.030149e-01,NaN,2,1,1,1
2,185,1,79,NaN,NaN,1,NaN,2.451014e-01,NaN,0,0,2,1
2,186,1,5,NaN,NaN,1,NaN,7.170878e-01,NaN,1,0,1,1
2,187,1,83,NaN,NaN,1,NaN,3.868106e-01,NaN,0,0,2,1
2,188,1,18,NaN,NaN,1,NaN,3.252595e-01,NaN,2,1,1,1
2,189,1,55,NaN,NaN,1,NaN,2.423981e-01,NaN,0,0,2,1
2,190,1,13,NaN,NaN,1,NaN,4.511330e-01,NaN,1,0,1,1
2,191,1,134,NaN,NaN,2,NaN,1.073488e-01,NaN,0,1,3,1
2,192,1,63,NaN,NaN,1,NaN,5.933665e-01,NaN,0,1,2,1
2,193,1,61,NaN,NaN,1,NaN,2.200095e-01,NaN,0,0,2,1
2,194,1,134,NaN,NaN,1,NaN,1.277281e+00,NaN,1,1,3,1
2,195,1,142,NaN,NaN,1,NaN,4.122593e-01,NaN,1,1,3,1
2,196,1,40,NaN,NaN,1,NaN,3.741584e-01,NaN,2,0,1,1
2,197,1,83,NaN,NaN,1,NaN,3.212199e-01,NaN,2,0,2,1
2,198,1,12,NaN,NaN,1,NaN,2.627456e-01,NaN,1,0,1,1
2,199,1,144,NaN,NaN,1,NaN,3.663068e-01,NaN,1,1,3,1
2,200,1,112,NaN,NaN,1,NaN,2.019135e-01,NaN,0,0,3,1
2,201,1,116,NaN,NaN,1,NaN,3.484178e-01,NaN,1,0,3,1
2,202,1,36,NaN,NaN,1,NaN,2.086471e-01,NaN,2,1,1,1
2,203,1,67,NaN,NaN,1,NaN,3.863138e-01,NaN,0,1,2,1
2,204,1,70,NaN,NaN,1,NaN,3.090639e-01,NaN,2,0,2,1
2,205,1,67,NaN,NaN,1,NaN,1.868299e-01,NaN,1,1,2,1
2,206,1,102,NaN,NaN,1,NaN,1.255683e-04,NaN,2,0,3,1
2,207,1,64,NaN,NaN,1,NaN,6.318070e-01,NaN,2,0,2,1
2,208,1,65,NaN,NaN,1,NaN,6.889952e-01,NaN,0,0,2,1
2,209,1,27,NaN,NaN,1,NaN,2.472101e-01,NaN,2,0,1,1
2,210,1,77,NaN,NaN,1,NaN,7.166386e-02,NaN,2,0,2,1
2,211,1,23,NaN,NaN,1,NaN,3.429197e-01,NaN,1,0,1,1
2,212,1,50,NaN,NaN,2,NaN,4.995715e-01,NaN,0,0,2,1
2,213,1,78,NaN,NaN,1,NaN,2.420268e-01,NaN,1,0,2,1
2,214,1,98,NaN,NaN,1,NaN,1.288886e-04,NaN,1,1,3,1
2,215,1,104,NaN,NaN,1,NaN,4.488824e-02,NaN,1,0,3,1
2,216,1,124,NaN,NaN,1,NaN,5.890875e-01,NaN,0,0,3,1
2,217,1,95,NaN,NaN,1,NaN,2.239914e-01,NaN,0,0,2,1
2,218,1,80,NaN,NaN,1,NaN,2.969662e-01,NaN,0,1,2,1
2,219,1,41,NaN,NaN,1,NaN,5.115189e-01,NaN,0,0,1,1
2,220,1,43,NaN,NaN,1,NaN,3.252713e-01,NaN,2,0,1,1
2,221,1,75,NaN,NaN,1,NaN,2.904958e-01,NaN,1,1,2,1
2,222,1,58,NaN,NaN,1,NaN,1.851691e-01,NaN,1,0,2,1
2,223,1,144,NaN,NaN,1,NaN,3.402671e-01,NaN,0,1,3,1
2,224,1,72,NaN,NaN,1,NaN,8.888814e-02,NaN,0,1,2,1
2,225,1,19,NaN,NaN,1,NaN,1.095498e+00,NaN,2,0,1,1
2,226,1,60,NaN,NaN,1,NaN,1.869386e+00,NaN,0,0,2,1
2,227,1,53,NaN,NaN,1,NaN,5.170331e-01,NaN,1,0,2,1
2,228,1,40,NaN,NaN,1,NaN,2.025615e-01,NaN,0,0,1,1
2,229,1,68,NaN,NaN,1,NaN,4.532537e-01,NaN,2,1,2,1
2,230,1,26,NaN,NaN,1,NaN,6.768905e-01,NaN,0,0,1,1
2,231,1,3,NaN,NaN,1,NaN,9.996954e-02,NaN,2,0,1,1
2,232,1,111,NaN,NaN,1,NaN,3.544566e-01,NaN,2,0,3,1
2,233,1,84,NaN,NaN,1,NaN,2.785346e-01,NaN,2,0,2,1
2,234,1,113,NaN,NaN,1,NaN,1.279830e-04,NaN,2,0,3,1
2,235,1,49,NaN,NaN,1,NaN,3.596049e-01,NaN,0,0,2,1
2,236,1,60,NaN,NaN,1,NaN,3.396232e-01,NaN,2,0,2,1
2,237,1,34,NaN,NaN,1,NaN,4.723069e-01,NaN,0,1,1,1
2,238,1,86,NaN,NaN,1,NaN,4.477680e-01,NaN,1,0,2,1
2,239,1,92,NaN,NaN,1,NaN,8.155644e-01,NaN,1,0,2,1
2,240,1,36,NaN,NaN,1,NaN,2.730968e-01,NaN,0,1,1,1
2,241,1,46,NaN,NaN,1,NaN,3.032570e+00,NaN,0,0,1,1
2,242,1,62,NaN,NaN,1,NaN,1.303978e-04,NaN,0,0,2,1
2,243,1,119,NaN,NaN,1,NaN,5.955202e-01,NaN,0,0,3,1
2,244,1,75,NaN,NaN,1,NaN,3.896356e-01,NaN,0,1,2,1
2,245,1,141,NaN,NaN,1,NaN,5.207491e-01,NaN,0,0,3,1
2,246,1,57,NaN,NaN,1,NaN,1.310232e+00,NaN,2,0,2,1
2,247,1,92,NaN,NaN,1,NaN,1.796329e-01,NaN,0,0,2,1
2,248,1,48,NaN,NaN,1,NaN,6.144230e-01,NaN,0,0,1,1
2,249,1,129,NaN,NaN,1,NaN,5.118144e-01,NaN,2,1,3,1
2,250,1,42,NaN,NaN,1,NaN,5.015224e-01,NaN,1,0,1,1
2,251,1,99,NaN,NaN,2,NaN,3.639506e-01,NaN,1,0,3,1
2,252,1,51,NaN,NaN,1,NaN,2.873521e-01,NaN,0,1,2,1
2,253,1,17,NaN,NaN,1,NaN,1.022428e-01,NaN,0,0,1,1
2,254,1,38,NaN,NaN,1,NaN,1.285867e-04,NaN,0,0,1,1
2,255,1,138,NaN,NaN,1,NaN,6.386438e-01,NaN,0,0,3,1
2,256,1,6,NaN,NaN,1,NaN,2.794896e-01,NaN,0,0,1,1
2,257,1,137,NaN,NaN,1,NaN,4.221176e-01,NaN,2,0,3,1
2,258,1,32,NaN,NaN,1,NaN,5.593369e-01,NaN,0,1,1,1
2,259,1,97,NaN,NaN,1,NaN,8.436551e-01,NaN,0,0,3,1
2,260,1,131,NaN,NaN,2,NaN,1.258701e-04,NaN,1,0,3,1
2,261,1,135,NaN,NaN,1,NaN,1.900186e-01,NaN,0,1,3,1
2,262,1,109,NaN,NaN,1,NaN,8.890906e-01,NaN,2,0,3,1
2,263,1,127,NaN,NaN,1,NaN,3.992651e-01,NaN,0,0,3,1
2,264,1,84,NaN,NaN,1,NaN,3.366377e-02,NaN,0,0,2,1
2,265,1,34,NaN,NaN,1,NaN,2.423920e-01,NaN,2,1,1,1
2,266,1,7,NaN,NaN,1,NaN,4.510747e-01,NaN,1,0,1,1
2,267,1,1,NaN,NaN,1,NaN,5.955673e-01,NaN,2,0,1,1
2,268,1,70,NaN,NaN,1,NaN,6.455827e-01,NaN,0,0,2,1
2,269,1,121,NaN,NaN,1,NaN,9.660238e-01,NaN,0,0,3,1
2,270,1,33,NaN,NaN,1,NaN,1.539029e-01,NaN,0,0,1,1
2,271,1,24,NaN,NaN,1,NaN,1.429563e+00,NaN,0,0,1,1
2,272,1,54,NaN,NaN,1,NaN,4.386797e-01,NaN,2,0,2,1
2,273,1,100,NaN,NaN,2,NaN,8.710091e-01,NaN,0,0,3,1
2,274,1,16,NaN,NaN,1,NaN,7.022846e-01,NaN,0,1,1,1
2,275,1,56,NaN,NaN,1,NaN,7.005719e-01,NaN,1,1,2,1
2,276,1,73,NaN,NaN,1,NaN,6.828484e-01,NaN,2,1,2,1
2,277,1,54,NaN,NaN,1,NaN,3.213567e-01,NaN,0,0,2,1
2,278,1,1,NaN,NaN,1,NaN,1.427941e-01,NaN,0,0,1,1
2,279,1,45,NaN,NaN,1,NaN,2.914047e-01,NaN,0,1,1,1
2,280,1,9,NaN,NaN,1,NaN,3.859778e-01,NaN,1,0,1,1
2,281,1,48,NaN,NaN,1,NaN,6.449307e-01,NaN,1,0,1,1
2,282,1,114,NaN,NaN,1,NaN,4.772276e-01,NaN,1,0,3,1
2,283,1,7,NaN,NaN,1,NaN,1.485479e-01,NaN,0,0,1,1
2,284,1,50,NaN,NaN,1,NaN,6.491879e-02,NaN,1,0,2,1
2,285,1,42,NaN,NaN,1,NaN,8.324497e-01,NaN,0,0,1,1
2,286,1,89,NaN,NaN,1,NaN,3.772294e-01,NaN,2,1,2,1
2,287,1,136,NaN,NaN,1,NaN,8.684226e-01,NaN,0,1,3,1
2,288,1,14,NaN,NaN,1,NaN,8.200039e-01,NaN,2,0,1,1
2,343,2,7,37,2,0,0,3.500097e+00,NaN,1,0,1,1
2,344,2,24,43,1,0,0,3.499605e+00,NaN,1,0,1,1
2,345,2,93,8,1,0,0,3.500048e+00,NaN,1,0,2,1
2,346,2,72,56,2,1,0,2.967120e+00,NaN,1,1,2,1
2,347,2,110,27,1,1,1,2.341820e+00,NaN,1,0,3,1
2,348,2,95,44,1,0,0,3.500022e+00,NaN,1,0,2,1
2,349,2,107,16,1,0,0,3.499829e+00,NaN,1,0,3,1
2,350,2,56,30,2,1,0,1.063546e+00,NaN,1,1,2,1
2,351,2,5,39,2,0,0,3.499945e+00,NaN,1,0,1,1
2,352,2,12,19,1,0,0,3.499674e+00,NaN,1,0,1,1
2,353,2,98,61,1,0,0,3.499537e+00,NaN,1,1,3,1
2,354,2,139,48,2,0,0,3.499914e+00,NaN,1,0,3,1
2,355,2,120,65,2,0,0,3.499951e+00,NaN,1,0,3,1
2,356,2,50,22,1,0,0,3.499956e+00,NaN,1,0,2,1
2,357,2,90,60,2,1,0,2.472371e+00,NaN,1,0,2,1
2,358,2,9,53,2,0,0,3.499815e+00,NaN,1,0,1,1
2,359,2,25,7,1,1,1,2.067615e+00,NaN,1,0,1,1
2,360,2,78,11,2,0,0,3.499549e+00,NaN,1,0,2,1
2,361,2,42,57,2,1,0,2.967003e+00,NaN,1,0,1,1
2,362,2,53,18,2,0,0,3.499688e+00,NaN,1,0,2,1
2,363,2,76,33,2,0,0,3.500091e+00,NaN,1,0,2,1
2,364,2,15,25,2,0,0,3.500029e+00,NaN,1,0,1,1
2,365,2,142,14,1,0,0,3.499710e+00,NaN,1,1,3,1
2,366,2,8,69,1,0,0,3.499534e+00,NaN,1,0,1,1
2,367,3,56,30,1,2,0,1.102982e+00,NaN,1,1,2,1
2,368,3,8,69,1,1,1,1.416246e+00,NaN,1,0,1,1
2,369,3,78,11,2,2,1,9.886346e-01,NaN,1,0,2,1
2,370,3,76,33,1,1,1,7.545029e-01,NaN,1,0,2,1
2,371,3,93,8,2,2,1,2.057812e+00,NaN,1,0,2,1
2,372,3,139,48,1,1,1,2.436697e+00,NaN,1,0,3,1
2,373,3,5,39,1,1,1,1.232208e+00,NaN,1,0,1,1
2,374,3,25,7,2,2,1,1.588095e+00,NaN,1,0,1,1
2,375,3,142,14,1,1,1,1.305925e+00,NaN,1,1,3,1
2,376,3,98,61,2,0,0,3.500028e+00,NaN,1,1,3,1
2,377,3,50,22,2,2,1,1.019977e+00,NaN,1,0,2,1
2,378,3,24,43,1,1,1,1.232341e+00,NaN,1,0,1,1
2,379,3,107,16,1,1,1,1.228313e+00,NaN,1,0,3,1
2,380,3,9,53,2,2,1,1.848014e+00,NaN,1,0,1,1
2,381,3,110,27,1,1,1,2.003299e+00,NaN,1,0,3,1
2,382,3,53,18,2,2,1,7.371563e-01,NaN,1,0,2,1
2,383,3,72,56,2,2,1,5.762723e-01,NaN,1,1,2,1
2,384,3,42,57,1,1,1,1.670500e+00,NaN,1,0,1,1
2,385,3,120,65,2,2,1,2.032904e+00,NaN,1,0,3,1
2,386,3,95,44,2,2,1,1.108862e+00,NaN,1,0,2,1
2,387,3,7,37,2,2,1,1.926044e+00,NaN,1,0,1,1
2,388,3,90,60,1,1,1,6.224066e-01,NaN,1,0,2,1
2,389,3,15,25,2,1,0,1.722468e+00,NaN,1,0,1,1
2,390,3,12,19,1,1,1,1.050771e+00,NaN,1,0,1,1
2,415,2,91,46,1,1,1,1.917964e+00,NaN,1,1,2,2
2,416,2,131,51,1,1,1,8.149933e-01,NaN,1,0,3,2
2,417,2,103,23,2,2,1,2.035700e+00,NaN,1,0,3,2
2,418,2,138,55,1,1,1,9.993797e-01,NaN,1,0,3,2
2,419,2,67,13,1,1,1,2.500812e+00,NaN,1,1,2,2
2,420,2,45,31,1,1,1,2.485749e+00,NaN,1,1,1,2
2,421,2,114,32,2,2,1,2.136144e+00,NaN,1,0,3,2
2,422,2,115,35,2,2,1,1.840039e+00,NaN,1,0,3,2
2,423,2,130,54,2,2,1,3.395256e+00,NaN,1,0,3,2
2,424,2,92,42,1,0,0,3.499630e+00,NaN,1,0,2,2
2,425,2,31,1,1,1,1,9.456534e-01,NaN,1,0,1,2
2,426,2,144,59,2,2,1,8.331116e-01,NaN,1,1,3,2
2,427,2,122,28,2,2,1,2.453261e+00,NaN,1,1,3,2
2,428,2,52,38,1,1,1,2.287950e+00,NaN,1,1,2,2
2,429,2,86,36,2,2,1,1.121590e+00,NaN,1,0,2,2
2,430,2,82,34,1,1,1,2.065887e+00,NaN,1,1,2,2
2,431,2,23,72,2,2,1,9.887574e-01,NaN,1,0,1,2
2,432,2,59,10,1,1,1,1.538317e+00,NaN,1,0,2,2
2,433,2,116,24,2,2,1,1.754047e+00,NaN,1,0,3,2
2,434,2,117,52,2,2,1,1.569136e+00,NaN,1,1,3,2
2,435,2,105,20,1,2,0,2.431560e+00,NaN,1,1,3,2
2,436,2,132,47,2,2,1,9.641240e-01,NaN,1,0,3,2
2,437,2,28,15,1,1,1,1.193710e+00,NaN,1,0,1,2
2,438,2,48,58,2,2,1,1.951820e+00,NaN,1,0,1,2
2,439,3,132,47,2,0,0,3.499897e+00,NaN,1,0,3,2
2,440,3,59,10,2,2,1,1.331512e+00,NaN,1,0,2,2
2,441,3,115,35,1,2,0,2.435413e+00,NaN,1,0,3,2
2,442,3,91,46,2,2,1,6.072708e-01,NaN,1,1,2,2
2,443,3,130,54,2,2,1,1.404282e+00,NaN,1,0,3,2
2,444,3,28,15,1,1,1,8.893967e-01,NaN,1,0,1,2
2,445,3,144,59,1,1,1,9.950573e-01,NaN,1,1,3,2
2,446,3,117,52,2,2,1,1.144384e+00,NaN,1,1,3,2
2,447,3,23,72,2,2,1,1.632060e+00,NaN,1,0,1,2
2,448,3,82,34,1,1,1,8.843127e-01,NaN,1,1,2,2
2,449,3,31,1,1,1,1,5.742373e-01,NaN,1,0,1,2
2,450,3,86,36,1,1,1,7.650729e-01,NaN,1,0,2,2
2,451,3,92,42,1,1,1,4.913951e-01,NaN,1,0,2,2
2,452,3,67,13,1,1,1,6.050842e-01,NaN,1,1,2,2
2,453,3,48,58,1,1,1,7.866758e-01,NaN,1,0,1,2
2,454,3,138,55,1,1,1,6.078889e-01,NaN,1,0,3,2
2,455,3,52,38,2,2,1,1.429364e+00,NaN,1,1,2,2
2,456,3,131,51,2,2,1,8.652456e-01,NaN,1,0,3,2
2,457,3,45,31,2,1,0,1.036883e+00,NaN,1,1,1,2
2,458,3,103,23,1,1,1,1.111932e+00,NaN,1,0,3,2
2,459,3,114,32,2,2,1,1.128592e+00,NaN,1,0,3,2
2,460,3,105,20,1,2,0,8.563704e-01,NaN,1,1,3,2
2,461,3,122,28,1,2,0,1.211528e+00,NaN,1,1,3,2
2,462,3,116,24,1,0,0,3.499857e+00,NaN,1,0,3,2
2,487,2,29,41,1,1,1,1.818576e+00,NaN,1,0,1,3
2,488,2,75,71,1,1,1,6.315139e-01,NaN,1,1,2,3
2,489,2,99,45,1,1,1,1.227147e+00,NaN,1,0,3,3
2,490,2,4,21,2,2,1,1.903487e+00,NaN,1,0,1,3
2,491,2,61,49,2,2,1,8.403786e-01,NaN,1,0,2,3
2,492,2,33,26,2,2,1,1.316188e+00,NaN,1,0,1,3
2,493,2,65,40,2,2,1,1.092878e+00,NaN,1,0,2,3
2,494,2,119,4,1,1,1,9.346221e-01,NaN,1,0,3,3
2,495,2,104,68,2,1,0,1.470710e+00,NaN,1,0,3,3
2,496,2,51,17,2,2,1,8.253219e-01,NaN,1,1,2,3
2,497,2,46,6,1,1,1,8.378153e-01,NaN,1,0,1,3
2,498,2,118,64,1,2,0,1.305189e+00,NaN,1,0,3,3
2,499,2,143,12,2,2,1,2.050416e+00,NaN,1,1,3,3
2,500,2,13,3,2,2,1,7.412838e-01,NaN,1,0,1,3
2,501,2,79,70,1,1,1,6.854859e-01,NaN,1,0,2,3
2,502,2,38,50,2,2,1,1.247461e+00,NaN,1,0,1,3
2,503,2,74,63,1,1,1,5.228122e-01,NaN,1,0,2,3
2,504,2,10,62,2,2,1,8.032566e-01,NaN,1,1,1,3
2,505,2,21,67,2,2,1,1.456224e+00,NaN,1,0,1,3
2,506,2,81,2,1,1,1,1.571142e+00,NaN,1,0,2,3
2,507,2,58,9,1,1,1,1.409898e+00,NaN,1,0,2,3
2,508,2,20,5,1,1,1,7.824883e-01,NaN,1,0,1,3
2,509,2,134,29,2,0,0,3.499885e+00,NaN,1,1,3,3
2,510,2,17,66,2,2,1,9.098903e-01,NaN,1,0,1,3
2,511,3,143,12,2,2,1,5.188764e-01,NaN,1,1,3,3
2,512,3,13,3,1,1,1,9.437342e-01,NaN,1,0,1,3
2,513,3,104,68,2,1,0,2.527396e+00,NaN,1,0,3,3
2,514,3,46,6,2,2,1,8.074921e-01,NaN,1,0,1,3
2,515,3,20,5,2,2,1,7.006800e-01,NaN,1,0,1,3
2,516,3,134,29,2,2,1,1.574101e+00,NaN,1,1,3,3
2,517,3,21,67,1,2,0,1.212494e+00,NaN,1,0,1,3
2,518,3,99,45,1,1,1,1.313107e+00,NaN,1,0,3,3
2,519,3,81,2,2,2,1,9.139565e-01,NaN,1,0,2,3
2,520,3,51,17,1,1,1,8.346194e-01,NaN,1,1,2,3
2,521,3,10,62,2,2,1,7.989211e-01,NaN,1,1,1,3
2,522,3,38,50,1,1,1,6.918344e-01,NaN,1,0,1,3
2,523,3,29,41,2,2,1,1.877610e+00,NaN,1,0,1,3
2,524,3,118,64,1,1,1,7.997956e-01,NaN,1,0,3,3
2,525,3,79,70,1,1,1,5.733263e-01,NaN,1,0,2,3
2,526,3,58,9,1,1,1,8.358376e-01,NaN,1,0,2,3
2,527,3,74,63,1,1,1,3.678275e-01,NaN,1,0,2,3
2,528,3,17,66,1,1,1,2.166781e+00,NaN,1,0,1,3
2,529,3,4,21,2,2,1,9.662864e-01,NaN,1,0,1,3
2,530,3,75,71,1,1,1,7.400921e-01,NaN,1,1,2,3
2,531,3,119,4,2,2,1,1.107974e+00,NaN,1,0,3,3
2,532,3,33,26,1,1,1,1.668721e+00,NaN,1,0,1,3
2,533,3,65,40,1,1,1,8.476039e-01,NaN,1,0,2,3
2,534,3,61,49,2,2,1,6.747024e-01,NaN,1,0,2,3
2,559,4,77,24,2,2,1,1.396543e+00,NaN,2,0,2,1
2,560,4,121,43,1,1,1,9.861860e-01,NaN,2,0,3,1
2,561,4,141,60,2,2,1,7.999685e-01,NaN,2,0,3,1
2,562,4,16,61,1,1,1,1.885590e+00,NaN,2,1,1,1
2,563,4,30,30,1,1,1,1.183162e+00,NaN,2,1,1,1
2,564,4,63,31,1,1,1,1.741195e+00,NaN,2,1,2,1
2,565,4,73,12,1,1,1,2.269105e+00,NaN,2,1,2,1
2,566,4,108,50,1,1,1,2.399015e+00,NaN,2,0,3,1
2,567,4,112,72,2,2,1,1.604172e+00,NaN,2,0,3,1
2,568,4,96,45,1,1,1,8.651306e-01,NaN,2,0,2,1
2,569,4,133,11,1,1,1,8.442030e-01,NaN,2,0,3,1
2,570,4,124,36,1,2,0,1.488043e+00,NaN,2,0,3,1
2,571,4,62,15,1,1,1,7.854603e-01,NaN,2,0,2,1
2,572,4,19,65,1,2,0,1.647371e+00,NaN,2,0,1,1
2,573,4,68,62,1,1,1,1.394766e+00,NaN,2,1,2,1
2,574,4,57,6,1,1,1,6.241120e-01,NaN,2,0,2,1
2,575,4,35,8,2,2,1,7.890387e-01,NaN,2,0,1,1
2,576,4,43,2,2,2,1,1.154441e+00,NaN,2,0,1,1
2,577,4,109,66,1,1,1,9.534498e-01,NaN,2,0,3,1
2,578,4,85,52,1,1,1,5.287251e-01,NaN,2,1,2,1
2,579,4,14,23,2,2,1,1.976852e+00,NaN,2,0,1,1
2,580,4,128,63,1,2,0,1.262745e+00,NaN,2,0,3,1
2,581,4,66,3,2,1,0,1.273427e+00,NaN,2,0,2,1
2,582,4,1,48,1,1,1,9.003673e-01,NaN,2,0,1,1
2,607,4,113,53,2,2,1,2.193477e+00,NaN,2,0,3,2
2,608,4,87,27,1,1,1,6.073224e-01,NaN,2,0,2,2
2,609,4,18,29,2,2,1,1.420288e+00,NaN,2,1,1,2
2,610,4,100,5,2,2,1,8.566352e-01,NaN,2,0,3,2
2,611,4,140,42,1,1,1,2.843902e+00,NaN,2,0,3,2
2,612,4,83,64,2,2,1,7.269714e-01,NaN,2,0,2,2
2,613,4,37,44,2,1,0,9.517459e-01,NaN,2,0,1,2
2,614,4,94,59,2,2,1,7.110034e-01,NaN,2,1,2,2
2,615,4,44,22,1,2,0,2.216142e+00,NaN,2,0,1,2
2,616,4,102,58,2,2,1,1.356810e+00,NaN,2,0,3,2
2,617,4,71,28,2,2,1,1.787716e+00,NaN,2,1,2,2
2,618,4,49,57,1,1,1,9.454988e-01,NaN,2,0,2,2
2,619,4,41,70,2,2,1,1.416730e+00,NaN,2,0,1,2
2,620,4,36,13,2,2,1,1.061223e+00,NaN,2,1,1,2
2,621,4,97,26,1,1,1,5.283710e-01,NaN,2,0,3,2
2,622,4,88,35,2,2,1,1.680340e+00,NaN,2,0,2,2
2,623,4,89,20,2,2,1,8.905331e-01,NaN,2,1,2,2
2,624,4,70,67,2,2,1,9.560481e-01,NaN,2,0,2,2
2,625,4,40,40,2,2,1,9.472800e-01,NaN,2,0,1,2
2,626,4,6,68,1,1,1,8.186326e-01,NaN,2,0,1,2
2,627,4,26,16,1,1,1,1.703372e+00,NaN,2,0,1,2
2,628,4,32,46,1,2,0,1.088271e+00,NaN,2,1,1,2
2,629,4,84,54,2,2,1,9.461852e-01,NaN,2,0,2,2
2,630,4,101,39,1,1,1,1.201285e+00,NaN,2,0,3,2
2,655,4,106,37,1,1,1,1.803097e+00,NaN,2,0,3,3
2,656,4,60,69,2,2,1,2.359987e+00,NaN,2,0,2,3
2,657,4,3,55,1,1,1,8.472311e-01,NaN,2,0,1,3
2,658,4,125,71,1,1,1,1.466340e+00,NaN,2,1,3,3
2,659,4,11,47,2,2,1,8.450388e-01,NaN,2,0,1,3
2,660,4,136,17,2,2,1,7.365237e-01,NaN,2,1,3,3
2,661,4,123,7,2,2,1,7.285498e-01,NaN,2,0,3,3
2,662,4,54,1,1,1,1,8.001877e-01,NaN,2,0,2,3
2,663,4,64,19,2,2,1,8.618776e-01,NaN,2,0,2,3
2,664,4,39,9,1,1,1,2.048531e+00,NaN,2,0,1,3
2,665,4,27,51,2,2,1,1.260064e+00,NaN,2,0,1,3
2,666,4,55,41,1,1,1,8.545198e-01,NaN,2,0,2,3
2,667,4,47,10,2,2,1,1.138581e+00,NaN,2,0,1,3
2,668,4,126,33,2,2,1,9.458562e-01,NaN,2,0,3,3
2,669,4,135,56,2,2,1,5.451471e-01,NaN,2,1,3,3
2,670,4,34,38,2,0,0,3.499622e+00,NaN,2,1,1,3
2,671,4,127,18,1,1,1,1.665768e+00,NaN,2,0,3,3
2,672,4,69,21,2,2,1,8.200091e-01,NaN,2,0,2,3
2,673,4,22,4,2,2,1,1.456646e+00,NaN,2,0,1,3
2,674,4,129,34,1,2,0,1.627606e+00,NaN,2,1,3,3
2,675,4,2,32,2,2,1,1.064175e+00,NaN,2,0,1,3
2,676,4,111,25,1,1,1,7.303729e-01,NaN,2,0,3,3
2,677,4,137,49,1,1,1,1.002549e+00,NaN,2,0,3,3
2,678,4,80,14,1,1,1,1.288160e+00,NaN,2,1,2,3
2,679,5,1.108700e+02,27,3,0,0,2.500256e+00,1,1,0,3.200000e+00,1
2,680,5,1.072600e+02,16,3,1,0,7.468227e-01,1,1,0,3.100000e+00,1
2,681,5,5.839000e+01,9,2,2,1,4.200980e-01,1,1,0,2.100000e+00,1
2,682,5,4.902000e+01,58,1,1,1,6.215357e-01,1,1,0,1.300000e+00,1
2,683,5,3.154000e+01,1,1,1,1,6.634454e-01,1,1,0,1.200000e+00,1
2,684,5,1.308400e+02,54,3,4,0,2.056480e+00,1,1,0,3.200000e+00,1
2,685,5,1.308400e+02,54,3,4,0,2.745801e-01,2,1,0,3.200000e+00,1
2,686,5,1.167700e+02,24,3,0,0,2.500562e+00,1,1,0,3.200000e+00,1
2,687,5,8.600000e+00,69,1,1,1,9.982034e-01,1,1,0,1.200000e+00,1
2,688,5,1.031400e+02,23,3,0,0,2.500534e+00,1,1,0,3.100000e+00,1
2,689,5,3.154000e+01,1,1,1,1,7.537727e-01,2,1,0,1.200000e+00,1
2,690,5,7.528000e+01,63,2,2,1,5.077036e-01,1,1,0,2.300000e+00,1
2,691,5,1.108700e+02,27,3,2,0,4.046947e-01,2,1,0,3.200000e+00,1
2,692,5,9.340000e+01,42,2,0,0,2.500470e+00,1,1,0,2.300000e+00,1
2,693,5,2.862000e+01,15,1,1,1,4.006530e-01,1,1,0,1.200000e+00,1
2,694,5,21,5,1,1,1,3.063479e-01,1,1,0,1.300000e+00,1
2,695,5,6.010000e+00,39,1,1,1,4.915922e-01,1,1,0,1.300000e+00,1
2,696,5,8.143000e+01,2,2,2,1,2.132638e-01,1,1,0,2.100000e+00,1
2,697,5,9.335000e+01,8,2,2,1,5.110284e-01,1,1,0,2.100000e+00,1
2,698,5,3.397000e+01,26,1,1,1,3.685386e-01,1,1,0,1.300000e+00,1
2,699,5,2.955000e+01,41,1,1,1,5.779183e-01,1,1,0,1.200000e+00,1
2,700,5,8.600000e+00,69,1,0,0,2.500440e+00,2,1,0,1.200000e+00,1
2,701,5,1.040600e+02,68,3,1,0,1.589571e+00,1,1,0,3.100000e+00,1
2,702,5,1.013000e+01,53,1,1,1,3.435409e-01,1,1,0,1.300000e+00,1
2,703,5,7.528000e+01,63,2,2,1,4.729203e-01,2,1,0,2.300000e+00,1
2,704,5,3.908000e+01,50,1,1,1,4.585982e-01,1,1,0,1.300000e+00,1
2,705,5,2.623000e+01,7,1,0,0,2.500279e+00,1,1,0,1.300000e+00,1
2,706,5,5.427000e+01,18,2,2,1,6.702481e-01,1,1,0,2.300000e+00,1
2,707,5,2.955000e+01,41,1,1,1,3.837430e-01,2,1,0,1.200000e+00,1
2,708,5,1.192200e+02,4,3,0,0,2.500103e+00,1,1,0,3.100000e+00,1
2,709,5,4.249000e+01,57,1,1,1,3.720295e-01,1,1,0,1.200000e+00,1
2,710,5,2.521000e+01,43,1,1,1,3.492404e-01,1,1,0,1.300000e+00,1
2,711,5,1.031400e+02,23,3,1,0,4.309802e-01,2,1,0,3.100000e+00,1
2,712,5,1.201900e+02,65,3,0,0,2.500456e+00,1,1,0,3.100000e+00,1
2,713,5,1.380300e+02,55,3,0,0,2.500558e+00,1,1,0,3.100000e+00,1
2,714,5,1.167700e+02,24,3,0,0,2.500325e+00,2,1,0,3.200000e+00,1
2,715,5,5.044000e+01,22,2,2,1,4.949107e-01,1,1,0,2.100000e+00,1
2,716,5,8.143000e+01,2,2,2,1,2.799342e-01,2,1,0,2.100000e+00,1
2,717,5,2.170000e+01,67,1,4,0,5.694678e-01,1,1,0,1.200000e+00,1
2,718,5,9.335000e+01,8,2,2,1,3.949928e-01,2,1,0,2.100000e+00,1
2,719,5,1.264000e+01,19,1,2,0,1.140591e+00,1,1,0,1.200000e+00,1
2,720,5,9.335000e+01,8,2,2,1,3.737213e-01,3,1,0,2.100000e+00,1
2,721,5,2.521000e+01,43,1,1,1,5.195194e-01,2,1,0,1.300000e+00,1
2,722,5,4.249000e+01,57,1,1,1,5.451338e-01,2,1,0,1.200000e+00,1
2,723,5,2.521000e+01,43,1,1,1,2.740482e-01,3,1,0,1.300000e+00,1
2,724,5,1.809000e+01,66,1,1,1,3.558710e-01,1,1,0,1.300000e+00,1
2,725,5,1.167700e+02,24,3,0,0,2.500029e+00,3,1,0,3.200000e+00,1
2,726,5,1.192200e+02,4,3,0,0,2.500442e+00,2,1,0,3.100000e+00,1
2,727,5,1.072600e+02,16,3,1,0,3.216235e-01,2,1,0,3.100000e+00,1
2,728,5,4.657000e+01,6,1,1,1,4.747507e-01,1,1,0,1.200000e+00,1
2,729,5,1.140200e+02,32,3,0,0,2.500236e+00,1,1,0,3.100000e+00,1
2,730,5,1.201900e+02,65,3,0,0,2.500418e+00,2,1,0,3.100000e+00,1
2,731,5,9.537000e+01,44,2,2,1,5.366682e-01,1,1,0,2.100000e+00,1
2,732,5,6.010000e+00,39,1,1,1,3.382607e-01,2,1,0,1.300000e+00,1
2,733,5,2.862000e+01,15,1,1,1,4.993068e-01,2,1,0,1.200000e+00,1
2,734,5,1.192200e+02,4,3,0,0,2.500389e+00,3,1,0,3.100000e+00,1
2,735,5,5.427000e+01,18,2,0,0,2.500016e+00,2,1,0,2.300000e+00,1
2,736,5,1.201900e+02,65,3,0,0,2.500482e+00,3,1,0,3.100000e+00,1
2,737,5,1.312700e+02,51,3,0,0,2.500237e+00,1,1,0,3.100000e+00,1
2,738,5,4.690000e+00,21,1,1,1,1.488104e-04,1,1,0,1.200000e+00,1
2,739,5,1.072600e+02,16,3,0,0,2.500470e+00,3,1,0,3.100000e+00,1
2,740,5,1.167700e+02,24,3,0,0,2.500543e+00,4,1,0,3.200000e+00,1
2,741,5,1.321100e+02,47,3,0,0,2.500013e+00,1,1,0,3.100000e+00,1
2,742,5,9.537000e+01,44,2,2,1,3.333729e-01,2,1,0,2.100000e+00,1
2,743,5,2.412000e+01,72,1,1,1,3.752088e-01,1,1,0,1.300000e+00,1
2,744,5,1.040600e+02,68,3,1,0,3.373195e-01,2,1,0,3.100000e+00,1
2,745,5,4.690000e+00,21,1,0,0,2.500111e+00,2,1,0,1.200000e+00,1
2,746,5,2.170000e+01,67,1,0,0,2.500097e+00,2,1,0,1.200000e+00,1
2,747,5,2.623000e+01,7,1,1,1,1.519778e+00,2,1,0,1.300000e+00,1
2,748,5,9.537000e+01,44,2,2,1,1.457176e+00,3,1,0,2.100000e+00,1
2,749,5,9.340000e+01,42,2,2,1,4.423528e-01,2,1,0,2.300000e+00,1
2,750,5,1.188300e+02,64,3,0,0,2.500294e+00,1,1,0,3.200000e+00,1
2,751,5,8.060000e+00,37,1,1,1,1.463957e-04,1,1,0,1.300000e+00,1
2,752,5,1.366000e+01,3,1,1,1,4.847026e-02,1,1,0,1.200000e+00,1
2,753,5,6.540000e+01,40,2,2,1,4.656814e-01,1,1,0,2.100000e+00,1
2,754,5,1.809000e+01,66,1,1,1,4.753815e-01,2,1,0,1.300000e+00,1
2,755,5,9.141000e+01,60,2,2,1,8.492580e-02,1,1,0,2.300000e+00,1
2,756,5,1.390100e+02,48,3,0,0,2.500398e+00,1,1,0,3.100000e+00,1
2,757,5,1.380300e+02,55,3,0,0,2.500009e+00,2,1,0,3.100000e+00,1
2,758,5,1.321100e+02,47,3,0,0,2.500319e+00,2,1,0,3.100000e+00,1
2,759,5,7.726000e+01,33,2,2,1,3.089414e-01,1,1,0,2.300000e+00,1
2,760,5,1.013000e+01,53,1,1,1,3.900600e-01,2,1,0,1.300000e+00,1
2,761,5,1.140200e+02,32,3,0,0,2.500015e+00,2,1,0,3.100000e+00,1
2,762,5,9.340000e+01,42,2,2,1,3.138247e-01,3,1,0,2.300000e+00,1
2,763,5,1.366000e+01,3,1,1,1,3.553672e-01,2,1,0,1.200000e+00,1
2,764,5,7.941000e+01,70,2,2,1,1.479049e-04,1,1,0,2.100000e+00,1
2,765,5,9.141000e+01,60,2,2,1,2.946360e-01,2,1,0,2.300000e+00,1
2,766,5,5.044000e+01,22,2,2,1,5.123116e-01,2,1,0,2.100000e+00,1
2,767,5,9.996000e+01,45,3,0,0,2.500296e+00,1,1,0,3.200000e+00,1
2,768,5,2.862000e+01,15,1,1,1,2.194085e-01,3,1,0,1.200000e+00,1
2,769,5,1.140200e+02,32,3,0,0,2.500318e+00,3,1,0,3.100000e+00,1
2,770,5,8.724000e+01,36,2,2,1,2.630067e-01,1,1,0,2.300000e+00,1
2,771,5,8.600000e+00,69,1,1,1,1.469994e-04,3,1,0,1.200000e+00,1
2,772,5,2.412000e+01,72,1,1,1,4.502314e-01,2,1,0,1.300000e+00,1
2,773,5,1.264000e+01,19,1,2,0,2.840324e-01,2,1,0,1.200000e+00,1
2,774,5,4.657000e+01,6,1,1,1,2.538206e-01,2,1,0,1.200000e+00,1
2,775,5,1.366000e+01,3,1,1,1,5.192251e-01,3,1,0,1.200000e+00,1
2,776,5,5.947000e+01,10,2,2,1,1.575640e-04,1,1,0,2.100000e+00,1
2,777,5,7.941000e+01,70,2,2,1,3.623287e-01,2,1,0,2.100000e+00,1
2,778,5,1.013000e+01,53,1,1,1,6.277133e-01,3,1,0,1.300000e+00,1
2,779,5,1.158800e+02,35,3,0,0,2.500383e+00,1,1,0,3.200000e+00,1
2,780,5,1.158800e+02,35,3,0,0,2.500314e+00,2,1,0,3.200000e+00,1
2,781,5,9.996000e+01,45,3,0,0,2.500550e+00,2,1,0,3.200000e+00,1
2,782,5,1.013000e+01,53,1,1,1,3.317103e-01,4,1,0,1.300000e+00,1
2,783,5,6.540000e+01,40,2,2,1,2.053935e-01,2,1,0,2.100000e+00,1
2,784,5,1.312700e+02,51,3,0,0,2.500597e+00,2,1,0,3.100000e+00,1
2,785,5,7.941000e+01,70,2,2,1,4.245931e-01,3,1,0,2.100000e+00,1
2,786,5,9.996000e+01,45,3,0,0,2.500210e+00,3,1,0,3.200000e+00,1
2,787,5,3.397000e+01,26,1,1,1,2.517728e-01,2,1,0,1.300000e+00,1
2,788,5,1.380300e+02,55,3,0,0,2.500495e+00,3,1,0,3.100000e+00,1
2,789,5,9.996000e+01,45,3,0,0,2.500385e+00,4,1,0,3.200000e+00,1
2,790,5,1.380300e+02,55,3,0,0,2.500164e+00,4,1,0,3.100000e+00,1
2,791,5,2.170000e+01,67,1,1,1,2.839349e-01,3,1,0,1.200000e+00,1
2,792,5,4.902000e+01,58,1,1,1,5.491508e-01,2,1,0,1.300000e+00,1
2,793,5,8.724000e+01,36,2,2,1,1.054711e+00,2,1,0,2.300000e+00,1
2,794,5,1.040600e+02,68,3,0,0,2.500380e+00,3,1,0,3.100000e+00,1
2,795,5,1.140200e+02,32,3,0,0,2.500204e+00,4,1,0,3.100000e+00,1
2,796,5,8.600000e+00,69,1,1,1,4.122786e-01,4,1,0,1.200000e+00,1
2,797,5,1.188300e+02,64,3,2,0,1.469780e+00,2,1,0,3.200000e+00,1
2,798,5,7.941000e+01,70,2,2,1,4.872785e-01,4,1,0,2.100000e+00,1
2,799,5,4.249000e+01,57,1,1,1,3.686005e-01,3,1,0,1.200000e+00,1
2,800,5,1.108700e+02,27,3,2,0,4.023636e-01,3,1,0,3.200000e+00,1
2,801,5,2.521000e+01,43,1,1,1,5.637644e-01,4,1,0,1.300000e+00,1
2,802,5,3.908000e+01,50,1,1,1,7.973914e-01,2,1,0,1.300000e+00,1
2,803,5,4.902000e+01,58,1,2,0,3.272946e-01,3,1,0,1.300000e+00,1
2,804,5,3.908000e+01,50,1,1,1,2.723310e-01,3,1,0,1.300000e+00,1
2,805,5,3.908000e+01,50,1,1,1,3.854055e-01,4,1,0,1.300000e+00,1
2,806,5,1.390100e+02,48,3,0,0,2.500411e+00,2,1,0,3.100000e+00,1
2,807,5,21,5,1,1,1,4.291069e-01,2,1,0,1.300000e+00,1
2,808,5,4.690000e+00,21,1,1,1,6.383948e-01,3,1,0,1.200000e+00,1
2,809,5,5.947000e+01,10,2,2,1,1.623799e+00,2,1,0,2.100000e+00,1
2,810,5,1.366000e+01,3,1,1,1,9.063532e-01,4,1,0,1.200000e+00,1
2,811,5,7.528000e+01,63,2,2,1,4.513790e-01,3,1,0,2.300000e+00,1
2,812,5,21,5,1,1,1,6.367392e-01,3,1,0,1.300000e+00,1
2,813,5,1.312700e+02,51,3,0,0,2.500174e+00,3,1,0,3.100000e+00,1
2,814,5,5.947000e+01,10,2,0,0,2.500081e+00,3,1,0,2.100000e+00,1
2,815,5,6.010000e+00,39,1,1,1,4.253082e-02,3,1,0,1.300000e+00,1
2,816,5,1.308400e+02,54,3,0,0,2.500368e+00,3,1,0,3.200000e+00,1
2,817,5,9.335000e+01,8,2,2,1,2.701577e-01,4,1,0,2.100000e+00,1
2,818,5,6.010000e+00,39,1,1,1,4.477170e-01,4,1,0,1.300000e+00,1
2,819,5,4.902000e+01,58,1,1,1,6.969727e-01,4,1,0,1.300000e+00,1
2,820,5,4.690000e+00,21,1,1,1,4.186144e-01,4,1,0,1.200000e+00,1
2,821,5,1.390100e+02,48,3,0,0,2.500180e+00,3,1,0,3.100000e+00,1
2,822,5,1.611000e+01,25,1,1,1,5.424093e-01,1,1,0,1.300000e+00,1
2,823,5,1.158800e+02,35,3,2,0,3.921913e-01,3,1,0,3.200000e+00,1
2,824,5,2.955000e+01,41,1,1,1,2.418620e-01,3,1,0,1.200000e+00,1
2,825,5,5.044000e+01,22,2,2,1,2.059308e+00,3,1,0,2.100000e+00,1
2,826,5,1.108700e+02,27,3,2,0,4.613707e-01,4,1,0,3.200000e+00,1
2,827,5,8.143000e+01,2,2,2,1,3.507565e-01,3,1,0,2.100000e+00,1
2,828,5,3.154000e+01,1,1,1,1,3.203452e-01,3,1,0,1.200000e+00,1
2,829,5,3.397000e+01,26,1,0,0,2.500560e+00,3,1,0,1.300000e+00,1
2,830,5,5.839000e+01,9,2,2,1,3.402378e-01,2,1,0,2.100000e+00,1
2,831,5,1.031400e+02,23,3,1,0,3.250745e-01,3,1,0,3.100000e+00,1
2,832,5,1.611000e+01,25,1,1,1,4.713455e-01,2,1,0,1.300000e+00,1
2,833,5,1.321100e+02,47,3,4,0,3.844843e-01,3,1,0,3.100000e+00,1
2,834,5,4.657000e+01,6,1,1,1,6.419038e-01,3,1,0,1.200000e+00,1
2,835,5,8.724000e+01,36,2,2,1,4.837282e-01,3,1,0,2.300000e+00,1
2,836,5,1.192200e+02,4,3,2,0,1.045619e+00,4,1,0,3.100000e+00,1
2,837,5,9.537000e+01,44,2,2,1,4.385906e-01,4,1,0,2.100000e+00,1
2,838,5,1.264000e+01,19,1,1,1,4.484963e-01,3,1,0,1.200000e+00,1
2,839,5,8.060000e+00,37,1,1,1,2.895843e-01,2,1,0,1.300000e+00,1
2,840,5,1.611000e+01,25,1,1,1,5.552194e-01,3,1,0,1.300000e+00,1
2,841,5,2.862000e+01,15,1,1,1,2.607609e-01,4,1,0,1.200000e+00,1
2,842,5,4.657000e+01,6,1,1,1,4.461872e-01,4,1,0,1.200000e+00,1
2,843,5,2.955000e+01,41,1,1,1,4.875294e-01,4,1,0,1.200000e+00,1
2,844,5,8.724000e+01,36,2,2,1,3.767863e-01,4,1,0,2.300000e+00,1
2,845,5,1.390100e+02,48,3,4,0,3.142026e-01,4,1,0,3.100000e+00,1
2,846,5,5.947000e+01,10,2,2,1,5.718641e-01,4,1,0,2.100000e+00,1
2,847,5,8.060000e+00,37,1,1,1,3.891605e-01,3,1,0,1.300000e+00,1
2,848,5,1.809000e+01,66,1,1,1,2.146058e-01,3,1,0,1.300000e+00,1
2,849,5,5.427000e+01,18,2,2,1,1.466975e-04,3,1,0,2.300000e+00,1
2,850,5,4.249000e+01,57,1,1,1,2.258381e-01,4,1,0,1.200000e+00,1
2,851,5,8.143000e+01,2,2,2,1,6.671140e-01,4,1,0,2.100000e+00,1
2,852,5,9.340000e+01,42,2,2,1,3.491006e-01,4,1,0,2.300000e+00,1
2,853,5,1.312700e+02,51,3,0,0,2.500494e+00,4,1,0,3.100000e+00,1
2,854,5,5.839000e+01,9,2,0,0,2.500226e+00,3,1,0,2.100000e+00,1
2,855,5,5.427000e+01,18,2,2,1,3.704759e-01,4,1,0,2.300000e+00,1
2,856,5,1.201900e+02,65,3,0,0,2.500093e+00,4,1,0,3.100000e+00,1
2,857,5,6.237000e+01,49,2,4,0,3.100941e-01,1,1,0,2.300000e+00,1
2,858,5,7.528000e+01,63,2,2,1,3.516183e-01,4,1,0,2.300000e+00,1
2,859,5,1.308400e+02,54,3,4,0,7.690139e-01,4,1,0,3.200000e+00,1
2,860,5,7.933000e+01,11,2,2,1,2.506650e-01,1,1,0,2.300000e+00,1
2,861,5,6.237000e+01,49,2,2,1,5.880839e-01,2,1,0,2.300000e+00,1
2,862,5,5.044000e+01,22,2,2,1,6.933300e-02,4,1,0,2.100000e+00,1
2,863,5,1.040600e+02,68,3,1,0,3.587935e-01,4,1,0,3.100000e+00,1
2,864,5,1.321100e+02,47,3,4,0,4.402813e-01,4,1,0,3.100000e+00,1
2,865,5,7.726000e+01,33,2,2,1,2.256051e-01,2,1,0,2.300000e+00,1
2,866,5,5.839000e+01,9,2,2,1,2.593009e-01,4,1,0,2.100000e+00,1
2,867,5,1.264000e+01,19,1,1,1,7.566354e-01,4,1,0,1.200000e+00,1
2,868,5,7.933000e+01,11,2,2,1,2.784712e-01,2,1,0,2.300000e+00,1
2,869,5,1.072600e+02,16,3,4,0,1.399614e+00,4,1,0,3.100000e+00,1
2,870,5,2.412000e+01,72,1,1,1,4.330182e-01,3,1,0,1.300000e+00,1
2,871,5,21,5,1,1,1,3.230663e-01,4,1,0,1.300000e+00,1
2,872,5,2.623000e+01,7,1,1,1,4.045157e-01,3,1,0,1.300000e+00,1
2,873,5,6.237000e+01,49,2,2,1,8.619235e-01,3,1,0,2.300000e+00,1
2,874,5,7.933000e+01,11,2,2,1,3.031948e-01,3,1,0,2.300000e+00,1
2,875,5,1.188300e+02,64,3,4,0,2.325699e-01,3,1,0,3.200000e+00,1
2,876,5,1.611000e+01,25,1,1,1,2.580630e-01,4,1,0,1.300000e+00,1
2,877,5,2.623000e+01,7,1,1,1,1.996091e+00,4,1,0,1.300000e+00,1
2,878,5,3.154000e+01,1,1,2,0,5.580097e-01,4,1,0,1.200000e+00,1
2,879,5,7.933000e+01,11,2,2,1,3.598282e-01,4,1,0,2.300000e+00,1
2,880,5,7.726000e+01,33,2,2,1,1.452888e-01,3,1,0,2.300000e+00,1
2,881,5,3.397000e+01,26,1,1,1,4.190620e-01,4,1,0,1.300000e+00,1
2,882,5,6.540000e+01,40,2,2,1,3.804969e-01,3,1,0,2.100000e+00,1
2,883,5,2.170000e+01,67,1,1,1,2.856391e-01,4,1,0,1.200000e+00,1
2,884,5,1.031400e+02,23,3,1,0,9.429114e-01,4,1,0,3.100000e+00,1
2,885,5,6.540000e+01,40,2,2,1,2.964030e-01,4,1,0,2.100000e+00,1
2,886,5,9.141000e+01,60,2,2,1,7.464843e-01,3,1,0,2.300000e+00,1
2,887,5,2.412000e+01,72,1,1,1,4.757872e-01,4,1,0,1.300000e+00,1
2,888,5,8.060000e+00,37,1,1,1,6.916608e-02,4,1,0,1.300000e+00,1
2,889,5,7.726000e+01,33,2,2,1,3.263875e-01,4,1,0,2.300000e+00,1
2,890,5,6.237000e+01,49,2,2,1,8.957506e-01,4,1,0,2.300000e+00,1
2,891,5,9.141000e+01,60,2,2,1,4.892807e-01,4,1,0,2.300000e+00,1
2,892,5,1.158800e+02,35,3,2,0,3.390618e-01,4,1,0,3.200000e+00,1
2,893,5,1.809000e+01,66,1,1,1,5.800466e-01,4,1,0,1.300000e+00,1
2,894,5,1.188300e+02,64,3,2,0,3.819636e-01,4,1,0,3.200000e+00,1
2,895,6,106,37,1,1,1,1.757351e+00,NaN,2,0,3,1
2,896,6,18,29,1,1,1,2.918146e+00,NaN,2,1,1,1
2,897,6,16,61,2,2,1,2.527568e+00,NaN,2,1,1,1
2,898,6,57,6,1,1,1,7.928987e-01,NaN,2,0,2,1
2,899,6,111,25,1,1,1,9.119890e-01,NaN,2,0,3,1
2,900,6,63,31,1,1,1,6.339320e-01,NaN,2,1,2,1
2,901,6,66,3,1,1,1,2.774846e+00,NaN,2,0,2,1
2,902,6,73,12,2,1,0,7.982643e-01,NaN,2,1,2,1
2,903,6,80,14,2,1,0,8.927297e-01,NaN,2,1,2,1
2,904,6,97,26,1,1,1,3.263650e+00,NaN,2,0,3,1
2,905,6,85,52,2,2,1,9.625807e-01,NaN,2,1,2,1
2,906,6,62,15,1,1,1,7.225433e-01,NaN,2,0,2,1
2,907,6,14,23,2,0,0,3.499863e+00,NaN,2,0,1,1
2,908,6,127,18,1,2,0,1.054036e+00,NaN,2,0,3,1
2,909,6,30,30,1,1,1,1.522550e+00,NaN,2,1,1,1
2,910,6,22,4,2,2,1,1.459467e+00,NaN,2,0,1,1
2,911,6,126,33,1,1,1,2.886259e-01,NaN,2,0,3,1
2,912,6,108,50,2,1,0,1.792979e-01,NaN,2,0,3,1
2,913,6,39,9,2,2,1,4.742979e-01,NaN,2,0,1,1
2,914,6,55,41,2,2,1,8.142728e-01,NaN,2,0,2,1
2,915,6,44,22,1,2,0,2.083498e+00,NaN,2,0,1,1
2,916,6,128,63,2,1,0,1.766644e+00,NaN,2,0,3,1
2,917,6,47,10,2,2,1,7.422775e-01,NaN,2,0,1,1
2,918,6,96,45,2,2,1,7.029553e-01,NaN,2,0,2,1
2,919,6,135,56,1,1,1,1.841562e+00,NaN,2,1,3,1
2,920,6,3,55,1,1,1,9.420243e-01,NaN,2,0,1,1
2,921,6,36,13,2,2,1,1.102708e+00,NaN,2,1,1,1
2,922,6,70,67,1,2,0,6.895536e-01,NaN,2,0,2,1
2,923,6,123,7,1,1,1,1.603904e+00,NaN,2,0,3,1
2,924,6,101,39,2,2,1,1.018755e+00,NaN,2,0,3,1
2,925,6,43,2,1,1,1,1.328310e+00,NaN,2,0,1,1
2,926,6,54,1,1,1,1,2.289797e+00,NaN,2,0,2,1
2,927,6,83,64,2,2,1,7.648855e-01,NaN,2,0,2,1
2,928,6,137,49,2,2,1,1.964924e+00,NaN,2,0,3,1
2,929,6,1,48,2,2,1,1.268445e+00,NaN,2,0,1,1
2,930,6,87,27,2,2,1,1.023958e+00,NaN,2,0,2,1
2,931,6,141,60,1,1,1,2.549773e+00,NaN,2,0,3,1
2,932,6,27,51,1,1,1,1.478012e+00,NaN,2,0,1,1
2,933,6,34,38,1,2,0,8.654518e-01,NaN,2,1,1,1
2,934,6,64,19,1,1,1,9.331808e-01,NaN,2,0,2,1
2,935,6,94,59,1,1,1,9.663417e-01,NaN,2,1,2,1
2,936,6,140,42,1,1,1,1.078524e+00,NaN,2,0,3,1
2,937,6,35,8,2,2,1,7.218621e-01,NaN,2,0,1,1
2,938,6,113,53,1,1,1,1.003502e+00,NaN,2,0,3,1
2,939,6,112,72,1,1,1,3.250243e+00,NaN,2,0,3,1
2,940,6,84,54,2,2,1,8.306993e-01,NaN,2,0,2,1
2,941,6,40,40,1,1,1,2.035657e+00,NaN,2,0,1,1
2,942,6,49,57,1,1,1,6.969576e-01,NaN,2,0,2,1
2,943,6,32,46,1,1,1,1.419588e+00,NaN,2,1,1,1
2,944,6,121,43,2,2,1,2.073086e+00,NaN,2,0,3,1
2,945,6,6,68,2,2,1,1.276315e+00,NaN,2,0,1,1
2,946,6,37,44,1,1,1,2.807668e+00,NaN,2,0,1,1
2,947,6,71,28,2,2,1,7.895965e-01,NaN,2,1,2,1
2,948,6,124,36,2,0,0,3.499975e+00,NaN,2,0,3,1
2,949,6,77,24,2,2,1,7.106826e-01,NaN,2,0,2,1
2,950,6,102,58,2,2,1,8.809583e-01,NaN,2,0,3,1
2,951,6,60,69,1,1,1,1.755923e+00,NaN,2,0,2,1
2,952,6,19,65,1,2,0,1.124131e+00,NaN,2,0,1,1
2,953,6,133,11,1,1,1,2.693418e+00,NaN,2,0,3,1
2,954,6,129,34,1,2,0,2.280340e+00,NaN,2,1,3,1
2,955,6,41,70,2,2,1,1.403044e+00,NaN,2,0,1,1
2,956,6,109,66,1,1,1,6.896417e-01,NaN,2,0,3,1
2,957,6,26,16,2,2,1,1.524849e+00,NaN,2,0,1,1
2,958,6,2,32,2,2,1,1.085665e+00,NaN,2,0,1,1
2,959,6,136,17,2,2,1,1.161368e+00,NaN,2,1,3,1
2,960,6,125,71,2,2,1,1.097959e+00,NaN,2,1,3,1
2,961,6,11,47,2,2,1,1.075892e+00,NaN,2,0,1,1
2,962,6,100,5,1,1,1,1.215724e+00,NaN,2,0,3,1
2,963,6,89,20,1,1,1,9.176800e-01,NaN,2,1,2,1
2,964,6,69,21,1,1,1,8.394051e-01,NaN,2,0,2,1
2,965,6,88,35,2,2,1,1.244400e+00,NaN,2,0,2,1
2,966,6,68,62,1,1,1,6.651282e-01,NaN,2,1,2,1
2,967,6,51,17,2,2,1,5.568156e-01,NaN,1,1,2,1
2,968,6,33,26,1,1,1,1.092719e+00,NaN,1,0,1,1
2,969,6,117,52,2,2,1,1.647812e+00,NaN,1,1,3,1
2,970,6,23,72,1,1,1,1.164114e+00,NaN,1,0,1,1
2,971,6,119,4,1,1,1,1.043936e+00,NaN,1,0,3,1
2,972,6,99,45,1,1,1,1.224772e+00,NaN,1,0,3,1
2,973,6,107,16,1,1,1,8.862367e-01,NaN,1,0,3,1
2,974,6,28,15,2,2,1,8.733584e-01,NaN,1,0,1,1
2,975,6,76,33,2,2,1,1.676867e+00,NaN,1,0,2,1
2,976,6,82,34,1,1,1,7.119555e-01,NaN,1,1,2,1
2,977,6,53,18,2,2,1,8.097173e-01,NaN,1,0,2,1
2,978,6,38,50,1,2,0,5.918198e-01,NaN,1,0,1,1
2,979,6,67,13,2,1,0,7.745455e-01,NaN,1,1,2,1
2,980,6,29,41,2,2,1,7.101006e-01,NaN,1,0,1,1
2,981,6,9,53,1,1,1,8.643012e-01,NaN,1,0,1,1
2,982,6,118,64,1,1,1,2.588103e+00,NaN,1,0,3,1
2,983,6,15,25,2,2,1,8.431006e-01,NaN,1,0,1,1
2,984,6,90,60,2,1,0,1.167639e+00,NaN,1,0,2,1
2,985,6,79,70,1,1,1,7.191246e-01,NaN,1,0,2,1
2,986,6,103,23,2,2,1,1.457062e+00,NaN,1,0,3,1
2,987,6,139,48,2,2,1,1.981176e+00,NaN,1,0,3,1
2,988,6,52,38,1,1,1,7.162586e-01,NaN,1,1,2,1
2,989,6,7,37,2,2,1,7.741945e-01,NaN,1,0,1,1
2,990,6,132,47,1,1,1,1.622055e+00,NaN,1,0,3,1
2,991,6,10,62,1,1,1,1.210827e+00,NaN,1,1,1,1
2,992,6,116,24,2,1,0,1.745349e+00,NaN,1,0,3,1
2,993,6,13,3,1,1,1,8.104034e-01,NaN,1,0,1,1
2,994,6,5,39,2,2,1,9.121369e-01,NaN,1,0,1,1
2,995,6,93,8,2,2,1,8.022571e-01,NaN,1,0,2,1
2,996,6,65,40,2,2,1,9.365536e-01,NaN,1,0,2,1
2,997,6,104,68,2,1,0,8.896744e-01,NaN,1,0,3,1
2,998,6,12,19,1,1,1,2.564464e+00,NaN,1,0,1,1
2,999,6,75,71,1,1,1,5.800765e-01,NaN,1,1,2,1
2,1000,6,122,28,2,2,1,8.836260e-01,NaN,1,1,3,1
2,1001,6,61,49,1,1,1,6.784520e-01,NaN,1,0,2,1
2,1002,6,86,36,1,1,1,8.342589e-01,NaN,1,0,2,1
2,1003,6,42,57,1,1,1,1.022860e+00,NaN,1,0,1,1
2,1004,6,81,2,2,1,0,2.172682e+00,NaN,1,0,2,1
2,1005,6,134,29,2,1,0,1.803943e+00,NaN,1,1,3,1
2,1006,6,31,1,1,1,1,1.418499e+00,NaN,1,0,1,1
2,1007,6,24,43,2,2,1,1.711883e+00,NaN,1,0,1,1
2,1008,6,45,31,2,2,1,2.033846e+00,NaN,1,1,1,1
2,1009,6,8,69,1,1,1,9.907650e-01,NaN,1,0,1,1
2,1010,6,56,30,2,2,1,6.938326e-01,NaN,1,1,2,1
2,1011,6,17,66,1,2,0,1.112452e+00,NaN,1,0,1,1
2,1012,6,91,46,2,2,1,7.219076e-01,NaN,1,1,2,1
2,1013,6,143,12,1,1,1,8.194150e-01,NaN,1,1,3,1
2,1014,6,20,5,2,2,1,9.212192e-01,NaN,1,0,1,1
2,1015,6,144,59,1,1,1,2.098524e+00,NaN,1,1,3,1
2,1016,6,105,20,2,2,1,1.172879e+00,NaN,1,1,3,1
2,1017,6,142,14,2,1,0,1.092196e+00,NaN,1,1,3,1
2,1018,6,95,44,1,1,1,1.847217e+00,NaN,1,0,2,1
2,1019,6,4,21,1,2,0,2.395786e+00,NaN,1,0,1,1
2,1020,6,130,54,1,1,1,2.761359e+00,NaN,1,0,3,1
2,1021,6,78,11,2,2,1,8.011270e-01,NaN,1,0,2,1
2,1022,6,72,56,1,1,1,8.395932e-01,NaN,1,1,2,1
2,1023,6,74,63,2,2,1,7.243360e-01,NaN,1,0,2,1
2,1024,6,25,7,2,2,1,1.085891e+00,NaN,1,0,1,1
2,1025,6,46,6,1,1,1,1.697289e+00,NaN,1,0,1,1
2,1026,6,131,51,2,2,1,1.003653e+00,NaN,1,0,3,1
2,1027,6,115,35,2,1,0,2.809676e+00,NaN,1,0,3,1
2,1028,6,110,27,1,1,1,1.880005e+00,NaN,1,0,3,1
2,1029,6,92,42,2,2,1,1.290611e+00,NaN,1,0,2,1
2,1030,6,59,10,2,2,1,1.565344e+00,NaN,1,0,2,1
2,1031,6,21,67,1,1,1,2.029307e+00,NaN,1,0,1,1
2,1032,6,120,65,2,2,1,9.544018e-01,NaN,1,0,3,1
2,1033,6,138,55,2,2,1,1.202540e+00,NaN,1,0,3,1
2,1034,6,98,61,2,1,0,1.344694e+00,NaN,1,1,3,1
2,1035,6,50,22,2,2,1,3.353305e+00,NaN,1,0,2,1
2,1036,6,114,32,2,2,1,1.426120e+00,NaN,1,0,3,1
2,1037,6,48,58,2,2,1,1.383115e+00,NaN,1,0,1,1
2,1038,6,58,9,1,1,1,7.741694e-01,NaN,1,0,2,1
