Subject,Trial,Cond,ImageNum,CueNum,Correct,Resp,Accuracy,RT,CueRep,ImageType,Baseline,Category,Block
1,1,1,104,NaN,NaN,0,NaN,9.995637e+00,NaN,2,0,3,1
1,2,1,4,NaN,NaN,0,NaN,9.995077e+00,NaN,2,0,1,1
1,3,1,26,NaN,NaN,0,NaN,9.995366e+00,NaN,0,1,1,1
1,4,1,30,NaN,NaN,0,NaN,9.995152e+00,NaN,0,0,1,1
1,5,1,95,NaN,NaN,0,NaN,9.995489e+00,NaN,2,1,2,1
1,6,1,11,NaN,NaN,1,NaN,1.576763e+00,NaN,1,0,1,1
1,7,1,58,NaN,NaN,1,NaN,6.418296e+00,NaN,0,1,2,1
1,8,1,141,NaN,NaN,1,NaN,7.595115e+00,NaN,0,1,3,1
1,9,1,113,NaN,NaN,1,NaN,1.916066e+00,NaN,0,0,3,1
1,10,1,14,NaN,NaN,0,NaN,9.995341e+00,NaN,0,1,1,1
1,11,1,134,NaN,NaN,0,NaN,9.995319e+00,NaN,2,0,3,1
1,12,1,69,NaN,NaN,0,NaN,9.995318e+00,NaN,0,0,2,1
1,13,1,57,NaN,NaN,0,NaN,9.995428e+00,NaN,1,0,2,1
1,14,1,40,NaN,NaN,0,NaN,9.995264e+00,NaN,1,0,1,1
1,15,1,100,NaN,NaN,2,NaN,1.407836e-01,NaN,0,0,3,1
1,16,1,108,NaN,NaN,0,NaN,9.995569e+00,NaN,0,0,3,1
1,17,1,60,NaN,NaN,0,NaN,9.995543e+00,NaN,0,1,2,1
1,18,1,35,NaN,NaN,2,NaN,1.871694e-01,NaN,1,0,1,1
1,19,1,109,NaN,NaN,0,NaN,9.995225e+00,NaN,0,0,3,1
1,20,1,22,NaN,NaN,0,NaN,9.995135e+00,NaN,1,1,1,1
1,21,1,5,NaN,NaN,0,NaN,9.995216e+00,NaN,0,1,1,1
1,22,1,4,NaN,NaN,0,NaN,9.995044e+00,NaN,0,0,1,1
1,23,1,3,NaN,NaN,0,NaN,9.995235e+00,NaN,1,0,1,1
1,24,1,2,NaN,NaN,0,NaN,9.995374e+00,NaN,1,0,1,1
1,25,1,2,NaN,NaN,0,NaN,9.995496e+00,NaN,0,0,1,1
1,26,1,123,NaN,NaN,0,NaN,9.995588e+00,NaN,1,0,3,1
1,27,1,1,NaN,NaN,1,NaN,5.020571e+00,NaN,1,0,1,1
1,28,1,69,NaN,NaN,0,NaN,9.995115e+00,NaN,1,0,2,1
1,29,1,82,NaN,NaN,0,NaN,9.995349e+00,NaN,0,0,2,1
1,30,1,31,NaN,NaN,0,NaN,9.995613e+00,NaN,2,0,1,1
1,31,1,28,NaN,NaN,0,NaN,9.995456e+00,NaN,0,0,1,1
1,32,1,36,NaN,NaN,0,NaN,9.995398e+00,NaN,0,0,1,1
1,33,1,29,NaN,NaN,0,NaN,9.995315e+00,NaN,2,0,1,1
1,34,1,143,NaN,NaN,0,NaN,9.995164e+00,NaN,2,0,3,1
1,35,1,129,NaN,NaN,0,NaN,9.995460e+00,NaN,0,0,3,1
1,36,1,13,NaN,NaN,0,NaN,9.995126e+00,NaN,2,1,1,1
1,37,1,43,NaN,NaN,0,NaN,9.995380e+00,NaN,1,0,1,1
1,38,1,87,NaN,NaN,0,NaN,9.995212e+00,NaN,1,0,2,1
1,39,1,41,NaN,NaN,0,NaN,9.995361e+00,NaN,0,1,1,1
1,40,1,99,NaN,NaN,0,NaN,9.995318e+00,NaN,0,0,3,1
1,41,1,55,NaN,NaN,0,NaN,9.995274e+00,NaN,0,1,2,1
1,42,1,77,NaN,NaN,0,NaN,9.995304e+00,NaN,1,0,2,1
1,43,1,135,NaN,NaN,1,NaN,7.546872e+00,NaN,0,0,3,1
1,44,1,127,NaN,NaN,1,NaN,1.382673e+00,NaN,1,0,3,1
1,45,1,7,NaN,NaN,1,NaN,3.607599e-01,NaN,0,0,1,1
1,46,1,112,NaN,NaN,1,NaN,5.378982e+00,NaN,1,1,3,1
1,47,1,107,NaN,NaN,1,NaN,3.398910e-01,NaN,0,1,3,1
1,48,1,49,NaN,NaN,1,NaN,1.112483e+00,NaN,1,1,2,1
1,49,1,77,NaN,NaN,1,NaN,2.605728e-01,NaN,0,0,2,1
1,50,1,46,NaN,NaN,1,NaN,4.186462e-01,NaN,0,1,1,1
1,51,1,128,NaN,NaN,1,NaN,3.717818e-01,NaN,1,0,3,1
1,52,1,64,NaN,NaN,1,NaN,2.223968e-01,NaN,1,0,2,1
1,53,1,87,NaN,NaN,1,NaN,2.144119e-01,NaN,0,0,2,1
1,54,1,110,NaN,NaN,2,NaN,2.621195e-01,NaN,0,0,3,1
1,55,1,94,NaN,NaN,1,NaN,1.642506e-01,NaN,0,1,2,1
1,56,1,24,NaN,NaN,1,NaN,2.144856e-01,NaN,2,1,1,1
1,57,1,106,NaN,NaN,1,NaN,2.869786e-01,NaN,0,0,3,1
1,58,1,120,NaN,NaN,2,NaN,2.691013e-01,NaN,0,0,3,1
1,59,1,48,NaN,NaN,1,NaN,2.751336e-01,NaN,2,1,1,1
1,60,1,62,NaN,NaN,1,NaN,2.736702e-01,NaN,1,0,2,1
1,61,1,136,NaN,NaN,1,NaN,2.395303e-01,NaN,1,0,3,1
1,62,1,61,NaN,NaN,1,NaN,3.187402e-01,NaN,0,0,2,1
1,63,1,115,NaN,NaN,1,NaN,3.154566e-01,NaN,2,1,3,1
1,64,1,97,NaN,NaN,1,NaN,3.191881e-01,NaN,0,1,3,1
1,65,1,36,NaN,NaN,1,NaN,6.735427e-02,NaN,1,0,1,1
1,66,1,116,NaN,NaN,1,NaN,2.736521e-01,NaN,0,1,3,1
1,67,1,83,NaN,NaN,1,NaN,1.994608e-01,NaN,0,0,2,1
1,68,1,120,NaN,NaN,2,NaN,8.106232e-02,NaN,2,0,3,1
1,69,1,16,NaN,NaN,1,NaN,1.246653e-04,NaN,1,0,1,1
1,70,1,140,NaN,NaN,1,NaN,3.605537e-01,NaN,1,0,3,1
1,71,1,81,NaN,NaN,1,NaN,4.416393e-01,NaN,2,1,2,1
1,72,1,124,NaN,NaN,2,NaN,1.207967e-01,NaN,1,0,3,1
1,73,1,93,NaN,NaN,1,NaN,1.659328e-01,NaN,0,0,2,1
1,74,1,45,NaN,NaN,1,NaN,2.803149e-01,NaN,2,0,1,1
1,75,1,49,NaN,NaN,1,NaN,1.260031e-01,NaN,0,1,2,1
1,76,1,73,NaN,NaN,1,NaN,5.306256e-01,NaN,0,1,2,1
1,77,1,57,NaN,NaN,1,NaN,2.380551e-01,NaN,0,0,2,1
1,78,1,93,NaN,NaN,1,NaN,2.451913e-01,NaN,2,0,2,1
1,79,1,104,NaN,NaN,1,NaN,2.116841e-01,NaN,0,0,3,1
1,80,1,75,NaN,NaN,1,NaN,2.438148e-01,NaN,2,0,2,1
1,81,1,132,NaN,NaN,1,NaN,2.747750e-01,NaN,2,1,3,1
1,82,1,136,NaN,NaN,1,NaN,2.644522e-01,NaN,0,0,3,1
1,83,1,76,NaN,NaN,1,NaN,2.232191e-01,NaN,0,0,2,1
1,84,1,6,NaN,NaN,1,NaN,4.720434e-01,NaN,0,0,1,1
1,85,1,53,NaN,NaN,1,NaN,1.099264e-01,NaN,0,1,2,1
1,86,1,20,NaN,NaN,1,NaN,2.422394e-01,NaN,2,0,1,1
1,87,1,19,NaN,NaN,2,NaN,2.900774e-01,NaN,0,1,1,1
1,88,1,144,NaN,NaN,1,NaN,2.797154e-01,NaN,0,0,3,1
1,89,1,82,NaN,NaN,1,NaN,3.814109e-01,NaN,2,0,2,1
1,90,1,71,NaN,NaN,1,NaN,3.430943e-01,NaN,0,0,2,1
1,91,1,72,NaN,NaN,1,NaN,4.335110e-01,NaN,2,0,2,1
1,92,1,90,NaN,NaN,1,NaN,2.249300e-01,NaN,2,0,2,1
1,93,1,98,NaN,NaN,2,NaN,2.251355e-01,NaN,2,0,3,1
1,94,1,115,NaN,NaN,1,NaN,2.585944e-01,NaN,0,1,3,1
1,95,1,71,NaN,NaN,1,NaN,2.083423e-01,NaN,1,0,2,1
1,96,1,103,NaN,NaN,1,NaN,2.330275e-01,NaN,2,0,3,1
1,97,1,70,NaN,NaN,1,NaN,2.404063e-01,NaN,1,0,2,1
1,98,1,56,NaN,NaN,1,NaN,3.122198e-01,NaN,2,0,2,1
1,99,1,63,NaN,NaN,1,NaN,2.677991e-01,NaN,1,0,2,1
1,100,1,47,NaN,NaN,1,NaN,2.748474e-01,NaN,1,0,1,1
1,101,1,112,NaN,NaN,1,NaN,2.886774e-01,NaN,0,1,3,1
1,102,1,68,NaN,NaN,1,NaN,2.303002e-01,NaN,1,1,2,1
1,103,1,122,NaN,NaN,2,NaN,2.774787e-01,NaN,0,0,3,1
1,104,1,137,NaN,NaN,1,NaN,2.190786e-01,NaN,0,0,3,1
1,105,1,84,NaN,NaN,1,NaN,1.876351e-01,NaN,1,0,2,1
1,106,1,92,NaN,NaN,1,NaN,2.376464e-01,NaN,0,0,2,1
1,107,1,25,NaN,NaN,1,NaN,2.615272e-01,NaN,2,0,1,1
1,108,1,65,NaN,NaN,1,NaN,5.403322e-01,NaN,0,0,2,1
1,109,1,10,NaN,NaN,1,NaN,2.315249e-01,NaN,0,0,1,1
1,110,1,109,NaN,NaN,1,NaN,2.312106e-01,NaN,1,0,3,1
1,111,1,32,NaN,NaN,2,NaN,3.108446e-01,NaN,0,0,1,1
1,112,1,88,NaN,NaN,1,NaN,1.475635e-01,NaN,1,0,2,1
1,113,1,3,NaN,NaN,1,NaN,2.395267e-01,NaN,0,0,1,1
1,114,1,9,NaN,NaN,1,NaN,3.670656e-01,NaN,0,0,1,1
1,115,1,123,NaN,NaN,1,NaN,3.291969e-01,NaN,0,0,3,1
1,116,1,37,NaN,NaN,1,NaN,3.084838e-01,NaN,0,0,1,1
1,117,1,118,NaN,NaN,1,NaN,2.410646e-01,NaN,2,0,3,1
1,118,1,39,NaN,NaN,2,NaN,2.246013e-01,NaN,0,0,1,1
1,119,1,80,NaN,NaN,1,NaN,2.422542e-01,NaN,1,0,2,1
1,120,1,67,NaN,NaN,1,NaN,2.527928e-02,NaN,0,1,2,1
1,121,1,11,NaN,NaN,1,NaN,4.017340e-01,NaN,0,0,1,1
1,122,1,38,NaN,NaN,1,NaN,2.090323e+00,NaN,2,0,1,1
1,123,1,52,NaN,NaN,1,NaN,7.444193e-01,NaN,0,0,2,1
1,124,1,12,NaN,NaN,1,NaN,2.747704e-01,NaN,0,0,1,1
1,125,1,139,NaN,NaN,1,NaN,4.095774e-01,NaN,0,0,3,1
1,126,1,59,NaN,NaN,1,NaN,1.941588e-01,NaN,2,0,2,1
1,127,1,56,NaN,NaN,1,NaN,2.197004e-01,NaN,0,0,2,1
1,128,1,144,NaN,NaN,1,NaN,2.828233e-01,NaN,2,0,3,1
1,129,1,126,NaN,NaN,2,NaN,3.125561e-01,NaN,1,0,3,1
1,130,1,63,NaN,NaN,1,NaN,1.573686e-01,NaN,0,0,2,1
1,131,1,60,NaN,NaN,1,NaN,2.715964e-01,NaN,1,1,2,1
1,132,1,10,NaN,NaN,1,NaN,2.698508e-01,NaN,2,0,1,1
1,133,1,91,NaN,NaN,1,NaN,2.927748e-01,NaN,0,0,2,1
1,134,1,14,NaN,NaN,1,NaN,2.266524e-01,NaN,1,1,1,1
1,135,1,15,NaN,NaN,1,NaN,2.661383e-01,NaN,2,1,1,1
1,136,1,103,NaN,NaN,1,NaN,2.404926e-01,NaN,0,0,3,1
1,137,1,46,NaN,NaN,1,NaN,1.255708e-04,NaN,2,1,1,1
1,138,1,53,NaN,NaN,1,NaN,2.571956e-01,NaN,2,1,2,1
1,139,1,121,NaN,NaN,1,NaN,2.241222e-01,NaN,0,0,3,1
1,140,1,101,NaN,NaN,2,NaN,2.165080e-01,NaN,0,1,3,1
1,141,1,54,NaN,NaN,1,NaN,3.764632e-01,NaN,0,0,2,1
1,142,1,108,NaN,NaN,2,NaN,1.010011e+00,NaN,1,0,3,1
1,143,1,97,NaN,NaN,1,NaN,4.264986e-01,NaN,1,1,3,1
1,144,1,44,NaN,NaN,1,NaN,2.978960e-01,NaN,0,0,1,1
1,145,1,130,NaN,NaN,2,NaN,3.105113e-01,NaN,2,0,3,1
1,146,1,62,NaN,NaN,1,NaN,2.904266e-01,NaN,0,0,2,1
1,147,1,12,NaN,NaN,1,NaN,3.039008e-01,NaN,2,0,1,1
1,148,1,86,NaN,NaN,1,NaN,2.683401e-01,NaN,0,0,2,1
1,149,1,119,NaN,NaN,1,NaN,2.907689e-01,NaN,2,0,3,1
1,150,1,34,NaN,NaN,1,NaN,2.398355e-01,NaN,1,0,1,1
1,151,1,5,NaN,NaN,1,NaN,4.472604e-01,NaN,2,1,1,1
1,152,1,138,NaN,NaN,1,NaN,2.702381e-01,NaN,2,1,3,1
1,153,1,78,NaN,NaN,1,NaN,4.442084e-01,NaN,0,0,2,1
1,154,1,24,NaN,NaN,1,NaN,5.236349e-01,NaN,0,1,1,1
1,155,1,61,NaN,NaN,1,NaN,1.559721e+00,NaN,2,0,2,1
1,156,1,64,NaN,NaN,1,NaN,6.335761e-01,NaN,0,0,2,1
1,157,1,20,NaN,NaN,1,NaN,2.412983e-01,NaN,0,0,1,1
1,158,1,116,NaN,NaN,1,NaN,2.572578e-01,NaN,2,1,3,1
1,159,1,35,NaN,NaN,1,NaN,2.965527e-01,NaN,0,0,1,1
1,160,1,33,NaN,NaN,1,NaN,2.615309e-01,NaN,2,0,1,1
1,161,1,90,NaN,NaN,1,NaN,2.598296e-01,NaN,0,0,2,1
1,162,1,138,NaN,NaN,1,NaN,6.580664e-01,NaN,0,1,3,1
1,163,1,44,NaN,NaN,1,NaN,7.612621e-01,NaN,1,0,1,1
1,164,1,79,NaN,NaN,1,NaN,4.601743e-01,NaN,0,0,2,1
1,165,1,85,NaN,NaN,1,NaN,4.906083e-01,NaN,0,0,2,1
1,166,1,131,NaN,NaN,2,NaN,3.117882e-01,NaN,0,0,3,1
1,167,1,127,NaN,NaN,2,NaN,2.044052e-01,NaN,0,0,3,1
1,168,1,95,NaN,NaN,1,NaN,3.026052e-01,NaN,0,1,2,1
1,169,1,141,NaN,NaN,1,NaN,3.866251e-01,NaN,1,1,3,1
1,170,1,99,NaN,NaN,2,NaN,3.487794e-01,NaN,2,0,3,1
1,171,1,102,NaN,NaN,2,NaN,5.032683e-01,NaN,0,1,3,1
1,172,1,133,NaN,NaN,2,NaN,6.119287e-01,NaN,0,1,3,1
1,173,1,117,NaN,NaN,2,NaN,9.962042e-01,NaN,2,0,3,1
1,174,1,59,NaN,NaN,1,NaN,1.485757e-01,NaN,0,0,2,1
1,175,1,41,NaN,NaN,1,NaN,3.038008e-01,NaN,1,1,1,1
1,176,1,96,NaN,NaN,1,NaN,3.803293e-01,NaN,0,0,2,1
1,177,1,105,NaN,NaN,2,NaN,4.057088e-01,NaN,0,0,3,1
1,178,1,114,NaN,NaN,1,NaN,5.343094e-01,NaN,0,0,3,1
1,179,1,34,NaN,NaN,1,NaN,2.815857e-01,NaN,0,0,1,1
1,180,1,92,NaN,NaN,1,NaN,3.600083e-01,NaN,2,0,2,1
1,181,1,42,NaN,NaN,1,NaN,3.216401e-01,NaN,2,0,1,1
1,182,1,39,NaN,NaN,2,NaN,1.176363e-01,NaN,1,0,1,1
1,183,1,89,NaN,NaN,1,NaN,2.267788e-01,NaN,0,0,2,1
1,184,1,33,NaN,NaN,1,NaN,3.945484e-01,NaN,0,0,1,1
1,185,1,98,NaN,NaN,1,NaN,3.312692e-01,NaN,0,0,3,1
1,186,1,113,NaN,NaN,1,NaN,5.426565e-01,NaN,1,0,3,1
1,187,1,27,NaN,NaN,1,NaN,3.618840e-01,NaN,0,1,1,1
1,188,1,32,NaN,NaN,1,NaN,3.317986e-01,NaN,1,0,1,1
1,189,1,131,NaN,NaN,1,NaN,1.112479e-01,NaN,2,0,3,1
1,190,1,31,NaN,NaN,1,NaN,8.273488e-01,NaN,0,0,1,1
1,191,1,85,NaN,NaN,1,NaN,7.472998e-01,NaN,1,0,2,1
1,192,1,86,NaN,NaN,1,NaN,7.907274e-01,NaN,2,0,2,1
1,193,1,134,NaN,NaN,1,NaN,3.764336e-01,NaN,0,0,3,1
1,194,1,125,NaN,NaN,1,NaN,4.983668e-01,NaN,0,0,3,1
1,195,1,122,NaN,NaN,2,NaN,3.039958e-01,NaN,2,0,3,1
1,196,1,125,NaN,NaN,1,NaN,2.364088e-01,NaN,1,0,3,1
1,197,1,1,NaN,NaN,1,NaN,3.397941e-01,NaN,0,0,1,1
1,198,1,26,NaN,NaN,1,NaN,1.912894e-01,NaN,1,1,1,1
1,199,1,30,NaN,NaN,1,NaN,2.483683e-01,NaN,1,0,1,1
1,200,1,17,NaN,NaN,1,NaN,2.710353e-01,NaN,0,0,1,1
1,201,1,8,NaN,NaN,1,NaN,2.774228e-01,NaN,2,1,1,1
1,202,1,91,NaN,NaN,1,NaN,2.355386e-01,NaN,2,0,2,1
1,203,1,58,NaN,NaN,1,NaN,6.750317e-01,NaN,2,1,2,1
1,204,1,55,NaN,NaN,1,NaN,6.567403e-01,NaN,1,1,2,1
1,205,1,132,NaN,NaN,2,NaN,3.351471e-01,NaN,0,1,3,1
1,206,1,76,NaN,NaN,1,NaN,1.091259e-02,NaN,2,0,2,1
1,207,1,88,NaN,NaN,1,NaN,2.910219e-01,NaN,0,0,2,1
1,208,1,66,NaN,NaN,1,NaN,2.970882e-01,NaN,0,0,2,1
1,209,1,111,NaN,NaN,1,NaN,4.217958e-01,NaN,0,0,3,1
1,210,1,129,NaN,NaN,1,NaN,3.337806e-01,NaN,1,0,3,1
1,211,1,74,NaN,NaN,1,NaN,3.290856e-01,NaN,0,0,2,1
1,212,1,89,NaN,NaN,1,NaN,3.333652e-01,NaN,1,0,2,1
1,213,1,94,NaN,NaN,1,NaN,4.971787e-01,NaN,1,1,2,1
1,214,1,50,NaN,NaN,1,NaN,4.866305e-01,NaN,0,1,2,1
1,215,1,72,NaN,NaN,1,NaN,7.957466e-01,NaN,0,0,2,1
1,216,1,130,NaN,NaN,2,NaN,3.168291e-01,NaN,0,0,3,1
1,217,1,21,NaN,NaN,1,NaN,2.013085e-01,NaN,0,0,1,1
1,218,1,17,NaN,NaN,1,NaN,4.095360e-01,NaN,2,0,1,1
1,219,1,140,NaN,NaN,1,NaN,2.100897e-04,NaN,0,0,3,1
1,220,1,13,NaN,NaN,1,NaN,2.906733e-01,NaN,0,1,1,1
1,221,1,37,NaN,NaN,1,NaN,7.768045e-01,NaN,1,0,1,1
1,222,1,66,NaN,NaN,1,NaN,3.378411e-01,NaN,1,0,2,1
1,223,1,135,NaN,NaN,1,NaN,2.106934e-04,NaN,1,0,3,1
1,224,1,7,NaN,NaN,1,NaN,5.182121e-01,NaN,2,0,1,1
1,225,1,23,NaN,NaN,1,NaN,3.302531e-01,NaN,0,0,1,1
1,226,1,48,NaN,NaN,1,NaN,2.534421e-01,NaN,0,1,1,1
1,227,1,121,NaN,NaN,1,NaN,2.936405e-01,NaN,1,0,3,1
1,228,1,133,NaN,NaN,1,NaN,2.745537e-01,NaN,1,1,3,1
1,229,1,126,NaN,NaN,2,NaN,2.406761e-01,NaN,0,0,3,1
1,230,1,74,NaN,NaN,1,NaN,2.635850e-01,NaN,2,0,2,1
1,231,1,137,NaN,NaN,1,NaN,2.780962e-01,NaN,1,0,3,1
1,232,1,38,NaN,NaN,1,NaN,1.720366e-01,NaN,0,0,1,1
1,233,1,8,NaN,NaN,1,NaN,2.706459e-01,NaN,0,1,1,1
1,234,1,19,NaN,NaN,1,NaN,1.975247e-01,NaN,1,1,1,1
1,235,1,75,NaN,NaN,1,NaN,1.665972e-01,NaN,0,0,2,1
1,236,1,40,NaN,NaN,1,NaN,1.855116e-01,NaN,0,0,1,1
1,237,1,142,NaN,NaN,1,NaN,3.621837e-01,NaN,0,0,3,1
1,238,1,22,NaN,NaN,1,NaN,2.918001e-01,NaN,0,1,1,1
1,239,1,15,NaN,NaN,1,NaN,2.096079e-01,NaN,0,1,1,1
1,240,1,142,NaN,NaN,1,NaN,3.932695e-01,NaN,2,0,3,1
1,241,1,105,NaN,NaN,1,NaN,2.503825e-01,NaN,2,0,3,1
1,242,1,128,NaN,NaN,1,NaN,2.090899e-01,NaN,0,0,3,1
1,243,1,81,NaN,NaN,1,NaN,1.295197e-01,NaN,0,1,2,1
1,244,1,83,NaN,NaN,1,NaN,3.411612e-01,NaN,1,0,2,1
1,245,1,100,NaN,NaN,2,NaN,2.563921e-01,NaN,1,0,3,1
1,246,1,67,NaN,NaN,1,NaN,1.430768e-01,NaN,2,1,2,1
1,247,1,43,NaN,NaN,1,NaN,2.817921e-01,NaN,0,0,1,1
1,248,1,51,NaN,NaN,1,NaN,2.378783e-02,NaN,2,0,2,1
1,249,1,118,NaN,NaN,1,NaN,6.343954e-02,NaN,0,0,3,1
1,250,1,70,NaN,NaN,1,NaN,2.866915e-01,NaN,0,0,2,1
1,251,1,45,NaN,NaN,1,NaN,4.848498e-01,NaN,0,0,1,1
1,252,1,29,NaN,NaN,1,NaN,3.057677e-01,NaN,0,0,1,1
1,253,1,80,NaN,NaN,1,NaN,2.546546e-01,NaN,0,0,2,1
1,254,1,96,NaN,NaN,1,NaN,2.457606e-01,NaN,1,0,2,1
1,255,1,16,NaN,NaN,1,NaN,3.008792e-01,NaN,0,0,1,1
1,256,1,102,NaN,NaN,1,NaN,1.851427e-01,NaN,1,1,3,1
1,257,1,78,NaN,NaN,1,NaN,3.065637e-01,NaN,2,0,2,1
1,258,1,18,NaN,NaN,1,NaN,3.672537e-01,NaN,0,0,1,1
1,259,1,25,NaN,NaN,1,NaN,3.213071e-01,NaN,0,0,1,1
1,260,1,27,NaN,NaN,1,NaN,2.941376e-01,NaN,1,1,1,1
1,261,1,42,NaN,NaN,1,NaN,2.679498e-01,NaN,0,0,1,1
1,262,1,111,NaN,NaN,1,NaN,7.132264e-01,NaN,1,0,3,1
1,263,1,50,NaN,NaN,1,NaN,1.497097e-01,NaN,2,1,2,1
1,264,1,110,NaN,NaN,2,NaN,5.201555e-01,NaN,2,0,3,1
1,265,1,106,NaN,NaN,1,NaN,1.323345e-01,NaN,1,0,3,1
1,266,1,6,NaN,NaN,1,NaN,2.801999e-01,NaN,1,0,1,1
1,267,1,52,NaN,NaN,1,NaN,2.088823e-04,NaN,2,0,2,1
1,268,1,124,NaN,NaN,2,NaN,8.778579e-02,NaN,0,0,3,1
1,269,1,65,NaN,NaN,1,NaN,2.051302e-01,NaN,2,0,2,1
1,270,1,54,NaN,NaN,1,NaN,4.219962e-01,NaN,1,0,2,1
1,271,1,107,NaN,NaN,1,NaN,2.076748e-04,NaN,2,1,3,1
1,272,1,18,NaN,NaN,1,NaN,2.241071e-01,NaN,1,0,1,1
1,273,1,79,NaN,NaN,1,NaN,2.647088e-01,NaN,2,0,2,1
1,274,1,21,NaN,NaN,1,NaN,2.545239e-01,NaN,2,0,1,1
1,275,1,143,NaN,NaN,2,NaN,3.414280e-01,NaN,0,0,3,1
1,276,1,114,NaN,NaN,1,NaN,2.568935e-01,NaN,2,0,3,1
1,277,1,73,NaN,NaN,1,NaN,4.318786e-01,NaN,1,1,2,1
1,278,1,9,NaN,NaN,1,NaN,2.466109e-01,NaN,2,0,1,1
1,279,1,68,NaN,NaN,1,NaN,3.013975e-01,NaN,0,1,2,1
1,280,1,84,NaN,NaN,1,NaN,2.913775e-01,NaN,0,0,2,1
1,281,1,101,NaN,NaN,1,NaN,5.041132e-01,NaN,1,1,3,1
1,282,1,139,NaN,NaN,1,NaN,3.087681e-01,NaN,2,0,3,1
1,283,1,28,NaN,NaN,1,NaN,2.340233e-01,NaN,2,0,1,1
1,284,1,119,NaN,NaN,1,NaN,2.417082e-01,NaN,0,0,3,1
1,285,1,47,NaN,NaN,1,NaN,3.690796e-01,NaN,0,0,1,1
1,286,1,117,NaN,NaN,2,NaN,3.791883e-01,NaN,0,0,3,1
1,287,1,51,NaN,NaN,1,NaN,4.774653e-01,NaN,0,0,2,1
1,288,1,23,NaN,NaN,1,NaN,3.069114e-01,NaN,2,0,1,1
1,345,2,133,71,1,1,1,2.229093e+00,NaN,1,1,3,1
1,346,2,97,11,1,1,1,1.498151e+00,NaN,1,1,3,1
1,347,2,2,37,1,1,1,1.883168e+00,NaN,1,0,1,1
1,348,2,40,31,1,1,1,8.934888e-01,NaN,1,0,1,1
1,349,2,127,53,1,1,1,8.388226e-01,NaN,1,0,3,1
1,350,2,41,21,1,1,1,1.635239e+00,NaN,1,1,1,1
1,351,2,137,70,2,2,1,1.359012e+00,NaN,1,0,3,1
1,352,2,71,26,1,1,1,1.262413e+00,NaN,1,0,2,1
1,353,2,57,32,1,1,1,9.691600e-01,NaN,1,0,2,1
1,354,2,135,61,1,1,1,7.999940e-01,NaN,1,0,3,1
1,355,2,1,29,1,1,1,7.253648e-01,NaN,1,0,1,1
1,356,2,125,34,2,2,1,1.350370e+00,NaN,1,0,3,1
1,357,2,3,36,1,1,1,1.629885e+00,NaN,1,0,1,1
1,358,2,36,55,1,1,1,1.586109e+00,NaN,1,0,1,1
1,359,2,14,50,1,1,1,9.918678e-01,NaN,1,1,1,1
1,360,2,108,8,1,1,1,1.077945e+00,NaN,1,0,3,1
1,361,2,94,33,1,1,1,8.482615e-01,NaN,1,1,2,1
1,362,2,55,16,2,2,1,1.715730e+00,NaN,1,1,2,1
1,363,2,140,57,2,2,1,2.643979e+00,NaN,1,0,3,1
1,364,2,80,45,2,2,1,1.503864e+00,NaN,1,0,2,1
1,365,2,63,25,1,1,1,3.136907e+00,NaN,1,0,2,1
1,366,2,121,14,1,1,1,2.353258e+00,NaN,1,0,3,1
1,367,2,54,66,1,1,1,1.688541e+00,NaN,1,0,2,1
1,368,2,113,10,1,1,1,7.391172e-01,NaN,1,0,3,1
1,369,3,57,32,1,1,1,1.680157e+00,NaN,1,0,2,1
1,370,3,127,53,1,1,1,1.026428e+00,NaN,1,0,3,1
1,371,3,40,31,2,2,1,1.086739e+00,NaN,1,0,1,1
1,372,3,2,37,1,1,1,1.504850e+00,NaN,1,0,1,1
1,373,3,97,11,2,2,1,8.340787e-01,NaN,1,1,3,1
1,374,3,121,14,2,2,1,7.661237e-01,NaN,1,0,3,1
1,375,3,137,70,1,1,1,1.317049e+00,NaN,1,0,3,1
1,376,3,71,26,2,2,1,1.989672e+00,NaN,1,0,2,1
1,377,3,140,57,2,2,1,8.596278e-01,NaN,1,0,3,1
1,378,3,63,25,2,2,1,7.427056e-01,NaN,1,0,2,1
1,379,3,54,66,2,2,1,8.783535e-01,NaN,1,0,2,1
1,380,3,135,61,1,1,1,1.952305e+00,NaN,1,0,3,1
1,381,3,55,16,1,1,1,7.756064e-01,NaN,1,1,2,1
1,382,3,3,36,2,2,1,1.198007e+00,NaN,1,0,1,1
1,383,3,133,71,2,2,1,9.396789e-01,NaN,1,1,3,1
1,384,3,80,45,2,2,1,6.437039e-01,NaN,1,0,2,1
1,385,3,94,33,2,2,1,1.599006e+00,NaN,1,1,2,1
1,386,3,41,21,2,2,1,1.052461e+00,NaN,1,1,1,1
1,387,3,14,50,1,1,1,1.063977e+00,NaN,1,1,1,1
1,388,3,113,10,1,1,1,1.482819e+00,NaN,1,0,3,1
1,389,3,1,29,1,1,1,8.368385e-01,NaN,1,0,1,1
1,390,3,125,34,2,2,1,1.536906e+00,NaN,1,0,3,1
1,391,3,36,55,1,1,1,1.553476e+00,NaN,1,0,1,1
1,392,3,108,8,2,2,1,9.526402e-01,NaN,1,0,3,1
1,417,2,62,23,2,2,1,1.675736e+00,NaN,1,0,2,2
1,418,2,83,42,2,2,1,7.663966e-01,NaN,1,0,2,2
1,419,2,136,54,1,1,1,1.076767e+00,NaN,1,0,3,2
1,420,2,35,19,2,2,1,1.079134e+00,NaN,1,0,1,2
1,421,2,11,43,2,2,1,1.344970e+00,NaN,1,0,1,2
1,422,2,70,39,2,2,1,1.048611e+00,NaN,1,0,2,2
1,423,2,34,63,2,2,1,1.451755e+00,NaN,1,0,1,2
1,424,2,96,46,2,2,1,8.391691e-01,NaN,1,0,2,2
1,425,2,68,20,2,2,1,1.035183e+00,NaN,1,1,2,2
1,426,2,87,64,1,1,1,1.359703e+00,NaN,1,0,2,2
1,427,2,123,12,2,2,1,1.398098e+00,NaN,1,0,3,2
1,428,2,126,6,1,1,1,1.043899e+00,NaN,1,0,3,2
1,429,2,102,68,1,1,1,1.239258e+00,NaN,1,1,3,2
1,430,2,84,22,2,2,1,8.112722e-01,NaN,1,0,2,2
1,431,2,30,24,1,1,1,9.997667e-01,NaN,1,0,1,2
1,432,2,6,5,2,2,1,9.655758e-01,NaN,1,0,1,2
1,433,2,106,44,2,2,1,9.964342e-01,NaN,1,0,3,2
1,434,2,111,4,2,2,1,1.873347e+00,NaN,1,0,3,2
1,435,2,109,58,1,1,1,8.603474e-01,NaN,1,0,3,2
1,436,2,100,56,1,1,1,1.711211e+00,NaN,1,0,3,2
1,437,2,37,7,1,1,1,1.072277e+00,NaN,1,0,1,2
1,438,2,44,60,2,2,1,1.026276e+00,NaN,1,0,1,2
1,439,2,39,69,2,2,1,8.626400e-01,NaN,1,0,1,2
1,440,2,16,30,1,1,1,1.065351e+00,NaN,1,0,1,2
1,441,3,39,69,1,1,1,2.058166e+00,NaN,1,0,1,2
1,442,3,102,68,2,2,1,9.817035e-01,NaN,1,1,3,2
1,443,3,70,39,2,2,1,9.401830e-01,NaN,1,0,2,2
1,444,3,6,5,1,1,1,1.707719e+00,NaN,1,0,1,2
1,445,3,62,23,2,2,1,1.069569e+00,NaN,1,0,2,2
1,446,3,84,22,1,1,1,1.136359e+00,NaN,1,0,2,2
1,447,3,11,43,2,2,1,8.963072e-01,NaN,1,0,1,2
1,448,3,96,46,1,1,1,6.574554e-01,NaN,1,0,2,2
1,449,3,100,56,2,2,1,9.651007e-01,NaN,1,0,3,2
1,450,3,106,44,1,1,1,7.799634e-01,NaN,1,0,3,2
1,451,3,126,6,1,1,1,1.106044e+00,NaN,1,0,3,2
1,452,3,136,54,1,1,1,1.419577e+00,NaN,1,0,3,2
1,453,3,87,64,1,1,1,5.921498e-01,NaN,1,0,2,2
1,454,3,83,42,1,1,1,7.186712e-01,NaN,1,0,2,2
1,455,3,37,7,1,1,1,5.752935e-01,NaN,1,0,1,2
1,456,3,44,60,1,1,1,1.141967e+00,NaN,1,0,1,2
1,457,3,34,63,2,2,1,1.061706e+00,NaN,1,0,1,2
1,458,3,16,30,1,1,1,6.569127e-01,NaN,1,0,1,2
1,459,3,123,12,2,2,1,1.195838e+00,NaN,1,0,3,2
1,460,3,30,24,1,1,1,6.657036e-01,NaN,1,0,1,2
1,461,3,35,19,2,2,1,8.682264e-01,NaN,1,0,1,2
1,462,3,111,4,2,2,1,7.829888e-01,NaN,1,0,3,2
1,463,3,68,20,2,2,1,5.252628e-01,NaN,1,1,2,2
1,464,3,109,58,2,2,1,9.817796e-01,NaN,1,0,3,2
1,489,2,66,67,2,2,1,7.560494e-01,NaN,1,0,2,3
1,490,2,88,72,1,1,1,5.404201e-01,NaN,1,0,2,3
1,491,2,47,1,2,2,1,1.579705e+00,NaN,1,0,1,3
1,492,2,27,17,1,1,1,9.136311e-01,NaN,1,1,1,3
1,493,2,128,13,2,2,1,7.624991e-01,NaN,1,0,3,3
1,494,2,32,18,1,1,1,1.001549e+00,NaN,1,0,1,3
1,495,2,19,59,1,1,1,1.142558e+00,NaN,1,1,1,3
1,496,2,60,62,1,1,1,9.423177e-01,NaN,1,1,2,3
1,497,2,18,28,1,1,1,8.776605e-01,NaN,1,0,1,3
1,498,2,49,27,1,1,1,7.517211e-01,NaN,1,1,2,3
1,499,2,129,40,2,2,1,1.222898e+00,NaN,1,0,3,3
1,500,2,69,49,2,2,1,7.958052e-01,NaN,1,0,2,3
1,501,2,64,15,1,1,1,7.769542e-01,NaN,1,0,2,3
1,502,2,26,3,1,1,1,1.303455e+00,NaN,1,1,1,3
1,503,2,43,52,2,1,0,1.441205e+00,NaN,1,0,1,3
1,504,2,22,2,1,1,1,1.276961e+00,NaN,1,1,1,3
1,505,2,85,38,2,2,1,7.751141e-01,NaN,1,0,2,3
1,506,2,141,47,2,2,1,1.013522e+00,NaN,1,1,3,3
1,507,2,77,9,1,1,1,6.423163e-01,NaN,1,0,2,3
1,508,2,101,48,1,1,1,1.102624e+00,NaN,1,1,3,3
1,509,2,73,35,2,2,1,1.399969e+00,NaN,1,1,2,3
1,510,2,89,51,1,1,1,1.037493e+00,NaN,1,0,2,3
1,511,2,112,65,2,2,1,1.121467e+00,NaN,1,1,3,3
1,512,2,124,41,1,1,1,1.322282e+00,NaN,1,0,3,3
1,513,3,88,72,2,2,1,6.137006e-01,NaN,1,0,2,3
1,514,3,47,1,2,2,1,8.264225e-01,NaN,1,0,1,3
1,515,3,26,3,2,2,1,7.025384e-01,NaN,1,1,1,3
1,516,3,85,38,2,2,1,7.361443e-01,NaN,1,0,2,3
1,517,3,32,18,1,1,1,5.764176e-01,NaN,1,0,1,3
1,518,3,18,28,1,1,1,6.382370e-01,NaN,1,0,1,3
1,519,3,19,59,1,1,1,1.642085e+00,NaN,1,1,1,3
1,520,3,27,17,2,2,1,1.334238e+00,NaN,1,1,1,3
1,521,3,101,48,1,1,1,9.025540e-01,NaN,1,1,3,3
1,522,3,124,41,1,1,1,2.735580e+00,NaN,1,0,3,3
1,523,3,112,65,2,2,1,7.840130e-01,NaN,1,1,3,3
1,524,3,128,13,2,2,1,1.869901e+00,NaN,1,0,3,3
1,525,3,69,49,1,1,1,8.647415e-01,NaN,1,0,2,3
1,526,3,73,35,1,1,1,1.139472e+00,NaN,1,1,2,3
1,527,3,89,51,2,2,1,7.717267e-01,NaN,1,0,2,3
1,528,3,141,47,2,2,1,1.570450e+00,NaN,1,1,3,3
1,529,3,77,9,1,1,1,5.851511e-01,NaN,1,0,2,3
1,530,3,66,67,1,1,1,8.791538e-01,NaN,1,0,2,3
1,531,3,129,40,2,2,1,7.455551e-01,NaN,1,0,3,3
1,532,3,43,52,1,2,0,7.608008e-01,NaN,1,0,1,3
1,533,3,60,62,1,1,1,7.515940e-01,NaN,1,1,2,3
1,534,3,64,15,2,2,1,1.383125e+00,NaN,1,0,2,3
1,535,3,22,2,2,2,1,1.005355e+00,NaN,1,1,1,3
1,536,3,49,27,2,2,1,8.908059e-01,NaN,1,1,2,3
1,561,4,53,59,2,2,1,2.449618e+00,NaN,2,1,2,1
1,562,4,115,35,2,1,0,3.060852e+00,NaN,2,1,3,1
1,563,4,78,13,1,1,1,2.024089e+00,NaN,2,0,2,1
1,564,4,5,47,2,2,1,8.765180e-01,NaN,2,1,1,1
1,565,4,119,19,2,2,1,1.374863e+00,NaN,2,0,3,1
1,566,4,31,26,2,2,1,1.469163e+00,NaN,2,0,1,1
1,567,4,24,33,1,1,1,2.160495e+00,NaN,2,1,1,1
1,568,4,98,45,1,1,1,1.799199e+00,NaN,2,0,3,1
1,569,4,91,12,1,1,1,9.566074e-01,NaN,2,0,2,1
1,570,4,9,6,2,2,1,1.084119e+00,NaN,2,0,1,1
1,571,4,52,37,1,1,1,1.013998e+00,NaN,2,0,2,1
1,572,4,21,58,2,2,1,2.802422e+00,NaN,2,0,1,1
1,573,4,142,29,1,1,1,8.802205e-01,NaN,2,0,3,1
1,574,4,117,72,1,1,1,1.209960e+00,NaN,2,0,3,1
1,575,4,20,57,1,1,1,1.151080e+00,NaN,2,0,1,1
1,576,4,42,67,2,2,1,2.526586e+00,NaN,2,0,1,1
1,577,4,28,66,1,1,1,2.006635e+00,NaN,2,0,1,1
1,578,4,50,50,1,1,1,2.067864e+00,NaN,2,1,2,1
1,579,4,118,39,2,0,0,3.499925e+00,NaN,2,0,3,1
1,580,4,38,23,2,2,1,1.976210e+00,NaN,2,0,1,1
1,581,4,56,18,1,1,1,9.581161e-01,NaN,2,0,2,1
1,582,4,76,14,2,2,1,1.869599e+00,NaN,2,0,2,1
1,583,4,132,2,1,1,1,6.321746e-01,NaN,2,1,3,1
1,584,4,17,61,1,1,1,2.708802e+00,NaN,2,0,1,1
1,609,4,12,4,1,2,0,2.599879e+00,NaN,2,0,1,2
1,610,4,23,22,1,1,1,1.141581e+00,NaN,2,0,1,2
1,611,4,114,38,2,2,1,1.197516e+00,NaN,2,0,3,2
1,612,4,139,43,1,0,0,3.499902e+00,NaN,2,0,3,2
1,613,4,138,21,1,2,0,1.828602e+00,NaN,2,1,3,2
1,614,4,130,31,1,1,1,1.320651e+00,NaN,2,0,3,2
1,615,4,4,70,2,1,0,2.489489e+00,NaN,2,0,1,2
1,616,4,95,48,1,1,1,1.619801e+00,NaN,2,1,2,2
1,617,4,116,20,2,2,1,2.904354e+00,NaN,2,1,3,2
1,618,4,103,49,1,1,1,1.449712e+00,NaN,2,0,3,2
1,619,4,104,64,2,2,1,1.053261e+00,NaN,2,0,3,2
1,620,4,143,52,1,2,0,1.072808e+00,NaN,2,0,3,2
1,621,4,46,62,1,1,1,9.711438e-01,NaN,2,1,1,2
1,622,4,65,5,1,2,0,1.410243e+00,NaN,2,0,2,2
1,623,4,86,34,1,2,0,1.238822e+00,NaN,2,0,2,2
1,624,4,10,44,2,1,0,1.338894e+00,NaN,2,0,1,2
1,625,4,90,40,1,2,0,8.912261e-01,NaN,2,0,2,2
1,626,4,29,25,2,2,1,1.909364e+00,NaN,2,0,1,2
1,627,4,131,30,2,2,1,7.505285e-01,NaN,2,0,3,2
1,628,4,134,28,2,2,1,1.126044e+00,NaN,2,0,3,2
1,629,4,81,65,2,2,1,1.229996e+00,NaN,2,1,2,2
1,630,4,13,68,1,1,1,6.980067e-01,NaN,2,1,1,2
1,631,4,92,56,2,2,1,7.318740e-01,NaN,2,0,2,2
1,632,4,110,15,2,1,0,1.075604e+00,NaN,2,0,3,2
1,657,4,25,46,1,1,1,1.273409e+00,NaN,2,0,1,3
1,658,4,144,36,2,2,1,1.100185e+00,NaN,2,0,3,3
1,659,4,67,17,2,2,1,9.655411e-01,NaN,2,1,2,3
1,660,4,120,55,1,1,1,1.388676e+00,NaN,2,0,3,3
1,661,4,51,63,2,2,1,1.514715e+00,NaN,2,0,2,3
1,662,4,93,8,1,1,1,3.091087e+00,NaN,2,0,2,3
1,663,4,99,51,2,2,1,1.117235e+00,NaN,2,0,3,3
1,664,4,79,10,2,2,1,7.579335e-01,NaN,2,0,2,3
1,665,4,74,1,1,2,0,1.237771e+00,NaN,2,0,2,3
1,666,4,122,24,1,1,1,8.180234e-01,NaN,2,0,3,3
1,667,4,105,42,1,1,1,1.710735e+00,NaN,2,0,3,3
1,668,4,45,9,1,1,1,1.471144e+00,NaN,2,0,1,3
1,669,4,107,16,2,2,1,1.090060e+00,NaN,2,1,3,3
1,670,4,15,11,2,2,1,1.035897e+00,NaN,2,1,1,3
1,671,4,61,60,2,2,1,9.120259e-01,NaN,2,0,2,3
1,672,4,59,69,2,2,1,7.930469e-01,NaN,2,0,2,3
1,673,4,48,27,2,2,1,2.102295e+00,NaN,2,1,1,3
1,674,4,8,71,2,2,1,1.359961e+00,NaN,2,1,1,3
1,675,4,58,3,1,0,0,3.499971e+00,NaN,2,1,2,3
1,676,4,7,53,1,0,0,3.499556e+00,NaN,2,0,1,3
1,677,4,33,32,2,0,0,3.499953e+00,NaN,2,0,1,3
1,678,4,72,7,1,1,1,1.211230e+00,NaN,2,0,2,3
1,679,4,82,54,2,2,1,8.959706e-01,NaN,2,0,2,3
1,680,4,75,41,1,1,1,6.012761e-01,NaN,2,0,2,3
1,681,5,8.423000e+01,22,2,0,0,2.500206e+00,1,1,0,2.100000e+00,1
1,682,5,8.999000e+01,51,2,2,1,5.155743e-01,1,1,0,2.300000e+00,1
1,683,5,4.461000e+01,60,1,2,0,6.451929e-01,1,1,0,1.200000e+00,1
1,684,5,8.999000e+01,51,2,1,0,5.983448e-01,2,1,0,2.300000e+00,1
1,685,5,9.625000e+01,46,2,2,1,5.601341e-01,1,1,0,2.100000e+00,1
1,686,5,1.089300e+02,8,3,3,1,1.977089e+00,1,1,0,3.200000e+00,1
1,687,5,8.917000e+01,72,2,2,1,5.073759e-01,1,1,0,2.300000e+00,1
1,688,5,1.009200e+02,56,3,3,1,5.723350e-01,1,1,0,3.200000e+00,1
1,689,5,1.731000e+01,30,1,1,1,3.098276e-01,1,1,0,1.300000e+00,1
1,690,5,4.443000e+01,52,1,1,1,4.949704e-01,1,1,0,1.300000e+00,1
1,691,5,3.451000e+01,63,1,1,1,4.886393e-01,1,1,0,1.200000e+00,1
1,692,5,6.642000e+01,67,2,2,1,2.897650e-01,1,1,0,2.100000e+00,1
1,693,5,1.402000e+02,57,3,3,1,2.993506e-01,1,1,0,3.100000e+00,1
1,694,5,1.299000e+02,40,3,3,1,1.648495e-01,1,1,0,3.200000e+00,1
1,695,5,8.804000e+01,64,2,2,1,3.499810e-01,1,1,0,2.300000e+00,1
1,696,5,1.299000e+02,40,3,3,1,2.637643e-01,2,1,0,3.200000e+00,1
1,697,5,1.092100e+02,58,3,1,0,4.731905e-01,1,1,0,3.100000e+00,1
1,698,5,1.217600e+02,14,3,3,1,1.474233e+00,1,1,0,3.200000e+00,1
1,699,5,1.247500e+02,41,3,3,1,1.739073e+00,1,1,0,3.200000e+00,1
1,700,5,3.256000e+01,18,1,3,0,3.493221e-01,1,1,0,1.200000e+00,1
1,701,5,1.260900e+02,6,3,1,0,6.067640e-01,1,1,0,3.100000e+00,1
1,702,5,1.370400e+02,70,3,0,0,2.500284e+00,1,1,0,3.100000e+00,1
1,703,5,8.423000e+01,22,2,0,0,2.500367e+00,2,1,0,2.100000e+00,1
1,704,5,4.130000e+01,31,1,2,0,8.756565e-01,1,1,0,1.300000e+00,1
1,705,5,1.217600e+02,14,3,0,0,2.500329e+00,2,1,0,3.200000e+00,1
1,706,5,7.118000e+01,39,2,2,1,6.952414e-01,1,1,0,2.300000e+00,1
1,707,5,1.247500e+02,41,3,2,0,6.482860e-01,2,1,0,3.200000e+00,1
1,708,5,4.443000e+01,52,1,1,1,3.137768e-01,2,1,0,1.300000e+00,1
1,709,5,5.733000e+01,32,2,2,1,3.393298e-01,1,1,0,2.100000e+00,1
1,710,5,1.258600e+02,34,3,1,0,5.966840e-01,1,1,0,3.200000e+00,1
1,711,5,4.443000e+01,52,1,1,1,7.822822e-01,3,1,0,1.300000e+00,1
1,712,5,7.003000e+01,49,2,2,1,1.183535e+00,1,1,0,2.300000e+00,1
1,713,5,5.733000e+01,32,2,2,1,1.009082e+00,2,1,0,2.100000e+00,1
1,714,5,7.745000e+01,9,2,2,1,1.826432e+00,1,1,0,2.100000e+00,1
1,715,5,8.098000e+01,45,2,2,1,6.361479e-01,1,1,0,2.300000e+00,1
1,716,5,1.009200e+02,56,3,1,0,2.133568e+00,2,1,0,3.200000e+00,1
1,717,5,1.370400e+02,70,3,2,0,9.762233e-01,2,1,0,3.100000e+00,1
1,718,5,5.428000e+01,66,2,2,1,1.250241e+00,1,1,0,2.100000e+00,1
1,719,5,5.733000e+01,32,2,2,1,1.155052e+00,3,1,0,2.100000e+00,1
1,720,5,1.092100e+02,58,3,2,0,4.844155e-01,2,1,0,3.100000e+00,1
1,721,5,1.402000e+02,57,3,2,0,1.709734e+00,2,1,0,3.100000e+00,1
1,722,5,1.287800e+02,13,3,2,0,1.663512e+00,1,1,0,3.200000e+00,1
1,723,5,1.299000e+02,40,3,3,1,2.736008e-01,3,1,0,3.200000e+00,1
1,724,5,1.092100e+02,58,3,3,1,9.062221e-01,3,1,0,3.100000e+00,1
1,725,5,1.009200e+02,56,3,2,0,1.155062e+00,3,1,0,3.200000e+00,1
1,726,5,1.089300e+02,8,3,2,0,1.340897e+00,2,1,0,3.200000e+00,1
1,727,5,6.238000e+01,23,2,3,0,7.415468e-01,1,1,0,2.100000e+00,1
1,728,5,7.003000e+01,49,2,0,0,2.500181e+00,2,1,0,2.300000e+00,1
1,729,5,7.003000e+01,49,2,3,0,9.843006e-01,3,1,0,2.300000e+00,1
1,730,5,5.428000e+01,66,2,2,1,5.617224e-01,2,1,0,2.100000e+00,1
1,731,5,8.999000e+01,51,2,2,1,8.428354e-01,3,1,0,2.300000e+00,1
1,732,5,3.451000e+01,63,1,2,0,5.965638e-01,2,1,0,1.200000e+00,1
1,733,5,1.239000e+01,43,1,2,0,1.301883e+00,1,1,0,1.300000e+00,1
1,734,5,2.520000e+00,37,1,1,1,3.995054e-01,1,1,0,1.200000e+00,1
1,735,5,8.614000e+01,38,2,2,1,9.450449e-01,1,1,0,2.300000e+00,1
1,736,5,6.329000e+01,25,2,2,1,3.460415e-01,1,1,0,2.100000e+00,1
1,737,5,1.111200e+02,4,3,0,0,2.500299e+00,1,1,0,3.100000e+00,1
1,738,5,1.270700e+02,53,3,2,0,8.380966e-01,1,1,0,3.100000e+00,1
1,739,5,5.428000e+01,66,2,2,1,1.134893e+00,3,1,0,2.100000e+00,1
1,740,5,1.270700e+02,53,3,1,0,4.000500e-01,2,1,0,3.100000e+00,1
1,741,5,1.137900e+02,10,3,3,1,2.810701e-01,1,1,0,3.200000e+00,1
1,742,5,1.217600e+02,14,3,0,0,2.500334e+00,3,1,0,3.200000e+00,1
1,743,5,2.420000e+00,29,1,1,1,3.566870e-01,1,1,0,1.300000e+00,1
1,744,5,1.217600e+02,14,3,3,1,2.615290e-01,4,1,0,3.200000e+00,1
1,745,5,8.804000e+01,64,2,2,1,3.190115e-01,2,1,0,2.300000e+00,1
1,746,5,6.642000e+01,67,2,0,0,2.500417e+00,2,1,0,2.100000e+00,1
1,747,5,1.260900e+02,6,3,2,0,6.344020e-01,2,1,0,3.100000e+00,1
1,748,5,6.642000e+01,67,2,3,0,8.283211e-01,3,1,0,2.100000e+00,1
1,749,5,1.351700e+02,61,3,3,1,1.117162e+00,1,1,0,3.100000e+00,1
1,750,5,1.258600e+02,34,3,3,1,9.428245e-01,2,1,0,3.200000e+00,1
1,751,5,4.774000e+01,1,1,1,1,4.960368e-01,1,1,0,1.200000e+00,1
1,752,5,3.256000e+01,18,1,3,0,1.353482e+00,2,1,0,1.200000e+00,1
1,753,5,6.510000e+01,15,2,3,0,1.218995e+00,1,1,0,2.300000e+00,1
1,754,5,1.368200e+02,54,3,3,1,1.084496e+00,1,1,0,3.200000e+00,1
1,755,5,8.405000e+01,42,2,2,1,1.125660e+00,1,1,0,2.300000e+00,1
1,756,5,1.089300e+02,8,3,2,0,1.247314e+00,3,1,0,3.200000e+00,1
1,757,5,1.258600e+02,34,3,2,0,8.008356e-01,3,1,0,3.200000e+00,1
1,758,5,1.287800e+02,13,3,3,1,7.460408e-01,2,1,0,3.200000e+00,1
1,759,5,1.260900e+02,6,3,3,1,8.677368e-01,3,1,0,3.100000e+00,1
1,760,5,1.351700e+02,61,3,3,1,8.686698e-01,2,1,0,3.100000e+00,1
1,761,5,9.625000e+01,46,2,3,0,4.704958e-01,2,1,0,2.100000e+00,1
1,762,5,1.402000e+02,57,3,3,1,2.561310e-01,3,1,0,3.100000e+00,1
1,763,5,3.720000e+01,55,1,3,0,4.411162e-01,1,1,0,1.300000e+00,1
1,764,5,9.625000e+01,46,2,2,1,3.383757e-01,3,1,0,2.100000e+00,1
1,765,5,4.130000e+01,31,1,1,1,3.793498e-01,2,1,0,1.300000e+00,1
1,766,5,1.239100e+02,12,3,3,1,2.926407e-01,1,1,0,3.200000e+00,1
1,767,5,1.260900e+02,6,3,3,1,2.780851e-01,4,1,0,3.100000e+00,1
1,768,5,1.061000e+02,44,3,3,1,8.718628e-01,1,1,0,3.100000e+00,1
1,769,5,3.772000e+01,7,1,1,1,2.193188e+00,1,1,0,1.200000e+00,1
1,770,5,6.650000e+00,5,1,1,1,2.510973e-01,1,1,0,1.200000e+00,1
1,771,5,6.238000e+01,23,2,2,1,6.843813e-01,2,1,0,2.100000e+00,1
1,772,5,8.098000e+01,45,2,2,1,2.860344e-01,2,1,0,2.300000e+00,1
1,773,5,1.731000e+01,30,1,1,1,2.795288e-01,2,1,0,1.300000e+00,1
1,774,5,7.118000e+01,39,2,2,1,4.649215e-01,2,1,0,2.300000e+00,1
1,775,5,3.959000e+01,69,1,2,0,2.662709e-01,1,1,0,1.200000e+00,1
1,776,5,1.368200e+02,54,3,2,0,6.759705e-01,2,1,0,3.200000e+00,1
1,777,5,1.137900e+02,10,3,3,1,5.092121e-01,2,1,0,3.200000e+00,1
1,778,5,3.720000e+01,55,1,2,0,9.426597e-01,2,1,0,1.300000e+00,1
1,779,5,6.329000e+01,25,2,2,1,5.360200e-01,2,1,0,2.100000e+00,1
1,780,5,3.619000e+01,19,1,2,0,7.217580e-01,1,1,0,1.300000e+00,1
1,781,5,3.451000e+01,63,1,2,0,7.626267e-01,3,1,0,1.200000e+00,1
1,782,5,3.959000e+01,69,1,1,1,1.260142e+00,2,1,0,1.200000e+00,1
1,783,5,7.131000e+01,26,2,2,1,2.777980e-01,1,1,0,2.100000e+00,1
1,784,5,3.772000e+01,7,1,1,1,4.313947e-01,2,1,0,1.200000e+00,1
1,785,5,1.270700e+02,53,3,3,1,2.805603e-01,3,1,0,3.100000e+00,1
1,786,5,4.443000e+01,52,1,1,1,2.978752e-01,4,1,0,1.300000e+00,1
1,787,5,1.731000e+01,30,1,1,1,3.392127e-01,3,1,0,1.300000e+00,1
1,788,5,4.774000e+01,1,1,1,1,4.216038e-01,2,1,0,1.200000e+00,1
1,789,5,6.510000e+01,15,2,1,0,2.703118e-01,2,1,0,2.300000e+00,1
1,790,5,6.329000e+01,25,2,2,1,5.272575e-01,3,1,0,2.100000e+00,1
1,791,5,1.934000e+01,28,1,1,1,2.812917e-01,1,1,0,1.300000e+00,1
1,792,5,8.917000e+01,72,2,2,1,5.383137e-01,2,1,0,2.300000e+00,1
1,793,5,1.061000e+02,44,3,2,0,2.999770e-01,2,1,0,3.100000e+00,1
1,794,5,1.239000e+01,43,1,2,0,3.810927e-01,2,1,0,1.300000e+00,1
1,795,5,6.510000e+01,15,2,3,0,7.506571e-01,3,1,0,2.300000e+00,1
1,796,5,7.118000e+01,39,2,2,1,4.321856e-01,3,1,0,2.300000e+00,1
1,797,5,8.098000e+01,45,2,2,1,4.651941e-01,3,1,0,2.300000e+00,1
1,798,5,5.428000e+01,66,2,2,1,7.149026e-01,4,1,0,2.100000e+00,1
1,799,5,4.440000e+00,36,1,3,0,3.161557e-01,1,1,0,1.300000e+00,1
1,800,5,8.999000e+01,51,2,2,1,3.579189e-01,4,1,0,2.300000e+00,1
1,801,5,4.130000e+01,31,1,2,0,6.789114e-01,3,1,0,1.300000e+00,1
1,802,5,3.959000e+01,69,1,1,1,2.638784e-01,3,1,0,1.200000e+00,1
1,803,5,4.130000e+01,31,1,2,0,4.892937e-01,4,1,0,1.300000e+00,1
1,804,5,1.111200e+02,4,3,1,0,5.146714e-01,2,1,0,3.100000e+00,1
1,805,5,2.420000e+00,29,1,3,0,3.480954e-01,2,1,0,1.300000e+00,1
1,806,5,1.287800e+02,13,3,3,1,4.453147e-01,3,1,0,3.200000e+00,1
1,807,5,7.131000e+01,26,2,2,1,6.711882e-01,2,1,0,2.100000e+00,1
1,808,5,8.098000e+01,45,2,2,1,6.246395e-01,4,1,0,2.300000e+00,1
1,809,5,2.420000e+00,29,1,1,1,1.231560e-04,3,1,0,1.300000e+00,1
1,810,5,6.642000e+01,67,2,2,1,1.279857e-04,4,1,0,2.100000e+00,1
1,811,5,6.650000e+00,5,1,1,1,6.021122e-02,2,1,0,1.200000e+00,1
1,812,5,6.510000e+01,15,2,3,0,3.012831e-01,4,1,0,2.300000e+00,1
1,813,5,7.745000e+01,9,2,1,0,4.718264e-02,2,1,0,2.100000e+00,1
1,814,5,6.650000e+00,5,1,1,1,1.216467e-04,3,1,0,1.200000e+00,1
1,815,5,8.614000e+01,38,2,2,1,1.777069e-02,2,1,0,2.300000e+00,1
1,816,5,6.650000e+00,5,1,1,1,6.722236e-02,4,1,0,1.200000e+00,1
1,817,5,1.402000e+02,57,3,3,1,1.258727e-04,4,1,0,3.100000e+00,1
1,818,5,1.111200e+02,4,3,3,1,1.349283e-04,3,1,0,3.100000e+00,1
1,819,5,3.619000e+01,19,1,2,0,1.255708e-04,2,1,0,1.300000e+00,1
1,820,5,6.329000e+01,25,2,2,1,1.237597e-04,4,1,0,2.100000e+00,1
1,821,5,4.774000e+01,1,1,1,1,1.207412e-04,3,1,0,1.200000e+00,1
1,822,5,3.451000e+01,63,1,1,1,1.198356e-04,4,1,0,1.200000e+00,1
1,823,5,1.092100e+02,58,3,1,0,1.225523e-04,4,1,0,3.100000e+00,1
1,824,5,3.619000e+01,19,1,1,1,1.237597e-04,3,1,0,1.300000e+00,1
1,825,5,1.247500e+02,41,3,2,0,1.343246e-04,3,1,0,3.200000e+00,1
1,826,5,8.917000e+01,72,2,2,1,6.012151e-01,3,1,0,2.300000e+00,1
1,827,5,8.423000e+01,22,2,3,0,2.986220e-01,3,1,0,2.100000e+00,1
1,828,5,4.461000e+01,60,1,2,0,5.244681e-01,2,1,0,1.200000e+00,1
1,829,5,8.405000e+01,42,2,2,1,4.051368e-01,2,1,0,2.300000e+00,1
1,830,5,4.461000e+01,60,1,1,1,3.180199e-01,3,1,0,1.200000e+00,1
1,831,5,1.247500e+02,41,3,1,0,5.040257e-01,4,1,0,3.200000e+00,1
1,832,5,1.368200e+02,54,3,3,1,1.104968e+00,3,1,0,3.200000e+00,1
1,833,5,2.520000e+00,37,1,1,1,2.823482e-01,2,1,0,1.200000e+00,1
1,834,5,1.368200e+02,54,3,4,0,2.999830e-01,4,1,0,3.200000e+00,1
1,835,5,7.745000e+01,9,2,2,1,7.574678e-01,3,1,0,2.100000e+00,1
1,836,5,8.614000e+01,38,2,2,1,1.501903e+00,3,1,0,2.300000e+00,1
1,837,5,3.772000e+01,7,1,2,0,1.176091e+00,3,1,0,1.200000e+00,1
1,838,5,8.614000e+01,38,2,2,1,6.420199e-01,4,1,0,2.300000e+00,1
1,839,5,1.934000e+01,28,1,2,0,1.218963e+00,2,1,0,1.300000e+00,1
1,840,5,1.111200e+02,4,3,3,1,6.831386e-02,4,1,0,3.100000e+00,1
1,841,5,1.239100e+02,12,3,3,1,6.217006e-01,2,1,0,3.200000e+00,1
1,842,5,1.239100e+02,12,3,3,1,3.113864e-01,3,1,0,3.200000e+00,1
1,843,5,6.238000e+01,23,2,2,1,4.728850e-01,3,1,0,2.100000e+00,1
1,844,5,8.804000e+01,64,2,2,1,4.736188e-01,3,1,0,2.300000e+00,1
1,845,5,8.917000e+01,72,2,2,1,2.664061e-01,4,1,0,2.300000e+00,1
1,846,5,2.520000e+00,37,1,1,1,3.475873e-01,3,1,0,1.200000e+00,1
1,847,5,3.256000e+01,18,1,1,1,7.251472e-01,3,1,0,1.200000e+00,1
1,848,5,7.131000e+01,26,2,2,1,7.655837e-01,3,1,0,2.100000e+00,1
1,849,5,2.520000e+00,37,1,1,1,4.071535e-01,4,1,0,1.200000e+00,1
1,850,5,1.061000e+02,44,3,0,0,2.500388e+00,3,1,0,3.100000e+00,1
1,851,5,1.934000e+01,28,1,0,0,2.500253e+00,3,1,0,1.300000e+00,1
1,852,5,1.258600e+02,34,3,0,0,2.500254e+00,4,1,0,3.200000e+00,1
1,853,5,1.370400e+02,70,3,0,0,2.500300e+00,3,1,0,3.100000e+00,1
1,854,5,7.003000e+01,49,2,2,1,1.201375e-04,4,1,0,2.300000e+00,1
1,855,5,7.745000e+01,9,2,2,1,4.179758e-01,4,1,0,2.100000e+00,1
1,856,5,8.405000e+01,42,2,2,1,1.491134e+00,3,1,0,2.300000e+00,1
1,857,5,3.122000e+01,24,1,1,1,2.998405e-01,1,1,0,1.300000e+00,1
1,858,5,3.772000e+01,7,1,2,0,2.261538e+00,4,1,0,1.200000e+00,1
1,859,5,4.774000e+01,1,1,2,0,7.163726e-02,4,1,0,1.200000e+00,1
1,860,5,1.270700e+02,53,3,0,0,2.500173e+00,4,1,0,3.100000e+00,1
1,861,5,3.122000e+01,24,1,0,0,2.500410e+00,2,1,0,1.300000e+00,1
1,862,5,1.934000e+01,28,1,2,0,1.219486e-04,4,1,0,1.300000e+00,1
1,863,5,1.351700e+02,61,3,0,0,2.500426e+00,3,1,0,3.100000e+00,1
1,864,5,4.461000e+01,60,1,0,0,2.500484e+00,4,1,0,1.200000e+00,1
1,865,5,3.959000e+01,69,1,0,0,2.500293e+00,4,1,0,1.200000e+00,1
1,866,5,1.351700e+02,61,3,0,0,2.500060e+00,4,1,0,3.100000e+00,1
1,867,5,3.720000e+01,55,1,0,0,2.500106e+00,3,1,0,1.300000e+00,1
1,868,5,1.239000e+01,43,1,0,0,2.500567e+00,3,1,0,1.300000e+00,1
1,869,5,4.440000e+00,36,1,0,0,2.500399e+00,2,1,0,1.300000e+00,1
1,870,5,1.299000e+02,40,3,0,0,2.500076e+00,4,1,0,3.200000e+00,1
1,871,5,5.733000e+01,32,2,2,1,2.078912e+00,4,1,0,2.100000e+00,1
1,872,5,4.440000e+00,36,1,0,0,2.500343e+00,3,1,0,1.300000e+00,1
1,873,5,1.009200e+02,56,3,0,0,2.500088e+00,4,1,0,3.200000e+00,1
1,874,5,8.804000e+01,64,2,2,1,7.096775e-01,4,1,0,2.300000e+00,1
1,875,5,9.625000e+01,46,2,2,1,1.142780e+00,4,1,0,2.100000e+00,1
1,876,5,7.118000e+01,39,2,2,1,4.881579e-01,4,1,0,2.300000e+00,1
1,877,5,3.720000e+01,55,1,2,0,6.658726e-01,4,1,0,1.300000e+00,1
1,878,5,2.420000e+00,29,1,2,0,1.563192e+00,4,1,0,1.300000e+00,1
1,879,5,1.287800e+02,13,3,3,1,3.575301e-01,4,1,0,3.200000e+00,1
1,880,5,1.137900e+02,10,3,0,0,2.500512e+00,3,1,0,3.200000e+00,1
1,881,5,4.440000e+00,36,1,3,0,8.322896e-01,4,1,0,1.300000e+00,1
1,882,5,1.137900e+02,10,3,2,0,1.343246e-04,4,1,0,3.200000e+00,1
1,883,5,1.061000e+02,44,3,2,0,1.198356e-04,4,1,0,3.100000e+00,1
1,884,5,1.731000e+01,30,1,2,0,1.207412e-04,4,1,0,1.300000e+00,1
1,885,5,8.405000e+01,42,2,0,0,2.500576e+00,4,1,0,2.300000e+00,1
1,886,5,1.239100e+02,12,3,0,0,2.500585e+00,4,1,0,3.200000e+00,1
1,887,5,1.239000e+01,43,1,0,0,2.500455e+00,4,1,0,1.300000e+00,1
1,888,5,1.089300e+02,8,3,0,0,2.500060e+00,4,1,0,3.200000e+00,1
1,889,5,6.238000e+01,23,2,0,0,2.500193e+00,4,1,0,2.100000e+00,1
1,890,5,3.256000e+01,18,1,0,0,2.500130e+00,4,1,0,1.200000e+00,1
1,891,5,8.423000e+01,22,2,0,0,2.500356e+00,4,1,0,2.100000e+00,1
1,892,5,3.122000e+01,24,1,0,0,2.500597e+00,3,1,0,1.300000e+00,1
1,893,5,3.122000e+01,24,1,0,0,2.500341e+00,4,1,0,1.300000e+00,1
1,894,5,3.619000e+01,19,1,0,0,2.500255e+00,4,1,0,1.300000e+00,1
1,895,5,7.131000e+01,26,2,0,0,2.500552e+00,4,1,0,2.100000e+00,1
1,896,5,1.370400e+02,70,3,0,0,2.500189e+00,4,1,0,3.100000e+00,1
1,897,6,120,55,2,2,1,2.343241e+00,NaN,2,0,3,1
1,898,6,105,42,1,1,1,9.841892e-01,NaN,2,0,3,1
1,899,6,38,23,2,2,1,3.126537e+00,NaN,2,0,1,1
1,900,6,7,53,1,1,1,8.162044e-01,NaN,2,0,1,1
1,901,6,93,8,2,1,0,1.405143e+00,NaN,2,0,2,1
1,902,6,61,60,1,1,1,7.153203e-01,NaN,2,0,2,1
1,903,6,65,5,2,1,0,1.100908e+00,NaN,2,0,2,1
1,904,6,114,38,2,2,1,7.987169e-01,NaN,2,0,3,1
1,905,6,74,1,1,2,0,9.648003e-01,NaN,2,0,2,1
1,906,6,20,57,2,2,1,1.044295e+00,NaN,2,0,1,1
1,907,6,116,20,2,2,1,7.522578e-01,NaN,2,1,3,1
1,908,6,12,4,2,1,0,7.845829e-01,NaN,2,0,1,1
1,909,6,5,47,1,1,1,8.712842e-01,NaN,2,1,1,1
1,910,6,143,52,1,1,1,8.345825e-01,NaN,2,0,3,1
1,911,6,103,49,2,2,1,1.735185e+00,NaN,2,0,3,1
1,912,6,28,66,1,1,1,8.876944e-01,NaN,2,0,1,1
1,913,6,72,7,1,1,1,8.982251e-01,NaN,2,0,2,1
1,914,6,117,72,1,1,1,8.767646e-01,NaN,2,0,3,1
1,915,6,132,2,2,2,1,1.119175e+00,NaN,2,1,3,1
1,916,6,42,67,2,2,1,7.684890e-01,NaN,2,0,1,1
1,917,6,8,71,1,1,1,8.316542e-01,NaN,2,1,1,1
1,918,6,75,41,1,1,1,6.449243e-01,NaN,2,0,2,1
1,919,6,67,17,2,2,1,8.325477e-01,NaN,2,1,2,1
1,920,6,131,30,2,2,1,8.211322e-01,NaN,2,0,3,1
1,921,6,4,70,1,2,0,8.344898e-01,NaN,2,0,1,1
1,922,6,56,18,2,2,1,7.032197e-01,NaN,2,0,2,1
1,923,6,58,3,1,1,1,8.092962e-01,NaN,2,1,2,1
1,924,6,142,29,1,1,1,9.033337e-01,NaN,2,0,3,1
1,925,6,48,27,1,2,0,8.092479e-01,NaN,2,1,1,1
1,926,6,90,40,1,2,0,7.273323e-01,NaN,2,0,2,1
1,927,6,95,48,2,1,0,7.205285e-01,NaN,2,1,2,1
1,928,6,122,24,1,1,1,7.693535e-01,NaN,2,0,3,1
1,929,6,92,56,2,2,1,6.968433e-01,NaN,2,0,2,1
1,930,6,110,15,2,1,0,7.789494e-01,NaN,2,0,3,1
1,931,6,25,46,1,1,1,8.413443e-01,NaN,2,0,1,1
1,932,6,29,25,1,1,1,7.347391e-01,NaN,2,0,1,1
1,933,6,86,34,2,1,0,1.126664e+00,NaN,2,0,2,1
1,934,6,115,35,2,2,1,1.295513e+00,NaN,2,1,3,1
1,935,6,144,36,2,2,1,9.214588e-01,NaN,2,0,3,1
1,936,6,45,9,2,2,1,7.388754e-01,NaN,2,0,1,1
1,937,6,107,16,2,2,1,6.283215e-01,NaN,2,1,3,1
1,938,6,91,12,2,2,1,1.488194e+00,NaN,2,0,2,1
1,939,6,119,19,2,2,1,1.763321e+00,NaN,2,0,3,1
1,940,6,33,32,2,2,1,7.864900e-01,NaN,2,0,1,1
1,941,6,79,10,2,2,1,5.130511e-01,NaN,2,0,2,1
1,942,6,21,58,2,2,1,4.825965e-01,NaN,2,0,1,1
1,943,6,17,61,1,2,0,1.533031e+00,NaN,2,0,1,1
1,944,6,10,44,2,1,0,1.469869e+00,NaN,2,0,1,1
1,945,6,81,65,1,1,1,8.010852e-01,NaN,2,1,2,1
1,946,6,118,39,2,1,0,1.567236e+00,NaN,2,0,3,1
1,947,6,51,63,1,1,1,8.785057e-01,NaN,2,0,2,1
1,948,6,138,21,1,2,0,9.131898e-01,NaN,2,1,3,1
1,949,6,104,64,2,2,1,9.308790e-01,NaN,2,0,3,1
1,950,6,53,59,1,2,0,1.019361e+00,NaN,2,1,2,1
1,951,6,46,62,2,2,1,1.264794e+00,NaN,2,1,1,1
1,952,6,130,31,2,2,1,1.660234e+00,NaN,2,0,3,1
1,953,6,59,69,2,2,1,7.515445e-01,NaN,2,0,2,1
1,954,6,9,6,1,1,1,1.039659e+00,NaN,2,0,1,1
1,955,6,78,13,2,2,1,9.965121e-01,NaN,2,0,2,1
1,956,6,15,11,1,2,0,9.462451e-01,NaN,2,1,1,1
1,957,6,31,26,1,1,1,1.402485e+00,NaN,2,0,1,1
1,958,6,98,45,2,2,1,1.456577e+00,NaN,2,0,3,1
1,959,6,50,50,1,1,1,9.561749e-01,NaN,2,1,2,1
1,960,6,13,68,1,1,1,7.322289e-01,NaN,2,1,1,1
1,961,6,23,22,2,2,1,1.005353e+00,NaN,2,0,1,1
1,962,6,139,43,2,2,1,6.908008e-01,NaN,2,0,3,1
1,963,6,99,51,2,2,1,9.575981e-01,NaN,2,0,3,1
1,964,6,24,33,1,2,0,6.937345e-01,NaN,2,1,1,1
1,965,6,76,14,2,2,1,8.315159e-01,NaN,2,0,2,1
1,966,6,134,28,2,2,1,1.892266e+00,NaN,2,0,3,1
1,967,6,52,37,1,2,0,1.311248e+00,NaN,2,0,2,1
1,968,6,82,54,1,2,0,9.208218e-01,NaN,2,0,2,1
1,969,6,35,19,2,2,1,5.219880e-01,NaN,1,0,1,1
1,970,6,126,6,1,2,0,8.672979e-01,NaN,1,0,3,1
1,971,6,54,66,2,2,1,1.590927e+00,NaN,1,0,2,1
1,972,6,127,53,1,2,0,2.301178e+00,NaN,1,0,3,1
1,973,6,32,18,2,2,1,1.095294e+00,NaN,1,0,1,1
1,974,6,89,51,2,2,1,1.137596e+00,NaN,1,0,2,1
1,975,6,77,9,2,2,1,1.249969e+00,NaN,1,0,2,1
1,976,6,1,29,1,1,1,8.542968e-01,NaN,1,0,1,1
1,977,6,66,67,2,2,1,6.179746e-01,NaN,1,0,2,1
1,978,6,87,64,1,1,1,8.474513e-01,NaN,1,0,2,1
1,979,6,16,30,1,1,1,9.958097e-01,NaN,1,0,1,1
1,980,6,57,32,2,1,0,5.535700e-01,NaN,1,0,2,1
1,981,6,64,15,2,2,1,6.495224e-01,NaN,1,0,2,1
1,982,6,129,40,2,2,1,7.257460e-01,NaN,1,0,3,1
1,983,6,44,60,1,1,1,1.103526e+00,NaN,1,0,1,1
1,984,6,41,21,2,2,1,7.451422e-01,NaN,1,1,1,1
1,985,6,85,38,1,1,1,8.492884e-01,NaN,1,0,2,1
1,986,6,68,20,1,1,1,7.011145e-01,NaN,1,1,2,1
1,987,6,39,69,2,2,1,7.914582e-01,NaN,1,0,1,1
1,988,6,121,14,2,1,0,8.140746e-01,NaN,1,0,3,1
1,989,6,84,22,1,1,1,7.869929e-01,NaN,1,0,2,1
1,990,6,108,8,2,2,1,9.221748e-01,NaN,1,0,3,1
1,991,6,22,2,1,1,1,1.083405e+00,NaN,1,1,1,1
1,992,6,2,37,1,1,1,8.380987e-01,NaN,1,0,1,1
1,993,6,30,24,1,1,1,7.783391e-01,NaN,1,0,1,1
1,994,6,73,35,1,2,0,8.011728e-01,NaN,1,1,2,1
1,995,6,109,58,1,2,0,8.312231e-01,NaN,1,0,3,1
1,996,6,97,11,2,2,1,8.842364e-01,NaN,1,1,3,1
1,997,6,14,50,2,2,1,8.387752e-01,NaN,1,1,1,1
1,998,6,40,31,1,1,1,7.155452e-01,NaN,1,0,1,1
1,999,6,96,46,2,2,1,6.046831e-01,NaN,1,0,2,1
1,1000,6,19,59,1,1,1,6.586879e-01,NaN,1,1,1,1
1,1001,6,141,47,2,2,1,7.346960e-01,NaN,1,1,3,1
1,1002,6,34,63,1,1,1,8.953844e-01,NaN,1,0,1,1
1,1003,6,6,5,1,1,1,9.215224e-01,NaN,1,0,1,1
1,1004,6,88,72,2,1,0,9.148874e-01,NaN,1,0,2,1
1,1005,6,140,57,2,2,1,5.879915e-01,NaN,1,0,3,1
1,1006,6,102,68,2,2,1,8.910655e-01,NaN,1,1,3,1
1,1007,6,62,23,1,1,1,8.052719e-01,NaN,1,0,2,1
1,1008,6,36,55,1,2,0,2.451441e+00,NaN,1,0,1,1
1,1009,6,111,4,2,2,1,6.955493e-01,NaN,1,0,3,1
1,1010,6,60,62,1,1,1,6.739755e-01,NaN,1,1,2,1
1,1011,6,135,61,1,1,1,8.209577e-01,NaN,1,0,3,1
1,1012,6,37,7,2,2,1,8.822061e-01,NaN,1,0,1,1
1,1013,6,11,43,1,1,1,1.365209e+00,NaN,1,0,1,1
1,1014,6,101,48,2,1,0,1.540188e+00,NaN,1,1,3,1
1,1015,6,18,28,2,2,1,7.650165e-01,NaN,1,0,1,1
1,1016,6,55,16,2,2,1,8.444289e-01,NaN,1,1,2,1
1,1017,6,69,49,2,2,1,8.566681e-01,NaN,1,0,2,1
1,1018,6,27,17,2,1,0,8.447703e-01,NaN,1,1,1,1
1,1019,6,124,41,1,2,0,1.064998e+00,NaN,1,0,3,1
1,1020,6,63,25,2,2,1,1.163818e+00,NaN,1,0,2,1
1,1021,6,128,13,1,2,0,9.153634e-01,NaN,1,0,3,1
1,1022,6,106,44,1,1,1,9.566723e-01,NaN,1,0,3,1
1,1023,6,123,12,2,2,1,7.408157e-01,NaN,1,0,3,1
1,1024,6,94,33,1,1,1,9.652286e-01,NaN,1,1,2,1
1,1025,6,112,65,1,1,1,7.646712e-01,NaN,1,1,3,1
1,1026,6,47,1,2,2,1,5.478991e-01,NaN,1,0,1,1
1,1027,6,100,56,2,2,1,1.748406e+00,NaN,1,0,3,1
1,1028,6,49,27,1,1,1,7.401692e-01,NaN,1,1,2,1
1,1029,6,83,42,1,1,1,6.290326e-01,NaN,1,0,2,1
1,1030,6,133,71,1,1,1,1.145330e+00,NaN,1,1,3,1
1,1031,6,26,3,1,1,1,7.056351e-01,NaN,1,1,1,1
1,1032,6,3,36,1,1,1,1.147487e+00,NaN,1,0,1,1
1,1033,6,43,52,1,1,1,1.643853e+00,NaN,1,0,1,1
1,1034,6,71,26,1,1,1,5.835111e-01,NaN,1,0,2,1
1,1035,6,80,45,2,2,1,6.385371e-01,NaN,1,0,2,1
1,1036,6,137,70,1,1,1,1.154928e+00,NaN,1,0,3,1
1,1037,6,125,34,2,2,1,8.752025e-01,NaN,1,0,3,1
1,1038,6,136,54,1,1,1,9.507047e-01,NaN,1,0,3,1
1,1039,6,70,39,2,2,1,6.546449e-01,NaN,1,0,2,1
1,1040,6,113,10,2,2,1,8.744506e-01,NaN,1,0,3,1
