Trial,Cond,ImageNum,Cue,Block,Correct,Response,RT,Accuracy,CueRep,fName,ImageType,Baseline,Category
1,1,57,NA,NA,NA,1,2.8031,NA,NA,S_Lure_57.bmp,0,1,3
2,1,18,NA,NA,NA,1,0.77534,NA,NA,F_Lure_18.bmp,0,1,1
3,1,40,NA,NA,NA,1,0.78214,NA,NA,O_Image_40.bmp,1,1,2
4,1,5,NA,NA,NA,1,0.62677,NA,NA,F_Lure_5.bmp,0,0,1
5,1,57,NA,NA,NA,1,1.4554,NA,NA,S_Image_57.bmp,2,1,3
6,1,27,NA,NA,NA,1,1.2668,NA,NA,O_Lure_27.bmp,0,0,2
7,1,67,NA,NA,NA,1,1.0862,NA,NA,S_Lure_67.bmp,0,1,3
8,1,25,NA,NA,NA,1,0.65643,NA,NA,O_Lure_25.bmp,0,0,2
9,1,49,NA,NA,NA,1,0.69161,NA,NA,S_Lure_49.bmp,0,0,3
10,1,28,NA,NA,NA,1,1.117,NA,NA,O_Lure_28.bmp,0,1,2
11,1,43,NA,NA,NA,1,0.42988,NA,NA,O_Lure_43.bmp,0,0,2
12,1,37,NA,NA,NA,1,0.60993,NA,NA,O_Image_37.bmp,2,1,2
13,1,30,NA,NA,NA,1,1.0211,NA,NA,O_Lure_30.bmp,0,0,2
14,1,61,NA,NA,NA,1,1.3531,NA,NA,S_Image_61.bmp,2,0,3
15,1,60,NA,NA,NA,1,0.72671,NA,NA,S_Lure_60.bmp,0,1,3
16,1,67,NA,NA,NA,1,0.7427,NA,NA,S_Image_67.bmp,2,1,3
17,1,24,NA,NA,NA,1,0.37344,NA,NA,F_Image_24.bmp,2,0,1
18,1,32,NA,NA,NA,1,0.37212,NA,NA,O_Image_32.bmp,1,0,2
19,1,44,NA,NA,NA,1,0.43408,NA,NA,O_Lure_44.bmp,0,1,2
20,1,65,NA,NA,NA,1,0.046041,NA,NA,S_Image_65.bmp,2,1,3
21,1,34,NA,NA,NA,1,0.31494,NA,NA,O_Lure_34.bmp,0,0,2
22,1,59,NA,NA,NA,1,0.028595,NA,NA,S_Lure_59.bmp,0,0,3
23,1,20,NA,NA,NA,1,2.2095,NA,NA,F_Lure_20.bmp,0,1,1
24,1,14,NA,NA,NA,1,0.58093,NA,NA,F_Image_14.bmp,1,0,1
25,1,45,NA,NA,NA,1,0.31594,NA,NA,O_Lure_45.bmp,0,1,2
26,1,15,NA,NA,NA,1,0.44529,NA,NA,F_Lure_15.bmp,0,0,1
27,1,20,NA,NA,NA,1,0.24105,NA,NA,F_Image_20.bmp,2,1,1
28,1,12,NA,NA,NA,1,0.80321,NA,NA,F_Image_12.bmp,2,0,1
29,1,4,NA,NA,NA,1,0.51206,NA,NA,F_Lure_4.bmp,0,1,1
30,1,62,NA,NA,NA,1,0.033138,NA,NA,S_Lure_62.bmp,0,0,3
31,1,7,NA,NA,NA,1,0.74054,NA,NA,F_Image_7.bmp,1,1,1
32,1,31,NA,NA,NA,1,0.34735,NA,NA,O_Image_31.bmp,2,1,2
33,1,13,NA,NA,NA,1,0.5462,NA,NA,F_Image_13.bmp,2,1,1
34,1,15,NA,NA,NA,1,2.1289,NA,NA,F_Image_15.bmp,2,0,1
35,1,10,NA,NA,NA,1,0.48082,NA,NA,F_Image_10.bmp,2,1,1
36,1,50,NA,NA,NA,1,0.6415,NA,NA,S_Image_50.bmp,2,1,3
37,1,45,NA,NA,NA,1,0.54896,NA,NA,O_Image_45.bmp,1,1,2
38,1,16,NA,NA,NA,1,0.40444,NA,NA,F_Lure_16.bmp,0,1,1
39,1,25,NA,NA,NA,1,0.31231,NA,NA,O_Image_25.bmp,2,0,2
40,1,62,NA,NA,NA,1,0.67311,NA,NA,S_Image_62.bmp,1,0,3
41,1,28,NA,NA,NA,1,0.41041,NA,NA,O_Image_28.bmp,1,1,2
42,1,38,NA,NA,NA,1,0.67237,NA,NA,O_Image_38.bmp,1,0,2
43,1,69,NA,NA,NA,1,0.31515,NA,NA,S_Lure_69.bmp,0,0,3
44,1,55,NA,NA,NA,1,0.035202,NA,NA,S_Lure_55.bmp,0,0,3
45,1,33,NA,NA,NA,1,2.2384,NA,NA,O_Image_33.bmp,1,1,2
46,1,8,NA,NA,NA,1,1.6025,NA,NA,F_Image_8.bmp,1,0,1
47,1,17,NA,NA,NA,1,0.63138,NA,NA,F_Image_17.bmp,1,0,1
48,1,34,NA,NA,NA,1,0.69944,NA,NA,O_Image_34.bmp,1,0,2
49,1,2,NA,NA,NA,1,0.55686,NA,NA,F_Lure_2.bmp,0,0,1
50,1,63,NA,NA,NA,1,0.53108,NA,NA,S_Image_63.bmp,1,1,3
51,1,64,NA,NA,NA,1,0.52216,NA,NA,S_Lure_64.bmp,0,0,3
52,1,1,NA,NA,NA,1,0.3789,NA,NA,F_Image_1.bmp,2,0,1
53,1,55,NA,NA,NA,1,0.21558,NA,NA,S_Image_55.bmp,1,0,3
54,1,61,NA,NA,NA,1,0.77958,NA,NA,S_Lure_61.bmp,0,0,3
55,1,46,NA,NA,NA,1,1.1049,NA,NA,O_Lure_46.bmp,0,0,2
56,1,54,NA,NA,NA,1,0.4892,NA,NA,S_Image_54.bmp,1,0,3
57,1,50,NA,NA,NA,1,0.61046,NA,NA,S_Lure_50.bmp,0,1,3
58,1,26,NA,NA,NA,1,0.00014368,NA,NA,O_Image_26.bmp,2,0,2
59,1,52,NA,NA,NA,1,0.45271,NA,NA,S_Lure_52.bmp,0,1,3
60,1,70,NA,NA,NA,1,0.33392,NA,NA,S_Lure_70.bmp,0,1,3
61,1,35,NA,NA,NA,1,0.43601,NA,NA,O_Image_35.bmp,1,1,2
62,1,19,NA,NA,NA,1,0.30398,NA,NA,F_Image_19.bmp,1,0,1
63,1,56,NA,NA,NA,1,0.39229,NA,NA,S_Lure_56.bmp,0,1,3
64,1,41,NA,NA,NA,1,0.51739,NA,NA,O_Lure_41.bmp,0,1,2
65,1,16,NA,NA,NA,1,0.33493,NA,NA,F_Image_16.bmp,1,1,1
66,1,23,NA,NA,NA,1,1.0789,NA,NA,F_Image_23.bmp,2,0,1
67,1,40,NA,NA,NA,1,0.0001147,NA,NA,O_Lure_40.bmp,0,1,2
68,1,46,NA,NA,NA,1,0.29351,NA,NA,O_Image_46.bmp,2,0,2
69,1,9,NA,NA,NA,1,0.37511,NA,NA,F_Image_9.bmp,2,1,1
70,1,24,NA,NA,NA,1,0.66085,NA,NA,F_Lure_24.bmp,0,0,1
71,1,8,NA,NA,NA,1,0.32562,NA,NA,F_Lure_8.bmp,0,0,1
72,1,43,NA,NA,NA,1,1.9729,NA,NA,O_Image_43.bmp,2,0,2
73,1,51,NA,NA,NA,1,0.64367,NA,NA,S_Image_51.bmp,1,1,3
74,1,63,NA,NA,NA,1,0.75124,NA,NA,S_Lure_63.bmp,0,1,3
75,1,19,NA,NA,NA,1,0.158,NA,NA,F_Lure_19.bmp,0,0,1
76,1,69,NA,NA,NA,1,0.59655,NA,NA,S_Image_69.bmp,1,0,3
77,1,7,NA,NA,NA,1,0.41725,NA,NA,F_Lure_7.bmp,0,1,1
78,1,23,NA,NA,NA,1,1.2292,NA,NA,F_Lure_23.bmp,0,0,1
79,1,36,NA,NA,NA,1,0.55425,NA,NA,O_Image_36.bmp,2,1,2
80,1,36,NA,NA,NA,1,0.56202,NA,NA,O_Lure_36.bmp,0,1,2
81,1,49,NA,NA,NA,1,0.42546,NA,NA,S_Image_49.bmp,2,0,3
82,1,29,NA,NA,NA,1,0.30008,NA,NA,O_Lure_29.bmp,0,1,2
83,1,51,NA,NA,NA,1,0.39746,NA,NA,S_Lure_51.bmp,0,1,3
84,1,48,NA,NA,NA,1,0.38019,NA,NA,O_Image_48.bmp,2,0,2
85,1,71,NA,NA,NA,1,1.0256,NA,NA,S_Lure_71.bmp,0,0,3
86,1,4,NA,NA,NA,1,1.2288,NA,NA,F_Image_4.bmp,2,1,1
87,1,14,NA,NA,NA,1,0.69564,NA,NA,F_Lure_14.bmp,0,0,1
88,1,44,NA,NA,NA,1,0.73699,NA,NA,O_Image_44.bmp,2,1,2
89,1,6,NA,NA,NA,1,0.51242,NA,NA,F_Image_6.bmp,1,0,1
90,1,27,NA,NA,NA,1,0.53714,NA,NA,O_Image_27.bmp,2,0,2
91,1,29,NA,NA,NA,1,0.42446,NA,NA,O_Image_29.bmp,2,1,2
92,1,10,NA,NA,NA,1,0.38724,NA,NA,F_Lure_10.bmp,0,1,1
93,1,11,NA,NA,NA,1,0.3339,NA,NA,F_Lure_11.bmp,0,0,1
94,1,5,NA,NA,NA,1,0.51594,NA,NA,F_Image_5.bmp,1,0,1
95,1,52,NA,NA,NA,1,1.0283,NA,NA,S_Image_52.bmp,2,1,3
96,1,54,NA,NA,NA,1,0.62469,NA,NA,S_Lure_54.bmp,0,0,3
97,1,38,NA,NA,NA,1,0.24479,NA,NA,O_Lure_38.bmp,0,0,2
98,1,68,NA,NA,NA,1,0.88076,NA,NA,S_Image_68.bmp,1,0,3
99,1,53,NA,NA,NA,1,1.5242,NA,NA,S_Lure_53.bmp,0,1,3
100,1,35,NA,NA,NA,1,2.0921,NA,NA,O_Lure_35.bmp,0,1,2
101,1,53,NA,NA,NA,1,0.46896,NA,NA,S_Image_53.bmp,2,1,3
102,1,64,NA,NA,NA,1,0.35046,NA,NA,S_Image_64.bmp,2,0,3
103,1,26,NA,NA,NA,1,2.341,NA,NA,O_Lure_26.bmp,0,0,2
104,1,3,NA,NA,NA,1,1.0278,NA,NA,F_Lure_3.bmp,0,1,1
105,1,30,NA,NA,NA,1,1.1419,NA,NA,O_Image_30.bmp,1,0,2
106,1,22,NA,NA,NA,1,0.67657,NA,NA,F_Lure_22.bmp,0,1,1
107,1,71,NA,NA,NA,1,3.9818,NA,NA,S_Image_71.bmp,2,0,3
108,1,66,NA,NA,NA,1,1.242,NA,NA,S_Image_66.bmp,2,1,3
109,1,33,NA,NA,NA,1,0.48618,NA,NA,O_Lure_33.bmp,0,1,2
110,1,42,NA,NA,NA,1,0.049433,NA,NA,O_Image_42.bmp,1,1,2
111,1,68,NA,NA,NA,1,0.32412,NA,NA,S_Lure_68.bmp,0,0,3
112,1,6,NA,NA,NA,1,0.31617,NA,NA,F_Lure_6.bmp,0,0,1
113,1,70,NA,NA,NA,1,0.73313,NA,NA,S_Image_70.bmp,1,1,3
114,1,60,NA,NA,NA,1,0.42689,NA,NA,S_Image_60.bmp,1,1,3
115,1,39,NA,NA,NA,1,0.48693,NA,NA,O_Lure_39.bmp,0,0,2
116,1,39,NA,NA,NA,1,1.1697,NA,NA,O_Image_39.bmp,2,0,2
117,1,48,NA,NA,NA,1,0.26462,NA,NA,O_Lure_48.bmp,0,0,2
118,1,13,NA,NA,NA,1,0.97982,NA,NA,F_Lure_13.bmp,0,1,1
119,1,32,NA,NA,NA,1,0.71929,NA,NA,O_Lure_32.bmp,0,0,2
120,1,31,NA,NA,NA,1,1.8371,NA,NA,O_Lure_31.bmp,0,1,2
121,1,42,NA,NA,NA,1,0.56056,NA,NA,O_Lure_42.bmp,0,1,2
122,1,47,NA,NA,NA,1,0.4148,NA,NA,O_Lure_47.bmp,0,1,2
123,1,11,NA,NA,NA,1,0.34732,NA,NA,F_Image_11.bmp,1,0,1
124,1,12,NA,NA,NA,1,0.29002,NA,NA,F_Lure_12.bmp,0,0,1
125,1,3,NA,NA,NA,1,0.37145,NA,NA,F_Image_3.bmp,1,1,1
126,1,58,NA,NA,NA,1,0.77541,NA,NA,S_Image_58.bmp,1,1,3
127,1,17,NA,NA,NA,1,0.3495,NA,NA,F_Lure_17.bmp,0,0,1
128,1,1,NA,NA,NA,1,0.62088,NA,NA,F_Lure_1.bmp,0,0,1
129,1,72,NA,NA,NA,1,0.55291,NA,NA,S_Image_72.bmp,1,0,3
130,1,9,NA,NA,NA,1,0.35093,NA,NA,F_Lure_9.bmp,0,1,1
131,1,21,NA,NA,NA,1,0.65299,NA,NA,F_Image_21.bmp,1,0,1
132,1,59,NA,NA,NA,1,0.54453,NA,NA,S_Image_59.bmp,2,0,3
133,1,66,NA,NA,NA,1,0.98319,NA,NA,S_Lure_66.bmp,0,1,3
134,1,18,NA,NA,NA,1,0.14893,NA,NA,F_Image_18.bmp,2,1,1
135,1,41,NA,NA,NA,1,0.90915,NA,NA,O_Image_41.bmp,1,1,2
136,1,2,NA,NA,NA,1,0.26068,NA,NA,F_Image_2.bmp,2,0,1
137,1,72,NA,NA,NA,1,0.32736,NA,NA,S_Lure_72.bmp,0,0,3
138,1,65,NA,NA,NA,1,0.34325,NA,NA,S_Lure_65.bmp,0,1,3
139,1,47,NA,NA,NA,1,4.199,NA,NA,O_Image_47.bmp,1,1,2
140,1,37,NA,NA,NA,1,0.28336,NA,NA,O_Lure_37.bmp,0,1,2
141,1,21,NA,NA,NA,1,0.33281,NA,NA,F_Lure_21.bmp,0,0,1
142,1,22,NA,NA,NA,1,0.31748,NA,NA,F_Image_22.bmp,1,1,1
143,1,58,NA,NA,NA,1,1.1816,NA,NA,S_Lure_58.bmp,0,1,3
144,1,56,NA,NA,NA,1,2.3483,NA,NA,S_Image_56.bmp,1,1,3
145,2,58,hurricane,1,1,1,2.8555,1,NA,S_Image_58.bmp-S_Lure_58.bmp,1,1,3
146,2,8,bubble,1,1,1,1.3573,1,NA,F_Image_8.bmp-F_Lure_8.bmp,1,0,1
147,2,51,magnet,1,1,1,2.1486,1,NA,S_Image_51.bmp-S_Lure_51.bmp,1,1,3
148,2,42,breakfast,1,1,1,0.61995,1,NA,O_Image_42.bmp-O_Lure_42.bmp,1,1,2
149,2,19,costume,1,1,1,1.0967,1,NA,F_Image_19.bmp-F_Lure_19.bmp,1,0,1
150,2,63,flood,1,1,1,0.80214,1,NA,S_Image_63.bmp-S_Lure_63.bmp,1,1,3
151,2,5,harem,1,2,2,2.5996,1,NA,F_Image_5.bmp-F_Lure_5.bmp,1,0,1
152,2,72,fuel,1,1,1,2.7012,1,NA,S_Image_72.bmp-S_Lure_72.bmp,1,0,3
153,2,32,lever,1,2,1,0.50253,0,NA,O_Image_32.bmp-O_Lure_32.bmp,1,0,2
154,2,55,black,1,2,2,1.3198,1,NA,S_Image_55.bmp-S_Lure_55.bmp,1,0,3
155,2,30,galaxy,1,2,2,1.3607,1,NA,O_Image_30.bmp-O_Lure_30.bmp,1,0,2
156,2,54,attack,1,1,2,1.7601,0,NA,S_Image_54.bmp-S_Lure_54.bmp,1,0,3
157,3,32,lever,1,2,2,1.007,1,NA,O_Image_32.bmp-O_Lure_32.bmp,1,0,2
158,3,63,flood,1,1,1,1.2444,1,NA,S_Image_63.bmp-S_Lure_63.bmp,1,1,3
159,3,54,attack,1,1,2,0.84886,0,NA,S_Image_54.bmp-S_Lure_54.bmp,1,0,3
160,3,51,magnet,1,1,1,1.7396,1,NA,S_Image_51.bmp-S_Lure_51.bmp,1,1,3
161,3,19,costume,1,1,1,0.74766,1,NA,F_Image_19.bmp-F_Lure_19.bmp,1,0,1
162,3,5,harem,1,1,1,2.0989,1,NA,F_Image_5.bmp-F_Lure_5.bmp,1,0,1
163,3,72,fuel,1,1,1,1.213,1,NA,S_Image_72.bmp-S_Lure_72.bmp,1,0,3
164,3,58,hurricane,1,2,1,1.2574,0,NA,S_Image_58.bmp-S_Lure_58.bmp,1,1,3
165,3,42,breakfast,1,1,1,0.51685,1,NA,O_Image_42.bmp-O_Lure_42.bmp,1,1,2
166,3,30,galaxy,1,2,2,1.5975,1,NA,O_Image_30.bmp-O_Lure_30.bmp,1,0,2
167,3,8,bubble,1,2,2,1.1073,1,NA,F_Image_8.bmp-F_Lure_8.bmp,1,0,1
168,3,55,black,1,2,2,0.51652,1,NA,S_Image_55.bmp-S_Lure_55.bmp,1,0,3
169,2,69,corner,2,1,1,2.6922,1,NA,S_Image_69.bmp-S_Lure_69.bmp,1,0,3
170,2,40,ghost,2,2,2,0.91085,1,NA,O_Image_40.bmp-O_Lure_40.bmp,1,1,2
171,2,47,laundry,2,2,1,1.4959,0,NA,O_Image_47.bmp-O_Lure_47.bmp,1,1,2
172,2,7,corpse,2,1,1,1.4257,1,NA,F_Image_7.bmp-F_Lure_7.bmp,1,1,1
173,2,22,arch,2,2,2,1.6143,1,NA,F_Image_22.bmp-F_Lure_22.bmp,1,1,1
174,2,3,alien,2,1,1,1.5548,1,NA,F_Image_3.bmp-F_Lure_3.bmp,1,1,1
175,2,70,kiss,2,2,2,1.0583,1,NA,S_Image_70.bmp-S_Lure_70.bmp,1,1,3
176,2,68,asphalt,2,1,0,3.4996,0,NA,S_Image_68.bmp-S_Lure_68.bmp,1,0,3
177,2,62,drizzle,2,1,2,0.82322,0,NA,S_Image_62.bmp-S_Lure_62.bmp,1,0,3
178,2,33,hostage,2,1,2,1.6118,0,NA,O_Image_33.bmp-O_Lure_33.bmp,1,1,2
179,2,60,cloud,2,1,1,1.0256,1,NA,S_Image_60.bmp-S_Lure_60.bmp,1,1,3
180,2,45,honeymoon,2,2,2,1.4618,1,NA,O_Image_45.bmp-O_Lure_45.bmp,1,1,2
181,3,62,drizzle,2,1,1,2.0797,1,NA,S_Image_62.bmp-S_Lure_62.bmp,1,0,3
182,3,69,corner,2,2,1,2.1936,0,NA,S_Image_69.bmp-S_Lure_69.bmp,1,0,3
183,3,22,arch,2,1,1,2.3832,1,NA,F_Image_22.bmp-F_Lure_22.bmp,1,1,1
184,3,70,kiss,2,2,2,0.90945,1,NA,S_Image_70.bmp-S_Lure_70.bmp,1,1,3
185,3,3,alien,2,1,1,1.1668,1,NA,F_Image_3.bmp-F_Lure_3.bmp,1,1,1
186,3,7,corpse,2,1,1,0.50921,1,NA,F_Image_7.bmp-F_Lure_7.bmp,1,1,1
187,3,47,laundry,2,1,2,2.3191,0,NA,O_Image_47.bmp-O_Lure_47.bmp,1,1,2
188,3,33,hostage,2,2,1,1.2395,0,NA,O_Image_33.bmp-O_Lure_33.bmp,1,1,2
189,3,40,ghost,2,2,2,0.46785,1,NA,O_Image_40.bmp-O_Lure_40.bmp,1,1,2
190,3,68,asphalt,2,2,2,2.3504,1,NA,S_Image_68.bmp-S_Lure_68.bmp,1,0,3
191,3,60,cloud,2,1,1,0.90187,1,NA,S_Image_60.bmp-S_Lure_60.bmp,1,1,3
192,3,45,honeymoon,2,2,2,2.0632,1,NA,O_Image_45.bmp-O_Lure_45.bmp,1,1,2
193,2,28,alcohol,3,2,1,1.6653,0,NA,O_Image_28.bmp-O_Lure_28.bmp,1,1,2
194,2,35,board,3,1,1,1.1404,1,NA,O_Image_35.bmp-O_Lure_35.bmp,1,1,2
195,2,16,fire,3,2,2,0.86017,1,NA,F_Image_16.bmp-F_Lure_16.bmp,1,1,1
196,2,38,marble,3,1,1,0.52743,1,NA,O_Image_38.bmp-O_Lure_38.bmp,1,0,2
197,2,6,army,3,2,1,1.0483,0,NA,F_Image_6.bmp-F_Lure_6.bmp,1,0,1
198,2,34,giant,3,2,2,0.88354,1,NA,O_Image_34.bmp-O_Lure_34.bmp,1,0,2
199,2,11,arrow,3,1,1,0.97424,1,NA,F_Image_11.bmp-F_Lure_11.bmp,1,0,1
200,2,56,antique,3,2,2,0.83664,1,NA,S_Image_56.bmp-S_Lure_56.bmp,1,1,3
201,2,21,animal,3,2,2,1.065,1,NA,F_Image_21.bmp-F_Lure_21.bmp,1,0,1
202,2,41,crumb,3,2,2,0.97143,1,NA,O_Image_41.bmp-O_Lure_41.bmp,1,1,2
203,2,17,cone,3,2,2,1.0424,1,NA,F_Image_17.bmp-F_Lure_17.bmp,1,0,1
204,2,14,angel,3,1,1,1.3744,1,NA,F_Image_14.bmp-F_Lure_14.bmp,1,0,1
205,3,41,crumb,3,1,2,1.7961,0,NA,O_Image_41.bmp-O_Lure_41.bmp,1,1,2
206,3,56,antique,3,1,2,1.2178,0,NA,S_Image_56.bmp-S_Lure_56.bmp,1,1,3
207,3,35,board,3,1,1,0.67865,1,NA,O_Image_35.bmp-O_Lure_35.bmp,1,1,2
208,3,6,army,3,1,1,1.0487,1,NA,F_Image_6.bmp-F_Lure_6.bmp,1,0,1
209,3,34,giant,3,1,1,0.8199,1,NA,O_Image_34.bmp-O_Lure_34.bmp,1,0,2
210,3,16,fire,3,1,1,1.7686,1,NA,F_Image_16.bmp-F_Lure_16.bmp,1,1,1
211,3,17,cone,3,1,1,1.1915,1,NA,F_Image_17.bmp-F_Lure_17.bmp,1,0,1
212,3,14,angel,3,2,2,0.67777,1,NA,F_Image_14.bmp-F_Lure_14.bmp,1,0,1
213,3,28,alcohol,3,2,2,0.53621,1,NA,O_Image_28.bmp-O_Lure_28.bmp,1,1,2
214,3,38,marble,3,2,2,0.42429,1,NA,O_Image_38.bmp-O_Lure_38.bmp,1,0,2
215,3,11,arrow,3,2,2,2.149,1,NA,F_Image_11.bmp-F_Lure_11.bmp,1,0,1
216,3,21,animal,3,2,2,0.61279,1,NA,F_Image_21.bmp-F_Lure_21.bmp,1,0,1
217,4,50,arch,1,2,2,2.3141,1,NA,S_Image_50.bmp-S_Lure_50.bmp,2,1,3
218,4,67,board,1,1,1,1.595,1,NA,S_Image_67.bmp-S_Lure_67.bmp,2,1,3
219,4,65,ghost,1,2,2,1.5446,1,NA,S_Image_65.bmp-S_Lure_65.bmp,2,1,3
220,4,2,galaxy,1,2,2,1.1601,1,NA,F_Image_2.bmp-F_Lure_2.bmp,2,0,1
221,4,13,cloud,1,2,2,1.7677,1,NA,F_Image_13.bmp-F_Lure_13.bmp,2,1,1
222,4,46,drizzle,1,2,2,1.0303,1,NA,O_Image_46.bmp-O_Lure_46.bmp,2,0,2
223,4,61,army,1,2,2,1.8745,1,NA,S_Image_61.bmp-S_Lure_61.bmp,2,0,3
224,4,15,attack,1,1,1,2.149,1,NA,F_Image_15.bmp-F_Lure_15.bmp,2,0,1
225,4,20,kiss,1,1,1,0.91675,1,NA,F_Image_20.bmp-F_Lure_20.bmp,2,1,1
226,4,37,fire,1,1,1,0.83719,1,NA,O_Image_37.bmp-O_Lure_37.bmp,2,1,2
227,4,24,lever,1,2,2,1.0975,1,NA,F_Image_24.bmp-F_Lure_24.bmp,2,0,1
228,4,9,hostage,1,2,2,1.7545,1,NA,F_Image_9.bmp-F_Lure_9.bmp,2,1,1
229,4,31,corpse,2,2,2,0.61734,1,NA,O_Image_31.bmp-O_Lure_31.bmp,2,1,2
230,4,10,laundry,2,2,2,1.2621,1,NA,F_Image_10.bmp-F_Lure_10.bmp,2,1,1
231,4,12,fuel,2,2,2,1.8808,1,NA,F_Image_12.bmp-F_Lure_12.bmp,2,0,1
232,4,29,hurricane,2,2,2,1.147,1,NA,O_Image_29.bmp-O_Lure_29.bmp,2,1,2
233,4,48,arrow,2,2,2,0.64272,1,NA,O_Image_48.bmp-O_Lure_48.bmp,2,0,2
234,4,25,angel,2,2,2,0.83887,1,NA,O_Image_25.bmp-O_Lure_25.bmp,2,0,2
235,4,36,flood,2,2,2,1.5226,1,NA,O_Image_36.bmp-O_Lure_36.bmp,2,1,2
236,4,71,costume,2,2,2,1.5076,1,NA,S_Image_71.bmp-S_Lure_71.bmp,2,0,3
237,4,49,marble,2,1,1,1.277,1,NA,S_Image_49.bmp-S_Lure_49.bmp,2,0,3
238,4,43,bubble,2,2,2,0.58403,1,NA,O_Image_43.bmp-O_Lure_43.bmp,2,0,2
239,4,39,corner,2,2,2,0.5575,1,NA,O_Image_39.bmp-O_Lure_39.bmp,2,0,2
240,4,4,alcohol,2,2,2,0.98129,1,NA,F_Image_4.bmp-F_Lure_4.bmp,2,1,1
241,4,52,breakfast,3,1,1,1.2026,1,NA,S_Image_52.bmp-S_Lure_52.bmp,2,1,3
242,4,59,cone,3,2,2,1.1042,1,NA,S_Image_59.bmp-S_Lure_59.bmp,2,0,3
243,4,64,harem,3,2,2,0.91379,1,NA,S_Image_64.bmp-S_Lure_64.bmp,2,0,3
244,4,57,alien,3,2,2,0.89828,1,NA,S_Image_57.bmp-S_Lure_57.bmp,2,1,3
245,4,23,giant,3,2,2,0.85963,1,NA,F_Image_23.bmp-F_Lure_23.bmp,2,0,1
246,4,66,crumb,3,2,2,1.367,1,NA,S_Image_66.bmp-S_Lure_66.bmp,2,1,3
247,4,44,magnet,3,2,2,0.53364,1,NA,O_Image_44.bmp-O_Lure_44.bmp,2,1,2
248,4,18,antique,3,2,2,1.0216,1,NA,F_Image_18.bmp-F_Lure_18.bmp,2,1,1
249,4,53,honeymoon,3,2,2,0.79472,1,NA,S_Image_53.bmp-S_Lure_53.bmp,2,1,3
250,4,27,black,3,2,2,0.56029,1,NA,O_Image_27.bmp-O_Lure_27.bmp,2,0,2
251,4,26,animal,3,1,1,0.9596,1,NA,O_Image_26.bmp-O_Lure_26.bmp,2,0,2
252,4,1,asphalt,3,1,1,0.92661,1,NA,F_Image_1.bmp-F_Lure_1.bmp,2,0,1
253,5,32.24,lever,NA,2,0,2.5003,0,1,O_Image_32.bmp-F_Lure_24.bmp,NA,0,2.1
254,5,11.48,arrow,NA,1,3,1.2785,0,1,F_Image_11.bmp-O_Lure_48.bmp,NA,0,1.2
255,5,21.26,animal,NA,1,2,1.1437,0,1,F_Image_21.bmp-O_Lure_26.bmp,NA,0,1.2
256,5,72.12,fuel,NA,3,1,0.40928,0,1,S_Image_72.bmp-F_Lure_12.bmp,NA,0,3.1
257,5,34.23,giant,NA,2,2,0.68224,1,1,O_Image_34.bmp-F_Lure_23.bmp,NA,0,2.1
258,5,5.64,harem,NA,1,3,0.40408,0,1,F_Image_5.bmp-S_Lure_64.bmp,NA,0,1.3
259,5,69.39,corner,NA,3,4,0.23776,0,1,S_Image_69.bmp-O_Lure_39.bmp,NA,0,3.2
260,5,34.23,giant,NA,2,1,0.90389,0,2,O_Image_34.bmp-F_Lure_23.bmp,NA,0,2.1
261,5,62.46,drizzle,NA,3,2,0.22608,0,1,S_Image_62.bmp-O_Lure_46.bmp,NA,0,3.2
262,5,6.61,army,NA,1,2,0.12341,0,1,F_Image_6.bmp-S_Lure_61.bmp,NA,0,1.3
263,5,55.27,black,NA,3,2,0.29352,0,1,S_Image_55.bmp-O_Lure_27.bmp,NA,0,3.2
264,5,21.26,animal,NA,1,1,0.39907,1,2,F_Image_21.bmp-O_Lure_26.bmp,NA,0,1.2
265,5,6.61,army,NA,1,1,0.28059,1,2,F_Image_6.bmp-S_Lure_61.bmp,NA,0,1.3
266,5,11.48,arrow,NA,1,3,0.4821,0,2,F_Image_11.bmp-O_Lure_48.bmp,NA,0,1.2
267,5,69.39,corner,NA,3,4,0.37127,0,2,S_Image_69.bmp-O_Lure_39.bmp,NA,0,3.2
268,5,17.59,cone,NA,1,1,0.49348,1,1,F_Image_17.bmp-S_Lure_59.bmp,NA,0,1.3
269,5,54.15,attack,NA,3,1,0.42284,0,1,S_Image_54.bmp-F_Lure_15.bmp,NA,0,3.1
270,5,72.12,fuel,NA,3,3,0.28087,1,2,S_Image_72.bmp-F_Lure_12.bmp,NA,0,3.1
271,5,54.15,attack,NA,3,3,0.25021,1,2,S_Image_54.bmp-F_Lure_15.bmp,NA,0,3.1
272,5,38.49,marble,NA,2,3,0.26749,0,1,O_Image_38.bmp-S_Lure_49.bmp,NA,0,2.3
273,5,68.01,asphalt,NA,3,1,0.23747,0,1,S_Image_68.bmp-F_Lure_1.bmp,NA,0,3.1
274,5,54.15,attack,NA,3,3,0.063205,1,3,S_Image_54.bmp-F_Lure_15.bmp,NA,0,3.1
275,5,38.49,marble,NA,2,2,0.2329,1,2,O_Image_38.bmp-S_Lure_49.bmp,NA,0,2.3
276,5,14.25,angel,NA,1,1,0.34625,1,1,F_Image_14.bmp-O_Lure_25.bmp,NA,0,1.2
277,5,30.02,galaxy,NA,2,2,0.25141,1,1,O_Image_30.bmp-F_Lure_2.bmp,NA,0,2.1
278,5,6.61,army,NA,1,3,0.46987,0,3,F_Image_6.bmp-S_Lure_61.bmp,NA,0,1.3
279,5,8.43,bubble,NA,1,0,2.5004,0,1,F_Image_8.bmp-O_Lure_43.bmp,NA,0,1.2
280,5,14.25,angel,NA,1,1,0.30538,1,2,F_Image_14.bmp-O_Lure_25.bmp,NA,0,1.2
281,5,62.46,drizzle,NA,3,2,0.00012074,0,2,S_Image_62.bmp-O_Lure_46.bmp,NA,0,3.2
282,5,5.64,harem,NA,1,3,0.32456,0,2,F_Image_5.bmp-S_Lure_64.bmp,NA,0,1.3
283,5,55.27,black,NA,3,3,0.30278,1,2,S_Image_55.bmp-O_Lure_27.bmp,NA,0,3.2
284,5,32.24,lever,NA,2,2,0.26459,1,2,O_Image_32.bmp-F_Lure_24.bmp,NA,0,2.1
285,5,62.46,drizzle,NA,3,3,0.25814,1,3,S_Image_62.bmp-O_Lure_46.bmp,NA,0,3.2
286,5,69.39,corner,NA,3,2,0.85225,0,3,S_Image_69.bmp-O_Lure_39.bmp,NA,0,3.2
287,5,5.64,harem,NA,1,2,0.59786,0,3,F_Image_5.bmp-S_Lure_64.bmp,NA,0,1.3
288,5,68.01,asphalt,NA,3,3,0.34319,1,2,S_Image_68.bmp-F_Lure_1.bmp,NA,0,3.1
289,5,21.26,animal,NA,1,1,0.26444,1,3,F_Image_21.bmp-O_Lure_26.bmp,NA,0,1.2
290,5,11.48,arrow,NA,1,1,0.37777,1,3,F_Image_11.bmp-O_Lure_48.bmp,NA,0,1.2
291,5,30.02,galaxy,NA,2,2,0.25948,1,2,O_Image_30.bmp-F_Lure_2.bmp,NA,0,2.1
292,5,19.71,costume,NA,1,1,0.31666,1,1,F_Image_19.bmp-S_Lure_71.bmp,NA,0,1.3
293,5,14.25,angel,NA,1,2,0.24643,0,3,F_Image_14.bmp-O_Lure_25.bmp,NA,0,1.2
294,5,54.15,attack,NA,3,3,0.2878,1,4,S_Image_54.bmp-F_Lure_15.bmp,NA,0,3.1
295,5,8.43,bubble,NA,1,2,0.29806,0,2,F_Image_8.bmp-O_Lure_43.bmp,NA,0,1.2
296,5,11.48,arrow,NA,1,1,0.24301,1,4,F_Image_11.bmp-O_Lure_48.bmp,NA,0,1.2
297,5,8.43,bubble,NA,1,1,0.26082,1,3,F_Image_8.bmp-O_Lure_43.bmp,NA,0,1.2
298,5,30.02,galaxy,NA,2,2,0.26197,1,3,O_Image_30.bmp-F_Lure_2.bmp,NA,0,2.1
299,5,55.27,black,NA,3,3,0.2796,1,3,S_Image_55.bmp-O_Lure_27.bmp,NA,0,3.2
300,5,8.43,bubble,NA,1,1,0.31287,1,4,F_Image_8.bmp-O_Lure_43.bmp,NA,0,1.2
301,5,19.71,costume,NA,1,1,0.27433,1,2,F_Image_19.bmp-S_Lure_71.bmp,NA,0,1.3
302,5,14.25,angel,NA,1,1,0.26851,1,4,F_Image_14.bmp-O_Lure_25.bmp,NA,0,1.2
303,5,5.64,harem,NA,1,1,0.42987,1,4,F_Image_5.bmp-S_Lure_64.bmp,NA,0,1.3
304,5,62.46,drizzle,NA,3,3,0.28708,1,4,S_Image_62.bmp-O_Lure_46.bmp,NA,0,3.2
305,5,68.01,asphalt,NA,3,3,0.31307,1,3,S_Image_68.bmp-F_Lure_1.bmp,NA,0,3.1
306,5,19.71,costume,NA,1,1,0.34662,1,3,F_Image_19.bmp-S_Lure_71.bmp,NA,0,1.3
307,5,72.12,fuel,NA,3,2,0.26832,0,3,S_Image_72.bmp-F_Lure_12.bmp,NA,0,3.1
308,5,17.59,cone,NA,1,3,0.62134,0,2,F_Image_17.bmp-S_Lure_59.bmp,NA,0,1.3
309,5,19.71,costume,NA,1,1,0.33558,1,4,F_Image_19.bmp-S_Lure_71.bmp,NA,0,1.3
310,5,32.24,lever,NA,2,2,0.27319,1,3,O_Image_32.bmp-F_Lure_24.bmp,NA,0,2.1
311,5,69.39,corner,NA,3,3,0.26725,1,4,S_Image_69.bmp-O_Lure_39.bmp,NA,0,3.2
312,5,34.23,giant,NA,2,3,0.30046,0,3,O_Image_34.bmp-F_Lure_23.bmp,NA,0,2.1
313,5,17.59,cone,NA,1,3,0.46245,0,3,F_Image_17.bmp-S_Lure_59.bmp,NA,0,1.3
314,5,32.24,lever,NA,2,2,0.26369,1,4,O_Image_32.bmp-F_Lure_24.bmp,NA,0,2.1
315,5,38.49,marble,NA,2,2,0.24915,1,3,O_Image_38.bmp-S_Lure_49.bmp,NA,0,2.3
316,5,68.01,asphalt,NA,3,3,0.29039,1,4,S_Image_68.bmp-F_Lure_1.bmp,NA,0,3.1
317,5,30.02,galaxy,NA,2,2,0.26016,1,4,O_Image_30.bmp-F_Lure_2.bmp,NA,0,2.1
318,5,6.61,army,NA,1,3,0.38986,0,4,F_Image_6.bmp-S_Lure_61.bmp,NA,0,1.3
319,5,34.23,giant,NA,2,2,0.32811,1,4,O_Image_34.bmp-F_Lure_23.bmp,NA,0,2.1
320,5,21.26,animal,NA,1,1,0.26523,1,4,F_Image_21.bmp-O_Lure_26.bmp,NA,0,1.2
321,5,38.49,marble,NA,2,3,0.35448,0,4,O_Image_38.bmp-S_Lure_49.bmp,NA,0,2.3
322,5,17.59,cone,NA,1,1,0.24459,1,4,F_Image_17.bmp-S_Lure_59.bmp,NA,0,1.3
323,5,72.12,fuel,NA,3,1,0.40611,0,4,S_Image_72.bmp-F_Lure_12.bmp,NA,0,3.1
324,5,55.27,black,NA,3,3,0.26476,1,4,S_Image_55.bmp-O_Lure_27.bmp,NA,0,3.2
325,6,15,attack,NA,2,2,1.785,1,NA,F_Image_15.bmp-F_Lure_15.bmp,1,0,1
326,6,61,army,NA,2,1,1.704,0,NA,S_Image_61.bmp-S_Lure_61.bmp,1,0,3
327,6,65,ghost,NA,1,0,3.4999,0,NA,S_Image_65.bmp-S_Lure_65.bmp,1,1,3
328,6,13,cloud,NA,1,0,3.5,0,NA,F_Image_13.bmp-F_Lure_13.bmp,1,1,1
329,6,63,flood,NA,2,0,3.4998,0,NA,S_Image_63.bmp-S_Lure_63.bmp,1,1,3
330,6,34,giant,NA,1,1,0.53596,1,NA,O_Image_34.bmp-O_Lure_34.bmp,1,0,2
331,6,71,costume,NA,2,0,3.4996,0,NA,S_Image_71.bmp-S_Lure_71.bmp,1,0,3
332,6,58,hurricane,NA,2,1,1.6906,0,NA,S_Image_58.bmp-S_Lure_58.bmp,1,1,3
333,6,9,hostage,NA,1,1,1.3094,1,NA,F_Image_9.bmp-F_Lure_9.bmp,1,1,1
334,6,53,honeymoon,NA,1,1,1.0958,1,NA,S_Image_53.bmp-S_Lure_53.bmp,1,1,3
335,6,48,arrow,NA,2,1,0.82656,0,NA,O_Image_48.bmp-O_Lure_48.bmp,1,0,2
336,6,19,costume,NA,1,1,1.3516,1,NA,F_Image_19.bmp-F_Lure_19.bmp,1,0,1
337,6,25,angel,NA,2,2,0.81547,1,NA,O_Image_25.bmp-O_Lure_25.bmp,1,0,2
338,6,47,laundry,NA,2,1,1.3487,0,NA,O_Image_47.bmp-O_Lure_47.bmp,1,1,2
339,6,66,crumb,NA,2,1,1.5492,0,NA,S_Image_66.bmp-S_Lure_66.bmp,1,1,3
340,6,6,army,NA,1,1,1.0776,1,NA,F_Image_6.bmp-F_Lure_6.bmp,1,0,1
341,6,62,drizzle,NA,1,1,1.1367,1,NA,S_Image_62.bmp-S_Lure_62.bmp,1,0,3
342,6,45,honeymoon,NA,1,1,1.4334,1,NA,O_Image_45.bmp-O_Lure_45.bmp,1,1,2
343,6,32,lever,NA,2,2,0.95826,1,NA,O_Image_32.bmp-O_Lure_32.bmp,1,0,2
344,6,54,attack,NA,2,1,0.98177,0,NA,S_Image_54.bmp-S_Lure_54.bmp,1,0,3
345,6,37,fire,NA,2,2,2.6445,1,NA,O_Image_37.bmp-O_Lure_37.bmp,1,1,2
346,6,33,hostage,NA,1,2,1.0174,0,NA,O_Image_33.bmp-O_Lure_33.bmp,1,1,2
347,6,70,kiss,NA,2,2,2.0627,1,NA,S_Image_70.bmp-S_Lure_70.bmp,1,1,3
348,6,56,antique,NA,1,1,1.474,1,NA,S_Image_56.bmp-S_Lure_56.bmp,1,1,3
349,6,17,cone,NA,1,1,1.0614,1,NA,F_Image_17.bmp-F_Lure_17.bmp,1,0,1
350,6,36,flood,NA,2,2,1.3617,1,NA,O_Image_36.bmp-O_Lure_36.bmp,1,1,2
351,6,1,asphalt,NA,1,1,0.68177,1,NA,F_Image_1.bmp-F_Lure_1.bmp,1,0,1
352,6,26,animal,NA,2,2,0.90003,1,NA,O_Image_26.bmp-O_Lure_26.bmp,1,0,2
353,6,24,lever,NA,2,0,3.4997,0,NA,F_Image_24.bmp-F_Lure_24.bmp,1,0,1
354,6,72,fuel,NA,2,0,3.4998,0,NA,S_Image_72.bmp-S_Lure_72.bmp,1,0,3
355,6,31,corpse,NA,2,2,0.87447,1,NA,O_Image_31.bmp-O_Lure_31.bmp,1,1,2
356,6,64,harem,NA,1,1,1.0059,1,NA,S_Image_64.bmp-S_Lure_64.bmp,1,0,3
357,6,30,galaxy,NA,2,2,0.91589,1,NA,O_Image_30.bmp-O_Lure_30.bmp,1,0,2
358,6,27,black,NA,2,2,3.1727,1,NA,O_Image_27.bmp-O_Lure_27.bmp,1,0,2
359,6,40,ghost,NA,2,2,0.66091,1,NA,O_Image_40.bmp-O_Lure_40.bmp,1,1,2
360,6,14,angel,NA,1,1,0.68076,1,NA,F_Image_14.bmp-F_Lure_14.bmp,1,0,1
361,6,50,arch,NA,1,1,1.9713,1,NA,S_Image_50.bmp-S_Lure_50.bmp,1,1,3
362,6,59,cone,NA,1,1,1.0664,1,NA,S_Image_59.bmp-S_Lure_59.bmp,1,0,3
363,6,8,bubble,NA,2,2,1.4619,1,NA,F_Image_8.bmp-F_Lure_8.bmp,1,0,1
364,6,28,alcohol,NA,2,2,0.87396,1,NA,O_Image_28.bmp-O_Lure_28.bmp,1,1,2
365,6,23,giant,NA,2,2,1.0373,1,NA,F_Image_23.bmp-F_Lure_23.bmp,1,0,1
366,6,35,board,NA,1,1,0.96217,1,NA,O_Image_35.bmp-O_Lure_35.bmp,1,1,2
367,6,20,kiss,NA,1,1,0.71421,1,NA,F_Image_20.bmp-F_Lure_20.bmp,1,1,1
368,6,4,alcohol,NA,1,1,0.92316,1,NA,F_Image_4.bmp-F_Lure_4.bmp,1,1,1
369,6,16,fire,NA,2,2,2.1325,1,NA,F_Image_16.bmp-F_Lure_16.bmp,1,1,1
370,6,69,corner,NA,1,1,1.6136,1,NA,S_Image_69.bmp-S_Lure_69.bmp,1,0,3
371,6,60,cloud,NA,1,1,1.0672,1,NA,S_Image_60.bmp-S_Lure_60.bmp,1,1,3
372,6,46,drizzle,NA,2,2,1.0144,1,NA,O_Image_46.bmp-O_Lure_46.bmp,1,0,2
373,6,2,galaxy,NA,1,1,0.83577,1,NA,F_Image_2.bmp-F_Lure_2.bmp,1,0,1
374,6,12,fuel,NA,2,0,3.5,0,NA,F_Image_12.bmp-F_Lure_12.bmp,1,0,1
375,6,42,breakfast,NA,1,1,1.7865,1,NA,O_Image_42.bmp-O_Lure_42.bmp,1,1,2
376,6,11,arrow,NA,1,1,0.953,1,NA,F_Image_11.bmp-F_Lure_11.bmp,1,0,1
377,6,29,hurricane,NA,2,2,1.0009,1,NA,O_Image_29.bmp-O_Lure_29.bmp,1,1,2
378,6,44,magnet,NA,1,1,0.72721,1,NA,O_Image_44.bmp-O_Lure_44.bmp,1,1,2
379,6,68,asphalt,NA,1,0,3.4998,0,NA,S_Image_68.bmp-S_Lure_68.bmp,1,0,3
380,6,55,black,NA,1,0,3.4997,0,NA,S_Image_55.bmp-S_Lure_55.bmp,1,0,3
381,6,39,corner,NA,2,0,3.5,0,NA,O_Image_39.bmp-O_Lure_39.bmp,1,0,2
382,6,67,board,NA,1,0,3.4999,0,NA,S_Image_67.bmp-S_Lure_67.bmp,1,1,3
383,6,5,harem,NA,1,0,3.4998,0,NA,F_Image_5.bmp-F_Lure_5.bmp,1,0,1
384,6,49,marble,NA,1,1,1.2507,1,NA,S_Image_49.bmp-S_Lure_49.bmp,1,0,3
385,6,18,antique,NA,1,1,1.1826,1,NA,F_Image_18.bmp-F_Lure_18.bmp,1,1,1
386,6,21,animal,NA,2,0,3.4997,0,NA,F_Image_21.bmp-F_Lure_21.bmp,1,0,1
387,6,10,laundry,NA,1,0,3.4997,0,NA,F_Image_10.bmp-F_Lure_10.bmp,1,1,1
388,6,51,magnet,NA,2,0,3.4997,0,NA,S_Image_51.bmp-S_Lure_51.bmp,1,1,3
389,6,57,alien,NA,2,0,3.4995,0,NA,S_Image_57.bmp-S_Lure_57.bmp,1,1,3
390,6,22,arch,NA,1,0,3.5001,0,NA,F_Image_22.bmp-F_Lure_22.bmp,1,1,1
391,6,52,breakfast,NA,2,2,1.1997,1,NA,S_Image_52.bmp-S_Lure_52.bmp,1,1,3
392,6,38,marble,NA,2,2,0.61407,1,NA,O_Image_38.bmp-O_Lure_38.bmp,1,0,2
393,6,41,crumb,NA,1,1,1.667,1,NA,O_Image_41.bmp-O_Lure_41.bmp,1,1,2
394,6,3,alien,NA,2,1,1.0548,0,NA,F_Image_3.bmp-F_Lure_3.bmp,1,1,1
395,6,43,bubble,NA,1,1,1.0507,1,NA,O_Image_43.bmp-O_Lure_43.bmp,1,0,2
396,6,7,corpse,NA,2,1,0.93467,0,NA,F_Image_7.bmp-F_Lure_7.bmp,1,1,1
