Trial,Cond,ImageNum,Cue,Block,Correct,Response,RT,Accuracy,CueRep,fName,ImageType,Baseline,Category
1,1,57,NA,NA,NA,1,0.43311,NA,NA,S_Lure_57.bmp,0,1,3
2,1,18,NA,NA,NA,1,1.8561,NA,NA,F_Lure_18.bmp,0,1,1
3,1,40,NA,NA,NA,1,0.09082,NA,NA,O_Image_40.bmp,1,1,2
4,1,5,NA,NA,NA,1,0.94881,NA,NA,F_Lure_5.bmp,0,0,1
5,1,57,NA,NA,NA,1,1.0275,NA,NA,S_Image_57.bmp,2,1,3
6,1,27,NA,NA,NA,1,1.1344,NA,NA,O_Lure_27.bmp,0,0,2
7,1,67,NA,NA,NA,1,1.4203,NA,NA,S_Lure_67.bmp,0,1,3
8,1,25,NA,NA,NA,1,0.14173,NA,NA,O_Lure_25.bmp,0,0,2
9,1,49,NA,NA,NA,1,3.9563,NA,NA,S_Lure_49.bmp,0,0,3
10,1,28,NA,NA,NA,1,0.067352,NA,NA,O_Lure_28.bmp,0,1,2
11,1,43,NA,NA,NA,1,1.3872,NA,NA,O_Lure_43.bmp,0,0,2
12,1,37,NA,NA,NA,1,0.00011047,NA,NA,O_Image_37.bmp,2,1,2
13,1,30,NA,NA,NA,1,0.00011621,NA,NA,O_Lure_30.bmp,0,0,2
14,1,61,NA,NA,NA,1,1.214,NA,NA,S_Image_61.bmp,2,0,3
15,1,60,NA,NA,NA,1,0.25814,NA,NA,S_Lure_60.bmp,0,1,3
16,1,67,NA,NA,NA,1,2.8608,NA,NA,S_Image_67.bmp,2,1,3
17,1,24,NA,NA,NA,1,1.8882,NA,NA,F_Image_24.bmp,2,0,1
18,1,32,NA,NA,NA,1,0.044433,NA,NA,O_Image_32.bmp,1,0,2
19,1,44,NA,NA,NA,1,0.10378,NA,NA,O_Lure_44.bmp,0,1,2
20,1,65,NA,NA,NA,1,1.4318,NA,NA,S_Image_65.bmp,2,1,3
21,1,34,NA,NA,NA,1,3.3796,NA,NA,O_Lure_34.bmp,0,0,2
22,1,59,NA,NA,NA,1,1.9525,NA,NA,S_Lure_59.bmp,0,0,3
23,1,20,NA,NA,NA,1,0.20628,NA,NA,F_Lure_20.bmp,0,1,1
24,1,14,NA,NA,NA,1,0.073338,NA,NA,F_Image_14.bmp,1,0,1
25,1,45,NA,NA,NA,1,0.62078,NA,NA,O_Lure_45.bmp,0,1,2
26,1,15,NA,NA,NA,1,0.00014428,NA,NA,F_Lure_15.bmp,0,0,1
27,1,20,NA,NA,NA,1,0.72356,NA,NA,F_Image_20.bmp,2,1,1
28,1,12,NA,NA,NA,1,0.084212,NA,NA,F_Image_12.bmp,2,0,1
29,1,4,NA,NA,NA,1,0.34775,NA,NA,F_Lure_4.bmp,0,1,1
30,1,62,NA,NA,NA,1,0.97831,NA,NA,S_Lure_62.bmp,0,0,3
31,1,7,NA,NA,NA,1,0.12111,NA,NA,F_Image_7.bmp,1,1,1
32,1,31,NA,NA,NA,1,0.09642,NA,NA,O_Image_31.bmp,2,1,2
33,1,13,NA,NA,NA,1,0.45777,NA,NA,F_Image_13.bmp,2,1,1
34,1,15,NA,NA,NA,1,0.62741,NA,NA,F_Image_15.bmp,2,0,1
35,1,10,NA,NA,NA,1,0.17604,NA,NA,F_Image_10.bmp,2,1,1
36,1,50,NA,NA,NA,1,0.726,NA,NA,S_Image_50.bmp,2,1,3
37,1,45,NA,NA,NA,1,1.7473,NA,NA,O_Image_45.bmp,1,1,2
38,1,16,NA,NA,NA,1,1.4174,NA,NA,F_Lure_16.bmp,0,1,1
39,1,25,NA,NA,NA,1,0.31892,NA,NA,O_Image_25.bmp,2,0,2
40,1,62,NA,NA,NA,1,3.048,NA,NA,S_Image_62.bmp,1,0,3
41,1,28,NA,NA,NA,1,0.09714,NA,NA,O_Image_28.bmp,1,1,2
42,1,38,NA,NA,NA,1,0.00011681,NA,NA,O_Image_38.bmp,1,0,2
43,1,69,NA,NA,NA,1,0.00011078,NA,NA,S_Lure_69.bmp,0,0,3
44,1,55,NA,NA,NA,1,2.2836,NA,NA,S_Lure_55.bmp,0,0,3
45,1,33,NA,NA,NA,1,3.4984,NA,NA,O_Image_33.bmp,1,1,2
46,1,8,NA,NA,NA,2,1.1365,NA,NA,F_Image_8.bmp,1,0,1
47,1,17,NA,NA,NA,2,0.64154,NA,NA,F_Image_17.bmp,1,0,1
48,1,34,NA,NA,NA,2,0.74071,NA,NA,O_Image_34.bmp,1,0,2
49,1,2,NA,NA,NA,2,0.020887,NA,NA,F_Lure_2.bmp,0,0,1
50,1,63,NA,NA,NA,2,0.10558,NA,NA,S_Image_63.bmp,1,1,3
51,1,64,NA,NA,NA,1,0.00011319,NA,NA,S_Lure_64.bmp,0,0,3
52,1,1,NA,NA,NA,2,0.11035,NA,NA,F_Image_1.bmp,2,0,1
53,1,55,NA,NA,NA,1,2.3568,NA,NA,S_Image_55.bmp,1,0,3
54,1,61,NA,NA,NA,1,2.7872,NA,NA,S_Lure_61.bmp,0,0,3
55,1,46,NA,NA,NA,1,0.65595,NA,NA,O_Lure_46.bmp,0,0,2
56,1,54,NA,NA,NA,1,1.1212,NA,NA,S_Image_54.bmp,1,0,3
57,1,50,NA,NA,NA,1,0.67395,NA,NA,S_Lure_50.bmp,0,1,3
58,1,26,NA,NA,NA,2,0.34734,NA,NA,O_Image_26.bmp,2,0,2
59,1,52,NA,NA,NA,2,1.3867,NA,NA,S_Lure_52.bmp,0,1,3
60,1,70,NA,NA,NA,2,0.12739,NA,NA,S_Lure_70.bmp,0,1,3
61,1,35,NA,NA,NA,2,3.4781,NA,NA,O_Image_35.bmp,1,1,2
62,1,19,NA,NA,NA,2,0.15756,NA,NA,F_Image_19.bmp,1,0,1
63,1,56,NA,NA,NA,2,0.79421,NA,NA,S_Lure_56.bmp,0,1,3
64,1,41,NA,NA,NA,2,0.52037,NA,NA,O_Lure_41.bmp,0,1,2
65,1,16,NA,NA,NA,1,0.56169,NA,NA,F_Image_16.bmp,1,1,1
66,1,23,NA,NA,NA,1,0.15244,NA,NA,F_Image_23.bmp,2,0,1
67,1,40,NA,NA,NA,2,0.79385,NA,NA,O_Lure_40.bmp,0,1,2
68,1,46,NA,NA,NA,2,0.16051,NA,NA,O_Image_46.bmp,2,0,2
69,1,9,NA,NA,NA,2,0.61602,NA,NA,F_Image_9.bmp,2,1,1
70,1,24,NA,NA,NA,1,0.31609,NA,NA,F_Lure_24.bmp,0,0,1
71,1,8,NA,NA,NA,1,0.0047719,NA,NA,F_Lure_8.bmp,0,0,1
72,1,43,NA,NA,NA,1,0.45072,NA,NA,O_Image_43.bmp,2,0,2
73,1,51,NA,NA,NA,1,0.71005,NA,NA,S_Image_51.bmp,1,1,3
74,1,63,NA,NA,NA,2,0.00011198,NA,NA,S_Lure_63.bmp,0,1,3
75,1,19,NA,NA,NA,2,1.3202,NA,NA,F_Lure_19.bmp,0,0,1
76,1,69,NA,NA,NA,2,0.57756,NA,NA,S_Image_69.bmp,1,0,3
77,1,7,NA,NA,NA,2,0.049646,NA,NA,F_Lure_7.bmp,0,1,1
78,1,23,NA,NA,NA,2,0.4436,NA,NA,F_Lure_23.bmp,0,0,1
79,1,36,NA,NA,NA,1,0.47777,NA,NA,O_Image_36.bmp,2,1,2
80,1,36,NA,NA,NA,2,0.11316,NA,NA,O_Lure_36.bmp,0,1,2
81,1,49,NA,NA,NA,2,1.971,NA,NA,S_Image_49.bmp,2,0,3
82,1,29,NA,NA,NA,2,0.60067,NA,NA,O_Lure_29.bmp,0,1,2
83,1,51,NA,NA,NA,2,0.15741,NA,NA,S_Lure_51.bmp,0,1,3
84,1,48,NA,NA,NA,2,0.634,NA,NA,O_Image_48.bmp,2,0,2
85,1,71,NA,NA,NA,1,6.8603,NA,NA,S_Lure_71.bmp,0,0,3
86,1,4,NA,NA,NA,1,0.00012677,NA,NA,F_Image_4.bmp,2,1,1
87,1,14,NA,NA,NA,1,0.057568,NA,NA,F_Lure_14.bmp,0,0,1
88,1,44,NA,NA,NA,1,0.14871,NA,NA,O_Image_44.bmp,2,1,2
89,1,6,NA,NA,NA,1,0.00010897,NA,NA,F_Image_6.bmp,1,0,1
90,1,27,NA,NA,NA,1,0.48433,NA,NA,O_Image_27.bmp,2,0,2
91,1,29,NA,NA,NA,1,0.69371,NA,NA,O_Image_29.bmp,2,1,2
92,1,10,NA,NA,NA,1,0.14235,NA,NA,F_Lure_10.bmp,0,1,1
93,1,11,NA,NA,NA,1,0.49987,NA,NA,F_Lure_11.bmp,0,0,1
94,1,5,NA,NA,NA,1,0.20261,NA,NA,F_Image_5.bmp,1,0,1
95,1,52,NA,NA,NA,1,0.14262,NA,NA,S_Image_52.bmp,2,1,3
96,1,54,NA,NA,NA,1,0.00011229,NA,NA,S_Lure_54.bmp,0,0,3
97,1,38,NA,NA,NA,2,0.23666,NA,NA,O_Lure_38.bmp,0,0,2
98,1,68,NA,NA,NA,2,1.3839,NA,NA,S_Image_68.bmp,1,0,3
99,1,53,NA,NA,NA,2,0.29416,NA,NA,S_Lure_53.bmp,0,1,3
100,1,35,NA,NA,NA,2,2.7614,NA,NA,O_Lure_35.bmp,0,1,2
101,1,53,NA,NA,NA,2,1.0122,NA,NA,S_Image_53.bmp,2,1,3
102,1,64,NA,NA,NA,1,0.84422,NA,NA,S_Image_64.bmp,2,0,3
103,1,26,NA,NA,NA,2,0.61232,NA,NA,O_Lure_26.bmp,0,0,2
104,1,3,NA,NA,NA,2,0.00011289,NA,NA,F_Lure_3.bmp,0,1,1
105,1,30,NA,NA,NA,1,0.00011681,NA,NA,O_Image_30.bmp,1,0,2
106,1,22,NA,NA,NA,2,0.14057,NA,NA,F_Lure_22.bmp,0,1,1
107,1,71,NA,NA,NA,2,0.14783,NA,NA,S_Image_71.bmp,2,0,3
108,1,66,NA,NA,NA,2,12.0952,NA,NA,S_Image_66.bmp,2,1,3
109,1,33,NA,NA,NA,2,0.51357,NA,NA,O_Lure_33.bmp,0,1,2
110,1,42,NA,NA,NA,2,2.134,NA,NA,O_Image_42.bmp,1,1,2
111,1,68,NA,NA,NA,2,5.0895,NA,NA,S_Lure_68.bmp,0,0,3
112,1,6,NA,NA,NA,2,0.0484,NA,NA,F_Lure_6.bmp,0,0,1
113,1,70,NA,NA,NA,2,0.00012225,NA,NA,S_Image_70.bmp,1,1,3
114,1,60,NA,NA,NA,2,0.47515,NA,NA,S_Image_60.bmp,1,1,3
115,1,39,NA,NA,NA,2,1.6395,NA,NA,O_Lure_39.bmp,0,0,2
116,1,39,NA,NA,NA,2,0.12199,NA,NA,O_Image_39.bmp,2,0,2
117,1,48,NA,NA,NA,2,3.1204,NA,NA,O_Lure_48.bmp,0,0,2
118,1,13,NA,NA,NA,2,0.91151,NA,NA,F_Lure_13.bmp,0,1,1
119,1,32,NA,NA,NA,2,0.24542,NA,NA,O_Lure_32.bmp,0,0,2
120,1,31,NA,NA,NA,2,0.17554,NA,NA,O_Lure_31.bmp,0,1,2
121,1,42,NA,NA,NA,2,3.298,NA,NA,O_Lure_42.bmp,0,1,2
122,1,47,NA,NA,NA,2,0.18625,NA,NA,O_Lure_47.bmp,0,1,2
123,1,11,NA,NA,NA,2,0.10302,NA,NA,F_Image_11.bmp,1,0,1
124,1,12,NA,NA,NA,2,0.00014277,NA,NA,F_Lure_12.bmp,0,0,1
125,1,3,NA,NA,NA,2,0.16476,NA,NA,F_Image_3.bmp,1,1,1
126,1,58,NA,NA,NA,2,0.12048,NA,NA,S_Image_58.bmp,1,1,3
127,1,17,NA,NA,NA,2,4.4557,NA,NA,F_Lure_17.bmp,0,0,1
128,1,1,NA,NA,NA,2,0.0019149,NA,NA,F_Lure_1.bmp,0,0,1
129,1,72,NA,NA,NA,2,0.75148,NA,NA,S_Image_72.bmp,1,0,3
130,1,9,NA,NA,NA,2,0.0001473,NA,NA,F_Lure_9.bmp,0,1,1
131,1,21,NA,NA,NA,2,0.68413,NA,NA,F_Image_21.bmp,1,0,1
132,1,59,NA,NA,NA,2,0.41963,NA,NA,S_Image_59.bmp,2,0,3
133,1,66,NA,NA,NA,2,0.16095,NA,NA,S_Lure_66.bmp,0,1,3
134,1,18,NA,NA,NA,2,0.0001144,NA,NA,F_Image_18.bmp,2,1,1
135,1,41,NA,NA,NA,1,0.00012013,NA,NA,O_Image_41.bmp,1,1,2
136,1,2,NA,NA,NA,1,0.46032,NA,NA,F_Image_2.bmp,2,0,1
137,1,72,NA,NA,NA,1,19.1406,NA,NA,S_Lure_72.bmp,0,0,3
138,1,65,NA,NA,NA,1,2.878,NA,NA,S_Lure_65.bmp,0,1,3
139,1,47,NA,NA,NA,1,0.088141,NA,NA,O_Image_47.bmp,1,1,2
140,1,37,NA,NA,NA,1,1.2042,NA,NA,O_Lure_37.bmp,0,1,2
141,1,21,NA,NA,NA,2,53.9434,NA,NA,F_Lure_21.bmp,0,0,1
142,1,22,NA,NA,NA,1,0.083078,NA,NA,F_Image_22.bmp,1,1,1
143,1,58,NA,NA,NA,1,0.52657,NA,NA,S_Lure_58.bmp,0,1,3
144,1,56,NA,NA,NA,1,0.55184,NA,NA,S_Image_56.bmp,1,1,3
145,2,58,hurricane,1,1,0,3.4997,0,NA,S_Image_58.bmp-S_Lure_58.bmp,1,1,3
146,2,8,bubble,1,1,0,3.4995,0,NA,F_Image_8.bmp-F_Lure_8.bmp,1,0,1
147,2,51,magnet,1,1,0,3.4996,0,NA,S_Image_51.bmp-S_Lure_51.bmp,1,1,3
148,2,42,breakfast,1,1,0,3.4998,0,NA,O_Image_42.bmp-O_Lure_42.bmp,1,1,2
149,2,19,costume,1,1,1,3.4306,1,NA,F_Image_19.bmp-F_Lure_19.bmp,1,0,1
150,2,63,flood,1,1,0,3.4995,0,NA,S_Image_63.bmp-S_Lure_63.bmp,1,1,3
151,2,5,harem,1,2,0,3.5,0,NA,F_Image_5.bmp-F_Lure_5.bmp,1,0,1
152,2,72,fuel,1,1,0,3.4996,0,NA,S_Image_72.bmp-S_Lure_72.bmp,1,0,3
153,2,32,lever,1,2,2,2.7671,1,NA,O_Image_32.bmp-O_Lure_32.bmp,1,0,2
154,2,55,black,1,2,0,3.4996,0,NA,S_Image_55.bmp-S_Lure_55.bmp,1,0,3
155,2,30,galaxy,1,2,0,3.4996,0,NA,O_Image_30.bmp-O_Lure_30.bmp,1,0,2
156,2,54,attack,1,1,0,3.4996,0,NA,S_Image_54.bmp-S_Lure_54.bmp,1,0,3
157,3,32,lever,1,2,0,3.4996,0,NA,O_Image_32.bmp-O_Lure_32.bmp,1,0,2
158,3,63,flood,1,1,0,3.4996,0,NA,S_Image_63.bmp-S_Lure_63.bmp,1,1,3
159,3,54,attack,1,1,0,3.4996,0,NA,S_Image_54.bmp-S_Lure_54.bmp,1,0,3
160,3,51,magnet,1,1,1,1.4464,1,NA,S_Image_51.bmp-S_Lure_51.bmp,1,1,3
161,3,19,costume,1,1,1,0.90562,1,NA,F_Image_19.bmp-F_Lure_19.bmp,1,0,1
162,3,5,harem,1,1,2,1.2912,0,NA,F_Image_5.bmp-F_Lure_5.bmp,1,0,1
163,3,72,fuel,1,1,2,1.8212,0,NA,S_Image_72.bmp-S_Lure_72.bmp,1,0,3
164,3,58,hurricane,1,2,1,1.41,0,NA,S_Image_58.bmp-S_Lure_58.bmp,1,1,3
165,3,42,breakfast,1,1,1,1.2956,1,NA,O_Image_42.bmp-O_Lure_42.bmp,1,1,2
166,3,30,galaxy,1,2,2,1.2652,1,NA,O_Image_30.bmp-O_Lure_30.bmp,1,0,2
167,3,8,bubble,1,2,2,1.0756,1,NA,F_Image_8.bmp-F_Lure_8.bmp,1,0,1
168,3,55,black,1,2,2,1.3827,1,NA,S_Image_55.bmp-S_Lure_55.bmp,1,0,3
169,2,69,corner,2,1,0,3.5,0,NA,S_Image_69.bmp-S_Lure_69.bmp,1,0,3
170,2,40,ghost,2,2,0,3.5,0,NA,O_Image_40.bmp-O_Lure_40.bmp,1,1,2
171,2,47,laundry,2,2,0,3.4997,0,NA,O_Image_47.bmp-O_Lure_47.bmp,1,1,2
172,2,7,corpse,2,1,0,3.5001,0,NA,F_Image_7.bmp-F_Lure_7.bmp,1,1,1
173,2,22,arch,2,2,0,3.4996,0,NA,F_Image_22.bmp-F_Lure_22.bmp,1,1,1
174,2,3,alien,2,1,1,2.1798,1,NA,F_Image_3.bmp-F_Lure_3.bmp,1,1,1
175,2,70,kiss,2,2,0,3.4999,0,NA,S_Image_70.bmp-S_Lure_70.bmp,1,1,3
176,2,68,asphalt,2,1,1,2.459,1,NA,S_Image_68.bmp-S_Lure_68.bmp,1,0,3
177,2,62,drizzle,2,1,0,3.4997,0,NA,S_Image_62.bmp-S_Lure_62.bmp,1,0,3
178,2,33,hostage,2,1,0,3.4995,0,NA,O_Image_33.bmp-O_Lure_33.bmp,1,1,2
179,2,60,cloud,2,1,0,3.4998,0,NA,S_Image_60.bmp-S_Lure_60.bmp,1,1,3
180,2,45,honeymoon,2,2,0,3.4997,0,NA,O_Image_45.bmp-O_Lure_45.bmp,1,1,2
181,3,62,drizzle,2,1,0,3.4998,0,NA,S_Image_62.bmp-S_Lure_62.bmp,1,0,3
182,3,69,corner,2,2,0,3.4996,0,NA,S_Image_69.bmp-S_Lure_69.bmp,1,0,3
183,3,22,arch,2,1,0,3.4998,0,NA,F_Image_22.bmp-F_Lure_22.bmp,1,1,1
184,3,70,kiss,2,2,0,3.4999,0,NA,S_Image_70.bmp-S_Lure_70.bmp,1,1,3
185,3,3,alien,2,1,0,3.4995,0,NA,F_Image_3.bmp-F_Lure_3.bmp,1,1,1
186,3,7,corpse,2,1,0,3.5001,0,NA,F_Image_7.bmp-F_Lure_7.bmp,1,1,1
187,3,47,laundry,2,1,0,3.5,0,NA,O_Image_47.bmp-O_Lure_47.bmp,1,1,2
188,3,33,hostage,2,2,0,3.4997,0,NA,O_Image_33.bmp-O_Lure_33.bmp,1,1,2
189,3,40,ghost,2,2,0,3.4995,0,NA,O_Image_40.bmp-O_Lure_40.bmp,1,1,2
190,3,68,asphalt,2,2,0,3.5,0,NA,S_Image_68.bmp-S_Lure_68.bmp,1,0,3
191,3,60,cloud,2,1,0,3.5001,0,NA,S_Image_60.bmp-S_Lure_60.bmp,1,1,3
192,3,45,honeymoon,2,2,0,3.4999,0,NA,O_Image_45.bmp-O_Lure_45.bmp,1,1,2
193,2,28,alcohol,3,2,2,1.8764,1,NA,O_Image_28.bmp-O_Lure_28.bmp,1,1,2
194,2,35,board,3,1,0,3.5001,0,NA,O_Image_35.bmp-O_Lure_35.bmp,1,1,2
195,2,16,fire,3,2,0,3.4999,0,NA,F_Image_16.bmp-F_Lure_16.bmp,1,1,1
196,2,38,marble,3,1,0,3.4996,0,NA,O_Image_38.bmp-O_Lure_38.bmp,1,0,2
197,2,6,army,3,2,0,3.4996,0,NA,F_Image_6.bmp-F_Lure_6.bmp,1,0,1
198,2,34,giant,3,2,0,3.4996,0,NA,O_Image_34.bmp-O_Lure_34.bmp,1,0,2
199,2,11,arrow,3,1,0,3.4997,0,NA,F_Image_11.bmp-F_Lure_11.bmp,1,0,1
200,2,56,antique,3,2,0,3.4999,0,NA,S_Image_56.bmp-S_Lure_56.bmp,1,1,3
201,2,21,animal,3,2,0,3.4997,0,NA,F_Image_21.bmp-F_Lure_21.bmp,1,0,1
202,2,41,crumb,3,2,0,3.5,0,NA,O_Image_41.bmp-O_Lure_41.bmp,1,1,2
203,2,17,cone,3,2,0,3.5001,0,NA,F_Image_17.bmp-F_Lure_17.bmp,1,0,1
204,2,14,angel,3,1,0,3.4999,0,NA,F_Image_14.bmp-F_Lure_14.bmp,1,0,1
205,3,41,crumb,3,1,0,3.4999,0,NA,O_Image_41.bmp-O_Lure_41.bmp,1,1,2
206,3,56,antique,3,1,1,2.4084,1,NA,S_Image_56.bmp-S_Lure_56.bmp,1,1,3
207,3,35,board,3,1,1,1.8059,1,NA,O_Image_35.bmp-O_Lure_35.bmp,1,1,2
208,3,6,army,3,1,1,1.0917,1,NA,F_Image_6.bmp-F_Lure_6.bmp,1,0,1
209,3,34,giant,3,1,1,1.4694,1,NA,O_Image_34.bmp-O_Lure_34.bmp,1,0,2
210,3,16,fire,3,1,2,1.2002,0,NA,F_Image_16.bmp-F_Lure_16.bmp,1,1,1
211,3,17,cone,3,1,1,0.99736,1,NA,F_Image_17.bmp-F_Lure_17.bmp,1,0,1
212,3,14,angel,3,2,2,1.0114,1,NA,F_Image_14.bmp-F_Lure_14.bmp,1,0,1
213,3,28,alcohol,3,2,2,0.6237,1,NA,O_Image_28.bmp-O_Lure_28.bmp,1,1,2
214,3,38,marble,3,2,1,2.6848,0,NA,O_Image_38.bmp-O_Lure_38.bmp,1,0,2
215,3,11,arrow,3,2,2,1.0948,1,NA,F_Image_11.bmp-F_Lure_11.bmp,1,0,1
216,3,21,animal,3,2,2,1.1764,1,NA,F_Image_21.bmp-F_Lure_21.bmp,1,0,1
217,4,50,arch,1,2,0,3.4996,0,NA,S_Image_50.bmp-S_Lure_50.bmp,2,1,3
218,4,67,board,1,1,0,3.5001,0,NA,S_Image_67.bmp-S_Lure_67.bmp,2,1,3
219,4,65,ghost,1,2,0,3.4996,0,NA,S_Image_65.bmp-S_Lure_65.bmp,2,1,3
220,4,2,galaxy,1,2,0,3.4995,0,NA,F_Image_2.bmp-F_Lure_2.bmp,2,0,1
221,4,13,cloud,1,2,0,3.4999,0,NA,F_Image_13.bmp-F_Lure_13.bmp,2,1,1
222,4,46,drizzle,1,2,0,3.4999,0,NA,O_Image_46.bmp-O_Lure_46.bmp,2,0,2
223,4,61,army,1,2,0,3.5001,0,NA,S_Image_61.bmp-S_Lure_61.bmp,2,0,3
224,4,15,attack,1,1,0,3.4997,0,NA,F_Image_15.bmp-F_Lure_15.bmp,2,0,1
225,4,20,kiss,1,1,0,3.5,0,NA,F_Image_20.bmp-F_Lure_20.bmp,2,1,1
226,4,37,fire,1,1,0,3.4998,0,NA,O_Image_37.bmp-O_Lure_37.bmp,2,1,2
227,4,24,lever,1,2,0,3.5,0,NA,F_Image_24.bmp-F_Lure_24.bmp,2,0,1
228,4,9,hostage,1,2,0,3.4996,0,NA,F_Image_9.bmp-F_Lure_9.bmp,2,1,1
229,4,31,corpse,2,2,0,3.4998,0,NA,O_Image_31.bmp-O_Lure_31.bmp,2,1,2
230,4,10,laundry,2,2,0,3.5,0,NA,F_Image_10.bmp-F_Lure_10.bmp,2,1,1
231,4,12,fuel,2,2,0,3.4998,0,NA,F_Image_12.bmp-F_Lure_12.bmp,2,0,1
232,4,29,hurricane,2,2,0,3.4997,0,NA,O_Image_29.bmp-O_Lure_29.bmp,2,1,2
233,4,48,arrow,2,2,0,3.4996,0,NA,O_Image_48.bmp-O_Lure_48.bmp,2,0,2
234,4,25,angel,2,2,0,3.4996,0,NA,O_Image_25.bmp-O_Lure_25.bmp,2,0,2
235,4,36,flood,2,2,0,3.5001,0,NA,O_Image_36.bmp-O_Lure_36.bmp,2,1,2
236,4,71,costume,2,2,2,2.755,1,NA,S_Image_71.bmp-S_Lure_71.bmp,2,0,3
237,4,49,marble,2,1,0,3.4999,0,NA,S_Image_49.bmp-S_Lure_49.bmp,2,0,3
238,4,43,bubble,2,2,0,3.4999,0,NA,O_Image_43.bmp-O_Lure_43.bmp,2,0,2
239,4,39,corner,2,2,0,3.4997,0,NA,O_Image_39.bmp-O_Lure_39.bmp,2,0,2
240,4,4,alcohol,2,2,0,3.5,0,NA,F_Image_4.bmp-F_Lure_4.bmp,2,1,1
241,4,52,breakfast,3,1,0,3.4997,0,NA,S_Image_52.bmp-S_Lure_52.bmp,2,1,3
242,4,59,cone,3,2,0,3.5,0,NA,S_Image_59.bmp-S_Lure_59.bmp,2,0,3
243,4,64,harem,3,2,0,3.4998,0,NA,S_Image_64.bmp-S_Lure_64.bmp,2,0,3
244,4,57,alien,3,2,0,3.4998,0,NA,S_Image_57.bmp-S_Lure_57.bmp,2,1,3
245,4,23,giant,3,2,0,3.4998,0,NA,F_Image_23.bmp-F_Lure_23.bmp,2,0,1
246,4,66,crumb,3,2,0,3.4998,0,NA,S_Image_66.bmp-S_Lure_66.bmp,2,1,3
247,4,44,magnet,3,2,0,3.4997,0,NA,O_Image_44.bmp-O_Lure_44.bmp,2,1,2
248,4,18,antique,3,2,0,3.5,0,NA,F_Image_18.bmp-F_Lure_18.bmp,2,1,1
249,4,53,honeymoon,3,2,0,3.4996,0,NA,S_Image_53.bmp-S_Lure_53.bmp,2,1,3
250,4,27,black,3,2,0,3.5001,0,NA,O_Image_27.bmp-O_Lure_27.bmp,2,0,2
251,4,26,animal,3,1,0,3.4998,0,NA,O_Image_26.bmp-O_Lure_26.bmp,2,0,2
252,4,1,asphalt,3,1,0,3.5,0,NA,F_Image_1.bmp-F_Lure_1.bmp,2,0,1
253,5,32.24,lever,NA,2,0,2.5001,0,1,O_Image_32.bmp-F_Lure_24.bmp,NA,0,2.1
254,5,11.48,arrow,NA,1,3,0.19957,0,1,F_Image_11.bmp-O_Lure_48.bmp,NA,0,1.2
255,5,21.26,animal,NA,1,0,2.5002,0,1,F_Image_21.bmp-O_Lure_26.bmp,NA,0,1.2
256,5,72.12,fuel,NA,3,2,1.7634,0,1,S_Image_72.bmp-F_Lure_12.bmp,NA,0,3.1
257,5,34.23,giant,NA,2,2,0.37345,1,1,O_Image_34.bmp-F_Lure_23.bmp,NA,0,2.1
258,5,5.64,harem,NA,1,3,0.63166,0,1,F_Image_5.bmp-S_Lure_64.bmp,NA,0,1.3
259,5,69.39,corner,NA,3,4,0.32907,0,1,S_Image_69.bmp-O_Lure_39.bmp,NA,0,3.2
260,5,34.23,giant,NA,2,2,0.39444,1,2,O_Image_34.bmp-F_Lure_23.bmp,NA,0,2.1
261,5,62.46,drizzle,NA,3,3,0.50751,1,1,S_Image_62.bmp-O_Lure_46.bmp,NA,0,3.2
262,5,6.61,army,NA,1,2,0.30224,0,1,F_Image_6.bmp-S_Lure_61.bmp,NA,0,1.3
263,5,55.27,black,NA,3,4,0.34312,0,1,S_Image_55.bmp-O_Lure_27.bmp,NA,0,3.2
264,5,21.26,animal,NA,1,1,0.40082,1,2,F_Image_21.bmp-O_Lure_26.bmp,NA,0,1.2
265,5,6.61,army,NA,1,1,0.35391,1,2,F_Image_6.bmp-S_Lure_61.bmp,NA,0,1.3
266,5,11.48,arrow,NA,1,3,0.42836,0,2,F_Image_11.bmp-O_Lure_48.bmp,NA,0,1.2
267,5,69.39,corner,NA,3,4,0.73382,0,2,S_Image_69.bmp-O_Lure_39.bmp,NA,0,3.2
268,5,17.59,cone,NA,1,2,1.135,0,1,F_Image_17.bmp-S_Lure_59.bmp,NA,0,1.3
269,5,54.15,attack,NA,3,2,0.86465,0,1,S_Image_54.bmp-F_Lure_15.bmp,NA,0,3.1
270,5,72.12,fuel,NA,3,3,1.5006,1,2,S_Image_72.bmp-F_Lure_12.bmp,NA,0,3.1
271,5,54.15,attack,NA,3,1,1.3323,0,2,S_Image_54.bmp-F_Lure_15.bmp,NA,0,3.1
272,5,38.49,marble,NA,2,4,0.18959,0,1,O_Image_38.bmp-S_Lure_49.bmp,NA,0,2.3
273,5,68.01,asphalt,NA,3,2,0.51939,0,1,S_Image_68.bmp-F_Lure_1.bmp,NA,0,3.1
274,5,54.15,attack,NA,3,1,0.31293,0,3,S_Image_54.bmp-F_Lure_15.bmp,NA,0,3.1
275,5,38.49,marble,NA,2,0,2.5006,0,2,O_Image_38.bmp-S_Lure_49.bmp,NA,0,2.3
276,5,14.25,angel,NA,1,2,0.50049,0,1,F_Image_14.bmp-O_Lure_25.bmp,NA,0,1.2
277,5,30.02,galaxy,NA,2,2,0.79821,1,1,O_Image_30.bmp-F_Lure_2.bmp,NA,0,2.1
278,5,6.61,army,NA,1,1,0.40757,1,3,F_Image_6.bmp-S_Lure_61.bmp,NA,0,1.3
279,5,8.43,bubble,NA,1,3,0.37727,0,1,F_Image_8.bmp-O_Lure_43.bmp,NA,0,1.2
280,5,14.25,angel,NA,1,1,0.33093,1,2,F_Image_14.bmp-O_Lure_25.bmp,NA,0,1.2
281,5,62.46,drizzle,NA,3,2,0.54828,0,2,S_Image_62.bmp-O_Lure_46.bmp,NA,0,3.2
282,5,5.64,harem,NA,1,1,0.33386,1,2,F_Image_5.bmp-S_Lure_64.bmp,NA,0,1.3
283,5,55.27,black,NA,3,2,0.39115,0,2,S_Image_55.bmp-O_Lure_27.bmp,NA,0,3.2
284,5,32.24,lever,NA,2,2,0.43344,1,2,O_Image_32.bmp-F_Lure_24.bmp,NA,0,2.1
285,5,62.46,drizzle,NA,3,3,0.5228,1,3,S_Image_62.bmp-O_Lure_46.bmp,NA,0,3.2
286,5,69.39,corner,NA,3,3,0.57274,1,3,S_Image_69.bmp-O_Lure_39.bmp,NA,0,3.2
287,5,5.64,harem,NA,1,1,0.3194,1,3,F_Image_5.bmp-S_Lure_64.bmp,NA,0,1.3
288,5,68.01,asphalt,NA,3,1,1.3122,0,2,S_Image_68.bmp-F_Lure_1.bmp,NA,0,3.1
289,5,21.26,animal,NA,1,1,0.41001,1,3,F_Image_21.bmp-O_Lure_26.bmp,NA,0,1.2
290,5,11.48,arrow,NA,1,2,0.37925,0,3,F_Image_11.bmp-O_Lure_48.bmp,NA,0,1.2
291,5,30.02,galaxy,NA,2,1,0.78072,0,2,O_Image_30.bmp-F_Lure_2.bmp,NA,0,2.1
292,5,19.71,costume,NA,1,1,0.46241,1,1,F_Image_19.bmp-S_Lure_71.bmp,NA,0,1.3
293,5,14.25,angel,NA,1,1,0.37567,1,3,F_Image_14.bmp-O_Lure_25.bmp,NA,0,1.2
294,5,54.15,attack,NA,3,3,1.577,1,4,S_Image_54.bmp-F_Lure_15.bmp,NA,0,3.1
295,5,8.43,bubble,NA,1,1,0.89092,1,2,F_Image_8.bmp-O_Lure_43.bmp,NA,0,1.2
296,5,11.48,arrow,NA,1,3,0.4213,0,4,F_Image_11.bmp-O_Lure_48.bmp,NA,0,1.2
297,5,8.43,bubble,NA,1,1,0.49568,1,3,F_Image_8.bmp-O_Lure_43.bmp,NA,0,1.2
298,5,30.02,galaxy,NA,2,1,0.58473,0,3,O_Image_30.bmp-F_Lure_2.bmp,NA,0,2.1
299,5,55.27,black,NA,3,3,0.4821,1,3,S_Image_55.bmp-O_Lure_27.bmp,NA,0,3.2
300,5,8.43,bubble,NA,1,1,0.28352,1,4,F_Image_8.bmp-O_Lure_43.bmp,NA,0,1.2
301,5,19.71,costume,NA,1,1,0.79733,1,2,F_Image_19.bmp-S_Lure_71.bmp,NA,0,1.3
302,5,14.25,angel,NA,1,1,0.43104,1,4,F_Image_14.bmp-O_Lure_25.bmp,NA,0,1.2
303,5,5.64,harem,NA,1,1,0.71221,1,4,F_Image_5.bmp-S_Lure_64.bmp,NA,0,1.3
304,5,62.46,drizzle,NA,3,2,1.5851,0,4,S_Image_62.bmp-O_Lure_46.bmp,NA,0,3.2
305,5,68.01,asphalt,NA,3,2,0.4356,0,3,S_Image_68.bmp-F_Lure_1.bmp,NA,0,3.1
306,5,19.71,costume,NA,1,1,1.1408,1,3,F_Image_19.bmp-S_Lure_71.bmp,NA,0,1.3
307,5,72.12,fuel,NA,3,1,0.72684,0,3,S_Image_72.bmp-F_Lure_12.bmp,NA,0,3.1
308,5,17.59,cone,NA,1,2,0.51248,0,2,F_Image_17.bmp-S_Lure_59.bmp,NA,0,1.3
309,5,19.71,costume,NA,1,1,0.45799,1,4,F_Image_19.bmp-S_Lure_71.bmp,NA,0,1.3
310,5,32.24,lever,NA,2,1,0.3399,0,3,O_Image_32.bmp-F_Lure_24.bmp,NA,0,2.1
311,5,69.39,corner,NA,3,2,0.40606,0,4,S_Image_69.bmp-O_Lure_39.bmp,NA,0,3.2
312,5,34.23,giant,NA,2,1,0.30394,0,3,O_Image_34.bmp-F_Lure_23.bmp,NA,0,2.1
313,5,17.59,cone,NA,1,2,0.35446,0,3,F_Image_17.bmp-S_Lure_59.bmp,NA,0,1.3
314,5,32.24,lever,NA,2,3,0.41261,0,4,O_Image_32.bmp-F_Lure_24.bmp,NA,0,2.1
315,5,38.49,marble,NA,2,2,1.2859,1,3,O_Image_38.bmp-S_Lure_49.bmp,NA,0,2.3
316,5,68.01,asphalt,NA,3,1,0.41554,0,4,S_Image_68.bmp-F_Lure_1.bmp,NA,0,3.1
317,5,30.02,galaxy,NA,2,1,0.10444,0,4,O_Image_30.bmp-F_Lure_2.bmp,NA,0,2.1
318,5,6.61,army,NA,1,1,1.4029,1,4,F_Image_6.bmp-S_Lure_61.bmp,NA,0,1.3
319,5,34.23,giant,NA,2,1,0.42856,0,4,O_Image_34.bmp-F_Lure_23.bmp,NA,0,2.1
320,5,21.26,animal,NA,1,1,2.1659,1,4,F_Image_21.bmp-O_Lure_26.bmp,NA,0,1.2
321,5,38.49,marble,NA,2,2,0.70424,1,4,O_Image_38.bmp-S_Lure_49.bmp,NA,0,2.3
322,5,17.59,cone,NA,1,2,0.36161,0,4,F_Image_17.bmp-S_Lure_59.bmp,NA,0,1.3
323,5,72.12,fuel,NA,3,1,0.33933,0,4,S_Image_72.bmp-F_Lure_12.bmp,NA,0,3.1
324,5,55.27,black,NA,3,1,1.3012,0,4,S_Image_55.bmp-O_Lure_27.bmp,NA,0,3.2
325,6,15,attack,NA,2,2,2.8054,1,NA,F_Image_15.bmp-F_Lure_15.bmp,1,0,1
326,6,61,army,NA,2,1,0.6518,0,NA,S_Image_61.bmp-S_Lure_61.bmp,1,0,3
327,6,65,ghost,NA,1,1,0.78375,1,NA,S_Image_65.bmp-S_Lure_65.bmp,1,1,3
328,6,13,cloud,NA,1,2,1.1108,0,NA,F_Image_13.bmp-F_Lure_13.bmp,1,1,1
329,6,63,flood,NA,2,1,0.76889,0,NA,S_Image_63.bmp-S_Lure_63.bmp,1,1,3
330,6,34,giant,NA,1,1,0.8401,1,NA,O_Image_34.bmp-O_Lure_34.bmp,1,0,2
331,6,71,costume,NA,2,2,1.581,1,NA,S_Image_71.bmp-S_Lure_71.bmp,1,0,3
332,6,58,hurricane,NA,2,1,1.2834,0,NA,S_Image_58.bmp-S_Lure_58.bmp,1,1,3
333,6,9,hostage,NA,1,2,0.86188,0,NA,F_Image_9.bmp-F_Lure_9.bmp,1,1,1
334,6,53,honeymoon,NA,1,2,1.7865,0,NA,S_Image_53.bmp-S_Lure_53.bmp,1,1,3
335,6,48,arrow,NA,2,2,0.72889,1,NA,O_Image_48.bmp-O_Lure_48.bmp,1,0,2
336,6,19,costume,NA,1,1,1.0423,1,NA,F_Image_19.bmp-F_Lure_19.bmp,1,0,1
337,6,25,angel,NA,2,2,1.5113,1,NA,O_Image_25.bmp-O_Lure_25.bmp,1,0,2
338,6,47,laundry,NA,2,2,0.93658,1,NA,O_Image_47.bmp-O_Lure_47.bmp,1,1,2
339,6,66,crumb,NA,2,2,1.1296,1,NA,S_Image_66.bmp-S_Lure_66.bmp,1,1,3
340,6,6,army,NA,1,1,0.73801,1,NA,F_Image_6.bmp-F_Lure_6.bmp,1,0,1
341,6,62,drizzle,NA,1,2,0.58683,0,NA,S_Image_62.bmp-S_Lure_62.bmp,1,0,3
342,6,45,honeymoon,NA,1,1,0.95383,1,NA,O_Image_45.bmp-O_Lure_45.bmp,1,1,2
343,6,32,lever,NA,2,2,0.58556,1,NA,O_Image_32.bmp-O_Lure_32.bmp,1,0,2
344,6,54,attack,NA,2,2,0.95232,1,NA,S_Image_54.bmp-S_Lure_54.bmp,1,0,3
345,6,37,fire,NA,2,2,0.8965,1,NA,O_Image_37.bmp-O_Lure_37.bmp,1,1,2
346,6,33,hostage,NA,1,1,0.8426,1,NA,O_Image_33.bmp-O_Lure_33.bmp,1,1,2
347,6,70,kiss,NA,2,2,0.79905,1,NA,S_Image_70.bmp-S_Lure_70.bmp,1,1,3
348,6,56,antique,NA,1,2,1.5649,0,NA,S_Image_56.bmp-S_Lure_56.bmp,1,1,3
349,6,17,cone,NA,1,2,1.5328,0,NA,F_Image_17.bmp-F_Lure_17.bmp,1,0,1
350,6,36,flood,NA,2,1,1.693,0,NA,O_Image_36.bmp-O_Lure_36.bmp,1,1,2
351,6,1,asphalt,NA,1,1,1.08,1,NA,F_Image_1.bmp-F_Lure_1.bmp,1,0,1
352,6,26,animal,NA,2,2,1.9468,1,NA,O_Image_26.bmp-O_Lure_26.bmp,1,0,2
353,6,24,lever,NA,2,2,1.8026,1,NA,F_Image_24.bmp-F_Lure_24.bmp,1,0,1
354,6,72,fuel,NA,2,2,0.62503,1,NA,S_Image_72.bmp-S_Lure_72.bmp,1,0,3
355,6,31,corpse,NA,2,2,0.76586,1,NA,O_Image_31.bmp-O_Lure_31.bmp,1,1,2
356,6,64,harem,NA,1,2,0.8055,0,NA,S_Image_64.bmp-S_Lure_64.bmp,1,0,3
357,6,30,galaxy,NA,2,2,0.57134,1,NA,O_Image_30.bmp-O_Lure_30.bmp,1,0,2
358,6,27,black,NA,2,1,0.71499,0,NA,O_Image_27.bmp-O_Lure_27.bmp,1,0,2
359,6,40,ghost,NA,2,2,0.99644,1,NA,O_Image_40.bmp-O_Lure_40.bmp,1,1,2
360,6,14,angel,NA,1,1,1.4182,1,NA,F_Image_14.bmp-F_Lure_14.bmp,1,0,1
361,6,50,arch,NA,1,2,0.96006,0,NA,S_Image_50.bmp-S_Lure_50.bmp,1,1,3
362,6,59,cone,NA,1,1,0.49581,1,NA,S_Image_59.bmp-S_Lure_59.bmp,1,0,3
363,6,8,bubble,NA,2,2,0.8101,1,NA,F_Image_8.bmp-F_Lure_8.bmp,1,0,1
364,6,28,alcohol,NA,2,2,0.60024,1,NA,O_Image_28.bmp-O_Lure_28.bmp,1,1,2
365,6,23,giant,NA,2,2,0.49418,1,NA,F_Image_23.bmp-F_Lure_23.bmp,1,0,1
366,6,35,board,NA,1,1,0.38543,1,NA,O_Image_35.bmp-O_Lure_35.bmp,1,1,2
367,6,20,kiss,NA,1,2,0.37568,0,NA,F_Image_20.bmp-F_Lure_20.bmp,1,1,1
368,6,4,alcohol,NA,1,1,0.90337,1,NA,F_Image_4.bmp-F_Lure_4.bmp,1,1,1
369,6,16,fire,NA,2,2,0.46494,1,NA,F_Image_16.bmp-F_Lure_16.bmp,1,1,1
370,6,69,corner,NA,1,1,0.97241,1,NA,S_Image_69.bmp-S_Lure_69.bmp,1,0,3
371,6,60,cloud,NA,1,2,0.54794,0,NA,S_Image_60.bmp-S_Lure_60.bmp,1,1,3
372,6,46,drizzle,NA,2,2,0.78775,1,NA,O_Image_46.bmp-O_Lure_46.bmp,1,0,2
373,6,2,galaxy,NA,1,1,0.86646,1,NA,F_Image_2.bmp-F_Lure_2.bmp,1,0,1
374,6,12,fuel,NA,2,2,0.886,1,NA,F_Image_12.bmp-F_Lure_12.bmp,1,0,1
375,6,42,breakfast,NA,1,1,0.56889,1,NA,O_Image_42.bmp-O_Lure_42.bmp,1,1,2
376,6,11,arrow,NA,1,2,0.90409,0,NA,F_Image_11.bmp-F_Lure_11.bmp,1,0,1
377,6,29,hurricane,NA,2,1,0.61111,0,NA,O_Image_29.bmp-O_Lure_29.bmp,1,1,2
378,6,44,magnet,NA,1,2,0.96852,0,NA,O_Image_44.bmp-O_Lure_44.bmp,1,1,2
379,6,68,asphalt,NA,1,2,1.3036,0,NA,S_Image_68.bmp-S_Lure_68.bmp,1,0,3
380,6,55,black,NA,1,2,1.3053,0,NA,S_Image_55.bmp-S_Lure_55.bmp,1,0,3
381,6,39,corner,NA,2,2,1.2753,1,NA,O_Image_39.bmp-O_Lure_39.bmp,1,0,2
382,6,67,board,NA,1,2,1.8947,0,NA,S_Image_67.bmp-S_Lure_67.bmp,1,1,3
383,6,5,harem,NA,1,1,1.4573,1,NA,F_Image_5.bmp-F_Lure_5.bmp,1,0,1
384,6,49,marble,NA,1,2,0.50158,0,NA,S_Image_49.bmp-S_Lure_49.bmp,1,0,3
385,6,18,antique,NA,1,2,0.38383,0,NA,F_Image_18.bmp-F_Lure_18.bmp,1,1,1
386,6,21,animal,NA,2,0,3.4997,0,NA,F_Image_21.bmp-F_Lure_21.bmp,1,0,1
387,6,10,laundry,NA,1,2,0.16888,0,NA,F_Image_10.bmp-F_Lure_10.bmp,1,1,1
388,6,51,magnet,NA,2,2,0.41587,1,NA,S_Image_51.bmp-S_Lure_51.bmp,1,1,3
389,6,57,alien,NA,2,2,0.37334,1,NA,S_Image_57.bmp-S_Lure_57.bmp,1,1,3
390,6,22,arch,NA,1,2,0.2444,0,NA,F_Image_22.bmp-F_Lure_22.bmp,1,1,1
391,6,52,breakfast,NA,2,2,0.47299,1,NA,S_Image_52.bmp-S_Lure_52.bmp,1,1,3
392,6,38,marble,NA,2,2,3.4123,1,NA,O_Image_38.bmp-O_Lure_38.bmp,1,0,2
393,6,41,crumb,NA,1,2,0.68963,0,NA,O_Image_41.bmp-O_Lure_41.bmp,1,1,2
394,6,3,alien,NA,2,1,0.27677,0,NA,F_Image_3.bmp-F_Lure_3.bmp,1,1,1
395,6,43,bubble,NA,1,2,0.00010323,0,NA,O_Image_43.bmp-O_Lure_43.bmp,1,0,2
396,6,7,corpse,NA,2,1,0.00010715,0,NA,F_Image_7.bmp-F_Lure_7.bmp,1,1,1
