Trial,Cond,ImageNum,Cue,Block,Correct,Response,RT,Accuracy,CueRep,fName,ImageType,Baseline,Category
1,1,57,NA,NA,NA,1,4.1861,NA,NA,S_Lure_57.bmp,0,1,3
2,1,18,NA,NA,NA,1,1.1104,NA,NA,F_Lure_18.bmp,0,1,1
3,1,40,NA,NA,NA,1,0.10101,NA,NA,O_Image_40.bmp,1,1,2
4,1,5,NA,NA,NA,1,1.9258,NA,NA,F_Lure_5.bmp,0,0,1
5,1,57,NA,NA,NA,1,1.478,NA,NA,S_Image_57.bmp,2,1,3
6,1,27,NA,NA,NA,1,1.5264,NA,NA,O_Lure_27.bmp,0,0,2
7,1,67,NA,NA,NA,1,1.1013,NA,NA,S_Lure_67.bmp,0,1,3
8,1,25,NA,NA,NA,1,1.3573,NA,NA,O_Lure_25.bmp,0,0,2
9,1,49,NA,NA,NA,1,1.2654,NA,NA,S_Lure_49.bmp,0,0,3
10,1,28,NA,NA,NA,1,1.0177,NA,NA,O_Lure_28.bmp,0,1,2
11,1,43,NA,NA,NA,1,3.0442,NA,NA,O_Lure_43.bmp,0,0,2
12,1,37,NA,NA,NA,1,0.75101,NA,NA,O_Image_37.bmp,2,1,2
13,1,30,NA,NA,NA,1,0.26841,NA,NA,O_Lure_30.bmp,0,0,2
14,1,61,NA,NA,NA,1,1.3797,NA,NA,S_Image_61.bmp,2,0,3
15,1,60,NA,NA,NA,1,0.7998,NA,NA,S_Lure_60.bmp,0,1,3
16,1,67,NA,NA,NA,1,0.6505,NA,NA,S_Image_67.bmp,2,1,3
17,1,24,NA,NA,NA,1,0.81988,NA,NA,F_Image_24.bmp,2,0,1
18,1,32,NA,NA,NA,1,0.7888,NA,NA,O_Image_32.bmp,1,0,2
19,1,44,NA,NA,NA,1,0.43133,NA,NA,O_Lure_44.bmp,0,1,2
20,1,65,NA,NA,NA,1,0.62541,NA,NA,S_Image_65.bmp,2,1,3
21,1,34,NA,NA,NA,1,0.26832,NA,NA,O_Lure_34.bmp,0,0,2
22,1,59,NA,NA,NA,1,0.30031,NA,NA,S_Lure_59.bmp,0,0,3
23,1,20,NA,NA,NA,1,0.39493,NA,NA,F_Lure_20.bmp,0,1,1
24,1,14,NA,NA,NA,1,0.76563,NA,NA,F_Image_14.bmp,1,0,1
25,1,45,NA,NA,NA,1,0.55453,NA,NA,O_Lure_45.bmp,0,1,2
26,1,15,NA,NA,NA,1,0.47903,NA,NA,F_Lure_15.bmp,0,0,1
27,1,20,NA,NA,NA,1,0.31133,NA,NA,F_Image_20.bmp,2,1,1
28,1,12,NA,NA,NA,1,0.55733,NA,NA,F_Image_12.bmp,2,0,1
29,1,4,NA,NA,NA,1,1.3138,NA,NA,F_Lure_4.bmp,0,1,1
30,1,62,NA,NA,NA,1,0.84931,NA,NA,S_Lure_62.bmp,0,0,3
31,1,7,NA,NA,NA,1,0.80069,NA,NA,F_Image_7.bmp,1,1,1
32,1,31,NA,NA,NA,1,0.93164,NA,NA,O_Image_31.bmp,2,1,2
33,1,13,NA,NA,NA,1,0.44091,NA,NA,F_Image_13.bmp,2,1,1
34,1,15,NA,NA,NA,1,0.36344,NA,NA,F_Image_15.bmp,2,0,1
35,1,10,NA,NA,NA,1,0.00011651,NA,NA,F_Image_10.bmp,2,1,1
36,1,50,NA,NA,NA,1,0.53243,NA,NA,S_Image_50.bmp,2,1,3
37,1,45,NA,NA,NA,1,0.00013915,NA,NA,O_Image_45.bmp,1,1,2
38,1,16,NA,NA,NA,1,0.57192,NA,NA,F_Lure_16.bmp,0,1,1
39,1,25,NA,NA,NA,1,0.2645,NA,NA,O_Image_25.bmp,2,0,2
40,1,62,NA,NA,NA,1,0.32844,NA,NA,S_Image_62.bmp,1,0,3
41,1,28,NA,NA,NA,1,0.37401,NA,NA,O_Image_28.bmp,1,1,2
42,1,38,NA,NA,NA,1,0.39409,NA,NA,O_Image_38.bmp,1,0,2
43,1,69,NA,NA,NA,1,0.21351,NA,NA,S_Lure_69.bmp,0,0,3
44,1,55,NA,NA,NA,1,1.3452,NA,NA,S_Lure_55.bmp,0,0,3
45,1,33,NA,NA,NA,1,0.079425,NA,NA,O_Image_33.bmp,1,1,2
46,1,8,NA,NA,NA,1,0.30421,NA,NA,F_Image_8.bmp,1,0,1
47,1,17,NA,NA,NA,1,0.31952,NA,NA,F_Image_17.bmp,1,0,1
48,1,34,NA,NA,NA,1,0.4708,NA,NA,O_Image_34.bmp,1,0,2
49,1,2,NA,NA,NA,1,0.39024,NA,NA,F_Lure_2.bmp,0,0,1
50,1,63,NA,NA,NA,1,0.73097,NA,NA,S_Image_63.bmp,1,1,3
51,1,64,NA,NA,NA,1,0.90571,NA,NA,S_Lure_64.bmp,0,0,3
52,1,1,NA,NA,NA,1,0.47974,NA,NA,F_Image_1.bmp,2,0,1
53,1,55,NA,NA,NA,1,0.5044,NA,NA,S_Image_55.bmp,1,0,3
54,1,61,NA,NA,NA,1,0.3598,NA,NA,S_Lure_61.bmp,0,0,3
55,1,46,NA,NA,NA,1,0.036614,NA,NA,O_Lure_46.bmp,0,0,2
56,1,54,NA,NA,NA,1,0.38387,NA,NA,S_Image_54.bmp,1,0,3
57,1,50,NA,NA,NA,1,0.086755,NA,NA,S_Lure_50.bmp,0,1,3
58,1,26,NA,NA,NA,1,1.0865,NA,NA,O_Image_26.bmp,2,0,2
59,1,52,NA,NA,NA,1,0.6214,NA,NA,S_Lure_52.bmp,0,1,3
60,1,70,NA,NA,NA,1,1.1181,NA,NA,S_Lure_70.bmp,0,1,3
61,1,35,NA,NA,NA,1,0.34021,NA,NA,O_Image_35.bmp,1,1,2
62,1,19,NA,NA,NA,1,0.92832,NA,NA,F_Image_19.bmp,1,0,1
63,1,56,NA,NA,NA,1,0.30894,NA,NA,S_Lure_56.bmp,0,1,3
64,1,41,NA,NA,NA,1,0.44229,NA,NA,O_Lure_41.bmp,0,1,2
65,1,16,NA,NA,NA,1,0.31505,NA,NA,F_Image_16.bmp,1,1,1
66,1,23,NA,NA,NA,1,0.49592,NA,NA,F_Image_23.bmp,2,0,1
67,1,40,NA,NA,NA,1,0.28717,NA,NA,O_Lure_40.bmp,0,1,2
68,1,46,NA,NA,NA,1,0.38195,NA,NA,O_Image_46.bmp,2,0,2
69,1,9,NA,NA,NA,1,0.98657,NA,NA,F_Image_9.bmp,2,1,1
70,1,24,NA,NA,NA,1,0.4213,NA,NA,F_Lure_24.bmp,0,0,1
71,1,8,NA,NA,NA,1,0.39867,NA,NA,F_Lure_8.bmp,0,0,1
72,1,43,NA,NA,NA,1,0.33015,NA,NA,O_Image_43.bmp,2,0,2
73,1,51,NA,NA,NA,1,0.31162,NA,NA,S_Image_51.bmp,1,1,3
74,1,63,NA,NA,NA,1,0.69356,NA,NA,S_Lure_63.bmp,0,1,3
75,1,19,NA,NA,NA,1,0.46969,NA,NA,F_Lure_19.bmp,0,0,1
76,1,69,NA,NA,NA,1,0.39093,NA,NA,S_Image_69.bmp,1,0,3
77,1,7,NA,NA,NA,1,1.2744,NA,NA,F_Lure_7.bmp,0,1,1
78,1,23,NA,NA,NA,1,0.36309,NA,NA,F_Lure_23.bmp,0,0,1
79,1,36,NA,NA,NA,1,0.44113,NA,NA,O_Image_36.bmp,2,1,2
80,1,36,NA,NA,NA,1,0.33935,NA,NA,O_Lure_36.bmp,0,1,2
81,1,49,NA,NA,NA,1,0.61799,NA,NA,S_Image_49.bmp,2,0,3
82,1,29,NA,NA,NA,1,0.5328,NA,NA,O_Lure_29.bmp,0,1,2
83,1,51,NA,NA,NA,1,0.50749,NA,NA,S_Lure_51.bmp,0,1,3
84,1,48,NA,NA,NA,1,0.48253,NA,NA,O_Image_48.bmp,2,0,2
85,1,71,NA,NA,NA,1,0.18806,NA,NA,S_Lure_71.bmp,0,0,3
86,1,4,NA,NA,NA,1,0.31945,NA,NA,F_Image_4.bmp,2,1,1
87,1,14,NA,NA,NA,1,0.50145,NA,NA,F_Lure_14.bmp,0,0,1
88,1,44,NA,NA,NA,1,0.012295,NA,NA,O_Image_44.bmp,2,1,2
89,1,6,NA,NA,NA,1,0.61484,NA,NA,F_Image_6.bmp,1,0,1
90,1,27,NA,NA,NA,1,0.62631,NA,NA,O_Image_27.bmp,2,0,2
91,1,29,NA,NA,NA,1,0.29897,NA,NA,O_Image_29.bmp,2,1,2
92,1,10,NA,NA,NA,1,0.28967,NA,NA,F_Lure_10.bmp,0,1,1
93,1,11,NA,NA,NA,1,0.16184,NA,NA,F_Lure_11.bmp,0,0,1
94,1,5,NA,NA,NA,1,0.78192,NA,NA,F_Image_5.bmp,1,0,1
95,1,52,NA,NA,NA,1,0.34647,NA,NA,S_Image_52.bmp,2,1,3
96,1,54,NA,NA,NA,1,1.056,NA,NA,S_Lure_54.bmp,0,0,3
97,1,38,NA,NA,NA,1,0.91865,NA,NA,O_Lure_38.bmp,0,0,2
98,1,68,NA,NA,NA,1,0.7569,NA,NA,S_Image_68.bmp,1,0,3
99,1,53,NA,NA,NA,1,0.72139,NA,NA,S_Lure_53.bmp,0,1,3
100,1,35,NA,NA,NA,1,0.43283,NA,NA,O_Lure_35.bmp,0,1,2
101,1,53,NA,NA,NA,1,0.34683,NA,NA,S_Image_53.bmp,2,1,3
102,1,64,NA,NA,NA,1,0.29646,NA,NA,S_Image_64.bmp,2,0,3
103,1,26,NA,NA,NA,1,0.31168,NA,NA,O_Lure_26.bmp,0,0,2
104,1,3,NA,NA,NA,1,0.50365,NA,NA,F_Lure_3.bmp,0,1,1
105,1,30,NA,NA,NA,1,0.36638,NA,NA,O_Image_30.bmp,1,0,2
106,1,22,NA,NA,NA,1,0.3931,NA,NA,F_Lure_22.bmp,0,1,1
107,1,71,NA,NA,NA,1,0.4678,NA,NA,S_Image_71.bmp,2,0,3
108,1,66,NA,NA,NA,1,0.16445,NA,NA,S_Image_66.bmp,2,1,3
109,1,33,NA,NA,NA,1,0.17523,NA,NA,O_Lure_33.bmp,0,1,2
110,1,42,NA,NA,NA,1,0.29278,NA,NA,O_Image_42.bmp,1,1,2
111,1,68,NA,NA,NA,1,0.25262,NA,NA,S_Lure_68.bmp,0,0,3
112,1,6,NA,NA,NA,1,0.55085,NA,NA,F_Lure_6.bmp,0,0,1
113,1,70,NA,NA,NA,1,0.52413,NA,NA,S_Image_70.bmp,1,1,3
114,1,60,NA,NA,NA,1,0.31485,NA,NA,S_Image_60.bmp,1,1,3
115,1,39,NA,NA,NA,1,0.81899,NA,NA,O_Lure_39.bmp,0,0,2
116,1,39,NA,NA,NA,1,0.35089,NA,NA,O_Image_39.bmp,2,0,2
117,1,48,NA,NA,NA,1,0.12567,NA,NA,O_Lure_48.bmp,0,0,2
118,1,13,NA,NA,NA,1,0.26174,NA,NA,F_Lure_13.bmp,0,1,1
119,1,32,NA,NA,NA,1,0.5197,NA,NA,O_Lure_32.bmp,0,0,2
120,1,31,NA,NA,NA,1,0.36109,NA,NA,O_Lure_31.bmp,0,1,2
121,1,42,NA,NA,NA,1,0.30193,NA,NA,O_Lure_42.bmp,0,1,2
122,1,47,NA,NA,NA,1,1.2924,NA,NA,O_Lure_47.bmp,0,1,2
123,1,11,NA,NA,NA,1,0.36528,NA,NA,F_Image_11.bmp,1,0,1
124,1,12,NA,NA,NA,1,0.35462,NA,NA,F_Lure_12.bmp,0,0,1
125,1,3,NA,NA,NA,1,0.32873,NA,NA,F_Image_3.bmp,1,1,1
126,1,58,NA,NA,NA,1,0.36883,NA,NA,S_Image_58.bmp,1,1,3
127,1,17,NA,NA,NA,1,0.68608,NA,NA,F_Lure_17.bmp,0,0,1
128,1,1,NA,NA,NA,1,0.00011893,NA,NA,F_Lure_1.bmp,0,0,1
129,1,72,NA,NA,NA,1,0.47838,NA,NA,S_Image_72.bmp,1,0,3
130,1,9,NA,NA,NA,1,0.57758,NA,NA,F_Lure_9.bmp,0,1,1
131,1,21,NA,NA,NA,1,0.54381,NA,NA,F_Image_21.bmp,1,0,1
132,1,59,NA,NA,NA,1,0.27834,NA,NA,S_Image_59.bmp,2,0,3
133,1,66,NA,NA,NA,1,0.59182,NA,NA,S_Lure_66.bmp,0,1,3
134,1,18,NA,NA,NA,1,0.3871,NA,NA,F_Image_18.bmp,2,1,1
135,1,41,NA,NA,NA,1,0.40865,NA,NA,O_Image_41.bmp,1,1,2
136,1,2,NA,NA,NA,1,0.1965,NA,NA,F_Image_2.bmp,2,0,1
137,1,72,NA,NA,NA,1,0.38407,NA,NA,S_Lure_72.bmp,0,0,3
138,1,65,NA,NA,NA,1,0.5013,NA,NA,S_Lure_65.bmp,0,1,3
139,1,47,NA,NA,NA,1,0.3255,NA,NA,O_Image_47.bmp,1,1,2
140,1,37,NA,NA,NA,1,0.36424,NA,NA,O_Lure_37.bmp,0,1,2
141,1,21,NA,NA,NA,1,0.29766,NA,NA,F_Lure_21.bmp,0,0,1
142,1,22,NA,NA,NA,1,0.30434,NA,NA,F_Image_22.bmp,1,1,1
143,1,58,NA,NA,NA,1,0.72834,NA,NA,S_Lure_58.bmp,0,1,3
144,1,56,NA,NA,NA,1,0.62227,NA,NA,S_Image_56.bmp,1,1,3
145,2,58,hurricane,1,1,0,3.4998,0,NA,S_Image_58.bmp-S_Lure_58.bmp,1,1,3
146,2,8,bubble,1,1,1,1.1403,1,NA,F_Image_8.bmp-F_Lure_8.bmp,1,0,1
147,2,51,magnet,1,1,1,1.5964,1,NA,S_Image_51.bmp-S_Lure_51.bmp,1,1,3
148,2,42,breakfast,1,1,1,1.2575,1,NA,O_Image_42.bmp-O_Lure_42.bmp,1,1,2
149,2,19,costume,1,1,1,1.0772,1,NA,F_Image_19.bmp-F_Lure_19.bmp,1,0,1
150,2,63,flood,1,1,1,1.128,1,NA,S_Image_63.bmp-S_Lure_63.bmp,1,1,3
151,2,5,harem,1,2,2,1.624,1,NA,F_Image_5.bmp-F_Lure_5.bmp,1,0,1
152,2,72,fuel,1,1,1,1.2043,1,NA,S_Image_72.bmp-S_Lure_72.bmp,1,0,3
153,2,32,lever,1,2,2,0.81005,1,NA,O_Image_32.bmp-O_Lure_32.bmp,1,0,2
154,2,55,black,1,2,2,0.98374,1,NA,S_Image_55.bmp-S_Lure_55.bmp,1,0,3
155,2,30,galaxy,1,2,2,1.1253,1,NA,O_Image_30.bmp-O_Lure_30.bmp,1,0,2
156,2,54,attack,1,1,1,1.3825,1,NA,S_Image_54.bmp-S_Lure_54.bmp,1,0,3
157,3,32,lever,1,2,2,0.81994,1,NA,O_Image_32.bmp-O_Lure_32.bmp,1,0,2
158,3,63,flood,1,1,1,0.8086,1,NA,S_Image_63.bmp-S_Lure_63.bmp,1,1,3
159,3,54,attack,1,1,1,1.0218,1,NA,S_Image_54.bmp-S_Lure_54.bmp,1,0,3
160,3,51,magnet,1,1,1,1.2107,1,NA,S_Image_51.bmp-S_Lure_51.bmp,1,1,3
161,3,19,costume,1,1,1,1.1201,1,NA,F_Image_19.bmp-F_Lure_19.bmp,1,0,1
162,3,5,harem,1,1,1,1.0574,1,NA,F_Image_5.bmp-F_Lure_5.bmp,1,0,1
163,3,72,fuel,1,1,1,0.91628,1,NA,S_Image_72.bmp-S_Lure_72.bmp,1,0,3
164,3,58,hurricane,1,2,1,1.173,0,NA,S_Image_58.bmp-S_Lure_58.bmp,1,1,3
165,3,42,breakfast,1,1,1,0.90789,1,NA,O_Image_42.bmp-O_Lure_42.bmp,1,1,2
166,3,30,galaxy,1,2,2,0.7334,1,NA,O_Image_30.bmp-O_Lure_30.bmp,1,0,2
167,3,8,bubble,1,2,2,1.2535,1,NA,F_Image_8.bmp-F_Lure_8.bmp,1,0,1
168,3,55,black,1,2,2,0.71282,1,NA,S_Image_55.bmp-S_Lure_55.bmp,1,0,3
169,2,69,corner,2,1,2,2.8647,0,NA,S_Image_69.bmp-S_Lure_69.bmp,1,0,3
170,2,40,ghost,2,2,1,1.1558,0,NA,O_Image_40.bmp-O_Lure_40.bmp,1,1,2
171,2,47,laundry,2,2,2,1.3873,1,NA,O_Image_47.bmp-O_Lure_47.bmp,1,1,2
172,2,7,corpse,2,1,1,0.73742,1,NA,F_Image_7.bmp-F_Lure_7.bmp,1,1,1
173,2,22,arch,2,2,2,0.69729,1,NA,F_Image_22.bmp-F_Lure_22.bmp,1,1,1
174,2,3,alien,2,1,1,0.77873,1,NA,F_Image_3.bmp-F_Lure_3.bmp,1,1,1
175,2,70,kiss,2,2,2,1.5291,1,NA,S_Image_70.bmp-S_Lure_70.bmp,1,1,3
176,2,68,asphalt,2,1,1,1.0011,1,NA,S_Image_68.bmp-S_Lure_68.bmp,1,0,3
177,2,62,drizzle,2,1,1,0.88661,1,NA,S_Image_62.bmp-S_Lure_62.bmp,1,0,3
178,2,33,hostage,2,1,1,1.1044,1,NA,O_Image_33.bmp-O_Lure_33.bmp,1,1,2
179,2,60,cloud,2,1,1,0.94589,1,NA,S_Image_60.bmp-S_Lure_60.bmp,1,1,3
180,2,45,honeymoon,2,2,2,0.6579,1,NA,O_Image_45.bmp-O_Lure_45.bmp,1,1,2
181,3,62,drizzle,2,1,1,1.1165,1,NA,S_Image_62.bmp-S_Lure_62.bmp,1,0,3
182,3,69,corner,2,2,2,1.1093,1,NA,S_Image_69.bmp-S_Lure_69.bmp,1,0,3
183,3,22,arch,2,1,1,0.75831,1,NA,F_Image_22.bmp-F_Lure_22.bmp,1,1,1
184,3,70,kiss,2,2,2,1.1257,1,NA,S_Image_70.bmp-S_Lure_70.bmp,1,1,3
185,3,3,alien,2,1,1,0.71882,1,NA,F_Image_3.bmp-F_Lure_3.bmp,1,1,1
186,3,7,corpse,2,1,1,0.71147,1,NA,F_Image_7.bmp-F_Lure_7.bmp,1,1,1
187,3,47,laundry,2,1,2,0.92805,0,NA,O_Image_47.bmp-O_Lure_47.bmp,1,1,2
188,3,33,hostage,2,2,2,1.2081,1,NA,O_Image_33.bmp-O_Lure_33.bmp,1,1,2
189,3,40,ghost,2,2,2,0.6299,1,NA,O_Image_40.bmp-O_Lure_40.bmp,1,1,2
190,3,68,asphalt,2,2,2,1.1219,1,NA,S_Image_68.bmp-S_Lure_68.bmp,1,0,3
191,3,60,cloud,2,1,1,0.99501,1,NA,S_Image_60.bmp-S_Lure_60.bmp,1,1,3
192,3,45,honeymoon,2,2,2,0.43167,1,NA,O_Image_45.bmp-O_Lure_45.bmp,1,1,2
193,2,28,alcohol,3,2,2,0.83537,1,NA,O_Image_28.bmp-O_Lure_28.bmp,1,1,2
194,2,35,board,3,1,1,1.3757,1,NA,O_Image_35.bmp-O_Lure_35.bmp,1,1,2
195,2,16,fire,3,2,2,1.2545,1,NA,F_Image_16.bmp-F_Lure_16.bmp,1,1,1
196,2,38,marble,3,1,1,0.68213,1,NA,O_Image_38.bmp-O_Lure_38.bmp,1,0,2
197,2,6,army,3,2,2,0.94764,1,NA,F_Image_6.bmp-F_Lure_6.bmp,1,0,1
198,2,34,giant,3,2,1,0.8512,0,NA,O_Image_34.bmp-O_Lure_34.bmp,1,0,2
199,2,11,arrow,3,1,1,0.77468,1,NA,F_Image_11.bmp-F_Lure_11.bmp,1,0,1
200,2,56,antique,3,2,2,1.5576,1,NA,S_Image_56.bmp-S_Lure_56.bmp,1,1,3
201,2,21,animal,3,2,1,1.2059,0,NA,F_Image_21.bmp-F_Lure_21.bmp,1,0,1
202,2,41,crumb,3,2,2,0.94701,1,NA,O_Image_41.bmp-O_Lure_41.bmp,1,1,2
203,2,17,cone,3,2,2,1.3381,1,NA,F_Image_17.bmp-F_Lure_17.bmp,1,0,1
204,2,14,angel,3,1,1,0.82612,1,NA,F_Image_14.bmp-F_Lure_14.bmp,1,0,1
205,3,41,crumb,3,1,1,0.78213,1,NA,O_Image_41.bmp-O_Lure_41.bmp,1,1,2
206,3,56,antique,3,1,2,1.4679,0,NA,S_Image_56.bmp-S_Lure_56.bmp,1,1,3
207,3,35,board,3,1,1,1.4229,1,NA,O_Image_35.bmp-O_Lure_35.bmp,1,1,2
208,3,6,army,3,1,1,1.5957,1,NA,F_Image_6.bmp-F_Lure_6.bmp,1,0,1
209,3,34,giant,3,1,1,0.92931,1,NA,O_Image_34.bmp-O_Lure_34.bmp,1,0,2
210,3,16,fire,3,1,1,1.0575,1,NA,F_Image_16.bmp-F_Lure_16.bmp,1,1,1
211,3,17,cone,3,1,2,1.2369,0,NA,F_Image_17.bmp-F_Lure_17.bmp,1,0,1
212,3,14,angel,3,2,2,0.80089,1,NA,F_Image_14.bmp-F_Lure_14.bmp,1,0,1
213,3,28,alcohol,3,2,2,0.87836,1,NA,O_Image_28.bmp-O_Lure_28.bmp,1,1,2
214,3,38,marble,3,2,2,0.65618,1,NA,O_Image_38.bmp-O_Lure_38.bmp,1,0,2
215,3,11,arrow,3,2,2,1.0117,1,NA,F_Image_11.bmp-F_Lure_11.bmp,1,0,1
216,3,21,animal,3,2,2,1.0326,1,NA,F_Image_21.bmp-F_Lure_21.bmp,1,0,1
217,4,50,arch,1,2,2,1.8378,1,NA,S_Image_50.bmp-S_Lure_50.bmp,2,1,3
218,4,67,board,1,1,1,1.306,1,NA,S_Image_67.bmp-S_Lure_67.bmp,2,1,3
219,4,65,ghost,1,2,2,1.0118,1,NA,S_Image_65.bmp-S_Lure_65.bmp,2,1,3
220,4,2,galaxy,1,2,2,1.4642,1,NA,F_Image_2.bmp-F_Lure_2.bmp,2,0,1
221,4,13,cloud,1,2,2,1.387,1,NA,F_Image_13.bmp-F_Lure_13.bmp,2,1,1
222,4,46,drizzle,1,2,2,1.0971,1,NA,O_Image_46.bmp-O_Lure_46.bmp,2,0,2
223,4,61,army,1,2,2,1.1388,1,NA,S_Image_61.bmp-S_Lure_61.bmp,2,0,3
224,4,15,attack,1,1,1,1.4108,1,NA,F_Image_15.bmp-F_Lure_15.bmp,2,0,1
225,4,20,kiss,1,1,1,0.82363,1,NA,F_Image_20.bmp-F_Lure_20.bmp,2,1,1
226,4,37,fire,1,1,1,1.2442,1,NA,O_Image_37.bmp-O_Lure_37.bmp,2,1,2
227,4,24,lever,1,2,2,0.9282,1,NA,F_Image_24.bmp-F_Lure_24.bmp,2,0,1
228,4,9,hostage,1,2,2,0.92046,1,NA,F_Image_9.bmp-F_Lure_9.bmp,2,1,1
229,4,31,corpse,2,2,2,0.54483,1,NA,O_Image_31.bmp-O_Lure_31.bmp,2,1,2
230,4,10,laundry,2,2,2,1.0883,1,NA,F_Image_10.bmp-F_Lure_10.bmp,2,1,1
231,4,12,fuel,2,2,1,1.0825,0,NA,F_Image_12.bmp-F_Lure_12.bmp,2,0,1
232,4,29,hurricane,2,2,2,0.73231,1,NA,O_Image_29.bmp-O_Lure_29.bmp,2,1,2
233,4,48,arrow,2,2,2,0.78842,1,NA,O_Image_48.bmp-O_Lure_48.bmp,2,0,2
234,4,25,angel,2,2,2,0.95467,1,NA,O_Image_25.bmp-O_Lure_25.bmp,2,0,2
235,4,36,flood,2,2,2,1.0738,1,NA,O_Image_36.bmp-O_Lure_36.bmp,2,1,2
236,4,71,costume,2,2,2,1.3009,1,NA,S_Image_71.bmp-S_Lure_71.bmp,2,0,3
237,4,49,marble,2,1,1,1.0223,1,NA,S_Image_49.bmp-S_Lure_49.bmp,2,0,3
238,4,43,bubble,2,2,2,0.80288,1,NA,O_Image_43.bmp-O_Lure_43.bmp,2,0,2
239,4,39,corner,2,2,2,0.76839,1,NA,O_Image_39.bmp-O_Lure_39.bmp,2,0,2
240,4,4,alcohol,2,2,2,1.2153,1,NA,F_Image_4.bmp-F_Lure_4.bmp,2,1,1
241,4,52,breakfast,3,1,1,0.97906,1,NA,S_Image_52.bmp-S_Lure_52.bmp,2,1,3
242,4,59,cone,3,2,2,0.99344,1,NA,S_Image_59.bmp-S_Lure_59.bmp,2,0,3
243,4,64,harem,3,2,2,0.59986,1,NA,S_Image_64.bmp-S_Lure_64.bmp,2,0,3
244,4,57,alien,3,2,2,0.66889,1,NA,S_Image_57.bmp-S_Lure_57.bmp,2,1,3
245,4,23,giant,3,2,2,1.3275,1,NA,F_Image_23.bmp-F_Lure_23.bmp,2,0,1
246,4,66,crumb,3,2,2,1.0646,1,NA,S_Image_66.bmp-S_Lure_66.bmp,2,1,3
247,4,44,magnet,3,2,2,0.63514,1,NA,O_Image_44.bmp-O_Lure_44.bmp,2,1,2
248,4,18,antique,3,2,2,0.9676,1,NA,F_Image_18.bmp-F_Lure_18.bmp,2,1,1
249,4,53,honeymoon,3,2,2,0.63845,1,NA,S_Image_53.bmp-S_Lure_53.bmp,2,1,3
250,4,27,black,3,2,2,0.96246,1,NA,O_Image_27.bmp-O_Lure_27.bmp,2,0,2
251,4,26,animal,3,1,2,0.9848,0,NA,O_Image_26.bmp-O_Lure_26.bmp,2,0,2
252,4,1,asphalt,3,1,1,1.239,1,NA,F_Image_1.bmp-F_Lure_1.bmp,2,0,1
253,5,32.24,lever,NA,2,0,2.5004,0,1,O_Image_32.bmp-F_Lure_24.bmp,NA,0,2.1
254,5,11.48,arrow,NA,1,2,1.3309,0,1,F_Image_11.bmp-O_Lure_48.bmp,NA,0,1.2
255,5,21.26,animal,NA,1,3,1.3002,0,1,F_Image_21.bmp-O_Lure_26.bmp,NA,0,1.2
256,5,72.12,fuel,NA,3,4,1.8932,0,1,S_Image_72.bmp-F_Lure_12.bmp,NA,0,3.1
257,5,34.23,giant,NA,2,4,0.48724,0,1,O_Image_34.bmp-F_Lure_23.bmp,NA,0,2.1
258,5,5.64,harem,NA,1,1,0.49721,1,1,F_Image_5.bmp-S_Lure_64.bmp,NA,0,1.3
259,5,69.39,corner,NA,3,2,0.963,0,1,S_Image_69.bmp-O_Lure_39.bmp,NA,0,3.2
260,5,34.23,giant,NA,2,3,0.39623,0,2,O_Image_34.bmp-F_Lure_23.bmp,NA,0,2.1
261,5,62.46,drizzle,NA,3,3,0.58157,1,1,S_Image_62.bmp-O_Lure_46.bmp,NA,0,3.2
262,5,6.61,army,NA,1,1,0.78329,1,1,F_Image_6.bmp-S_Lure_61.bmp,NA,0,1.3
263,5,55.27,black,NA,3,3,1.3686,1,1,S_Image_55.bmp-O_Lure_27.bmp,NA,0,3.2
264,5,21.26,animal,NA,1,2,0.85029,0,2,F_Image_21.bmp-O_Lure_26.bmp,NA,0,1.2
265,5,6.61,army,NA,1,1,0.46741,1,2,F_Image_6.bmp-S_Lure_61.bmp,NA,0,1.3
266,5,11.48,arrow,NA,1,2,0.32476,0,2,F_Image_11.bmp-O_Lure_48.bmp,NA,0,1.2
267,5,69.39,corner,NA,3,1,0.51911,0,2,S_Image_69.bmp-O_Lure_39.bmp,NA,0,3.2
268,5,17.59,cone,NA,1,1,0.4883,1,1,F_Image_17.bmp-S_Lure_59.bmp,NA,0,1.3
269,5,54.15,attack,NA,3,1,0.39484,0,1,S_Image_54.bmp-F_Lure_15.bmp,NA,0,3.1
270,5,72.12,fuel,NA,3,1,0.49217,0,2,S_Image_72.bmp-F_Lure_12.bmp,NA,0,3.1
271,5,54.15,attack,NA,3,3,0.43746,1,2,S_Image_54.bmp-F_Lure_15.bmp,NA,0,3.1
272,5,38.49,marble,NA,2,2,0.37548,1,1,O_Image_38.bmp-S_Lure_49.bmp,NA,0,2.3
273,5,68.01,asphalt,NA,3,3,0.68187,1,1,S_Image_68.bmp-F_Lure_1.bmp,NA,0,3.1
274,5,54.15,attack,NA,3,1,0.35503,0,3,S_Image_54.bmp-F_Lure_15.bmp,NA,0,3.1
275,5,38.49,marble,NA,2,2,0.31724,1,2,O_Image_38.bmp-S_Lure_49.bmp,NA,0,2.3
276,5,14.25,angel,NA,1,2,0.46244,0,1,F_Image_14.bmp-O_Lure_25.bmp,NA,0,1.2
277,5,30.02,galaxy,NA,2,2,0.43246,1,1,O_Image_30.bmp-F_Lure_2.bmp,NA,0,2.1
278,5,6.61,army,NA,1,3,0.33766,0,3,F_Image_6.bmp-S_Lure_61.bmp,NA,0,1.3
279,5,8.43,bubble,NA,1,1,0.3718,1,1,F_Image_8.bmp-O_Lure_43.bmp,NA,0,1.2
280,5,14.25,angel,NA,1,1,0.33401,1,2,F_Image_14.bmp-O_Lure_25.bmp,NA,0,1.2
281,5,62.46,drizzle,NA,3,3,0.57541,1,2,S_Image_62.bmp-O_Lure_46.bmp,NA,0,3.2
282,5,5.64,harem,NA,1,1,0.39346,1,2,F_Image_5.bmp-S_Lure_64.bmp,NA,0,1.3
283,5,55.27,black,NA,3,3,0.41045,1,2,S_Image_55.bmp-O_Lure_27.bmp,NA,0,3.2
284,5,32.24,lever,NA,2,2,0.35632,1,2,O_Image_32.bmp-F_Lure_24.bmp,NA,0,2.1
285,5,62.46,drizzle,NA,3,3,0.44647,1,3,S_Image_62.bmp-O_Lure_46.bmp,NA,0,3.2
286,5,69.39,corner,NA,3,3,0.57582,1,3,S_Image_69.bmp-O_Lure_39.bmp,NA,0,3.2
287,5,5.64,harem,NA,1,1,0.80103,1,3,F_Image_5.bmp-S_Lure_64.bmp,NA,0,1.3
288,5,68.01,asphalt,NA,3,3,0.34664,1,2,S_Image_68.bmp-F_Lure_1.bmp,NA,0,3.1
289,5,21.26,animal,NA,1,1,0.45992,1,3,F_Image_21.bmp-O_Lure_26.bmp,NA,0,1.2
290,5,11.48,arrow,NA,1,1,0.33332,1,3,F_Image_11.bmp-O_Lure_48.bmp,NA,0,1.2
291,5,30.02,galaxy,NA,2,2,0.34289,1,2,O_Image_30.bmp-F_Lure_2.bmp,NA,0,2.1
292,5,19.71,costume,NA,1,1,0.45627,1,1,F_Image_19.bmp-S_Lure_71.bmp,NA,0,1.3
293,5,14.25,angel,NA,1,2,0.36246,0,3,F_Image_14.bmp-O_Lure_25.bmp,NA,0,1.2
294,5,54.15,attack,NA,3,1,0.49952,0,4,S_Image_54.bmp-F_Lure_15.bmp,NA,0,3.1
295,5,8.43,bubble,NA,1,1,0.54167,1,2,F_Image_8.bmp-O_Lure_43.bmp,NA,0,1.2
296,5,11.48,arrow,NA,1,1,0.38424,1,4,F_Image_11.bmp-O_Lure_48.bmp,NA,0,1.2
297,5,8.43,bubble,NA,1,1,0.3448,1,3,F_Image_8.bmp-O_Lure_43.bmp,NA,0,1.2
298,5,30.02,galaxy,NA,2,2,0.34642,1,3,O_Image_30.bmp-F_Lure_2.bmp,NA,0,2.1
299,5,55.27,black,NA,3,3,0.37168,1,3,S_Image_55.bmp-O_Lure_27.bmp,NA,0,3.2
300,5,8.43,bubble,NA,1,1,0.39798,1,4,F_Image_8.bmp-O_Lure_43.bmp,NA,0,1.2
301,5,19.71,costume,NA,1,1,0.4071,1,2,F_Image_19.bmp-S_Lure_71.bmp,NA,0,1.3
302,5,14.25,angel,NA,1,2,0.48145,0,4,F_Image_14.bmp-O_Lure_25.bmp,NA,0,1.2
303,5,5.64,harem,NA,1,1,0.32294,1,4,F_Image_5.bmp-S_Lure_64.bmp,NA,0,1.3
304,5,62.46,drizzle,NA,3,3,0.33297,1,4,S_Image_62.bmp-O_Lure_46.bmp,NA,0,3.2
305,5,68.01,asphalt,NA,3,3,0.68632,1,3,S_Image_68.bmp-F_Lure_1.bmp,NA,0,3.1
306,5,19.71,costume,NA,1,1,0.65638,1,3,F_Image_19.bmp-S_Lure_71.bmp,NA,0,1.3
307,5,72.12,fuel,NA,3,3,0.45835,1,3,S_Image_72.bmp-F_Lure_12.bmp,NA,0,3.1
308,5,17.59,cone,NA,1,1,0.76445,1,2,F_Image_17.bmp-S_Lure_59.bmp,NA,0,1.3
309,5,19.71,costume,NA,1,1,0.50193,1,4,F_Image_19.bmp-S_Lure_71.bmp,NA,0,1.3
310,5,32.24,lever,NA,2,2,0.52717,1,3,O_Image_32.bmp-F_Lure_24.bmp,NA,0,2.1
311,5,69.39,corner,NA,3,3,0.33699,1,4,S_Image_69.bmp-O_Lure_39.bmp,NA,0,3.2
312,5,34.23,giant,NA,2,1,0.81901,0,3,O_Image_34.bmp-F_Lure_23.bmp,NA,0,2.1
313,5,17.59,cone,NA,1,3,0.34063,0,3,F_Image_17.bmp-S_Lure_59.bmp,NA,0,1.3
314,5,32.24,lever,NA,2,2,0.3426,1,4,O_Image_32.bmp-F_Lure_24.bmp,NA,0,2.1
315,5,38.49,marble,NA,2,2,0.39993,1,3,O_Image_38.bmp-S_Lure_49.bmp,NA,0,2.3
316,5,68.01,asphalt,NA,3,3,0.59358,1,4,S_Image_68.bmp-F_Lure_1.bmp,NA,0,3.1
317,5,30.02,galaxy,NA,2,2,0.53088,1,4,O_Image_30.bmp-F_Lure_2.bmp,NA,0,2.1
318,5,6.61,army,NA,1,3,0.46015,0,4,F_Image_6.bmp-S_Lure_61.bmp,NA,0,1.3
319,5,34.23,giant,NA,2,2,0.34949,1,4,O_Image_34.bmp-F_Lure_23.bmp,NA,0,2.1
320,5,21.26,animal,NA,1,1,0.29531,1,4,F_Image_21.bmp-O_Lure_26.bmp,NA,0,1.2
321,5,38.49,marble,NA,2,2,0.56883,1,4,O_Image_38.bmp-S_Lure_49.bmp,NA,0,2.3
322,5,17.59,cone,NA,1,3,0.44182,0,4,F_Image_17.bmp-S_Lure_59.bmp,NA,0,1.3
323,5,72.12,fuel,NA,3,3,0.50826,1,4,S_Image_72.bmp-F_Lure_12.bmp,NA,0,3.1
324,5,55.27,black,NA,3,3,0.302,1,4,S_Image_55.bmp-O_Lure_27.bmp,NA,0,3.2
325,6,15,attack,NA,2,2,1.1325,1,NA,F_Image_15.bmp-F_Lure_15.bmp,1,0,1
326,6,61,army,NA,2,2,0.80496,1,NA,S_Image_61.bmp-S_Lure_61.bmp,1,0,3
327,6,65,ghost,NA,1,1,0.93129,1,NA,S_Image_65.bmp-S_Lure_65.bmp,1,1,3
328,6,13,cloud,NA,1,2,0.91596,0,NA,F_Image_13.bmp-F_Lure_13.bmp,1,1,1
329,6,63,flood,NA,2,2,0.95717,1,NA,S_Image_63.bmp-S_Lure_63.bmp,1,1,3
330,6,34,giant,NA,1,1,0.75717,1,NA,O_Image_34.bmp-O_Lure_34.bmp,1,0,2
331,6,71,costume,NA,2,2,1.8535,1,NA,S_Image_71.bmp-S_Lure_71.bmp,1,0,3
332,6,58,hurricane,NA,2,2,1.5693,1,NA,S_Image_58.bmp-S_Lure_58.bmp,1,1,3
333,6,9,hostage,NA,1,1,0.84109,1,NA,F_Image_9.bmp-F_Lure_9.bmp,1,1,1
334,6,53,honeymoon,NA,1,1,0.9341,1,NA,S_Image_53.bmp-S_Lure_53.bmp,1,1,3
335,6,48,arrow,NA,2,2,0.694,1,NA,O_Image_48.bmp-O_Lure_48.bmp,1,0,2
336,6,19,costume,NA,1,1,1.0646,1,NA,F_Image_19.bmp-F_Lure_19.bmp,1,0,1
337,6,25,angel,NA,2,2,1.4603,1,NA,O_Image_25.bmp-O_Lure_25.bmp,1,0,2
338,6,47,laundry,NA,2,2,1.2963,1,NA,O_Image_47.bmp-O_Lure_47.bmp,1,1,2
339,6,66,crumb,NA,2,2,2.1386,1,NA,S_Image_66.bmp-S_Lure_66.bmp,1,1,3
340,6,6,army,NA,1,1,0.98685,1,NA,F_Image_6.bmp-F_Lure_6.bmp,1,0,1
341,6,62,drizzle,NA,1,1,1.5936,1,NA,S_Image_62.bmp-S_Lure_62.bmp,1,0,3
342,6,45,honeymoon,NA,1,1,0.65678,1,NA,O_Image_45.bmp-O_Lure_45.bmp,1,1,2
343,6,32,lever,NA,2,2,1.4447,1,NA,O_Image_32.bmp-O_Lure_32.bmp,1,0,2
344,6,54,attack,NA,2,2,1.0092,1,NA,S_Image_54.bmp-S_Lure_54.bmp,1,0,3
345,6,37,fire,NA,2,2,0.83903,1,NA,O_Image_37.bmp-O_Lure_37.bmp,1,1,2
346,6,33,hostage,NA,1,2,1.004,0,NA,O_Image_33.bmp-O_Lure_33.bmp,1,1,2
347,6,70,kiss,NA,2,2,1.3299,1,NA,S_Image_70.bmp-S_Lure_70.bmp,1,1,3
348,6,56,antique,NA,1,2,1.6585,0,NA,S_Image_56.bmp-S_Lure_56.bmp,1,1,3
349,6,17,cone,NA,1,1,1.135,1,NA,F_Image_17.bmp-F_Lure_17.bmp,1,0,1
350,6,36,flood,NA,2,2,1.1035,1,NA,O_Image_36.bmp-O_Lure_36.bmp,1,1,2
351,6,1,asphalt,NA,1,1,1.0256,1,NA,F_Image_1.bmp-F_Lure_1.bmp,1,0,1
352,6,26,animal,NA,2,2,1.0066,1,NA,O_Image_26.bmp-O_Lure_26.bmp,1,0,2
353,6,24,lever,NA,2,2,0.86072,1,NA,F_Image_24.bmp-F_Lure_24.bmp,1,0,1
354,6,72,fuel,NA,2,2,1.9849,1,NA,S_Image_72.bmp-S_Lure_72.bmp,1,0,3
355,6,31,corpse,NA,2,2,1.4474,1,NA,O_Image_31.bmp-O_Lure_31.bmp,1,1,2
356,6,64,harem,NA,1,1,1.3716,1,NA,S_Image_64.bmp-S_Lure_64.bmp,1,0,3
357,6,30,galaxy,NA,2,2,0.69936,1,NA,O_Image_30.bmp-O_Lure_30.bmp,1,0,2
358,6,27,black,NA,2,2,0.76486,1,NA,O_Image_27.bmp-O_Lure_27.bmp,1,0,2
359,6,40,ghost,NA,2,2,1.2844,1,NA,O_Image_40.bmp-O_Lure_40.bmp,1,1,2
360,6,14,angel,NA,1,1,1.1347,1,NA,F_Image_14.bmp-F_Lure_14.bmp,1,0,1
361,6,50,arch,NA,1,1,1.7677,1,NA,S_Image_50.bmp-S_Lure_50.bmp,1,1,3
362,6,59,cone,NA,1,1,1.0151,1,NA,S_Image_59.bmp-S_Lure_59.bmp,1,0,3
363,6,8,bubble,NA,2,2,0.96472,1,NA,F_Image_8.bmp-F_Lure_8.bmp,1,0,1
364,6,28,alcohol,NA,2,2,1.0037,1,NA,O_Image_28.bmp-O_Lure_28.bmp,1,1,2
365,6,23,giant,NA,2,2,1.2341,1,NA,F_Image_23.bmp-F_Lure_23.bmp,1,0,1
366,6,35,board,NA,1,2,0.93451,0,NA,O_Image_35.bmp-O_Lure_35.bmp,1,1,2
367,6,20,kiss,NA,1,1,1.0314,1,NA,F_Image_20.bmp-F_Lure_20.bmp,1,1,1
368,6,4,alcohol,NA,1,1,1.052,1,NA,F_Image_4.bmp-F_Lure_4.bmp,1,1,1
369,6,16,fire,NA,2,2,0.95219,1,NA,F_Image_16.bmp-F_Lure_16.bmp,1,1,1
370,6,69,corner,NA,1,2,1.8482,0,NA,S_Image_69.bmp-S_Lure_69.bmp,1,0,3
371,6,60,cloud,NA,1,1,0.84393,1,NA,S_Image_60.bmp-S_Lure_60.bmp,1,1,3
372,6,46,drizzle,NA,2,2,1.0329,1,NA,O_Image_46.bmp-O_Lure_46.bmp,1,0,2
373,6,2,galaxy,NA,1,1,1.2453,1,NA,F_Image_2.bmp-F_Lure_2.bmp,1,0,1
374,6,12,fuel,NA,2,2,0.95443,1,NA,F_Image_12.bmp-F_Lure_12.bmp,1,0,1
375,6,42,breakfast,NA,1,1,0.7142,1,NA,O_Image_42.bmp-O_Lure_42.bmp,1,1,2
376,6,11,arrow,NA,1,2,1.5477,0,NA,F_Image_11.bmp-F_Lure_11.bmp,1,0,1
377,6,29,hurricane,NA,2,2,0.77145,1,NA,O_Image_29.bmp-O_Lure_29.bmp,1,1,2
378,6,44,magnet,NA,1,1,0.81892,1,NA,O_Image_44.bmp-O_Lure_44.bmp,1,1,2
379,6,68,asphalt,NA,1,1,1.4801,1,NA,S_Image_68.bmp-S_Lure_68.bmp,1,0,3
380,6,55,black,NA,1,1,0.97094,1,NA,S_Image_55.bmp-S_Lure_55.bmp,1,0,3
381,6,39,corner,NA,2,2,0.98637,1,NA,O_Image_39.bmp-O_Lure_39.bmp,1,0,2
382,6,67,board,NA,1,1,0.92918,1,NA,S_Image_67.bmp-S_Lure_67.bmp,1,1,3
383,6,5,harem,NA,1,1,1.1304,1,NA,F_Image_5.bmp-F_Lure_5.bmp,1,0,1
384,6,49,marble,NA,1,1,1.1953,1,NA,S_Image_49.bmp-S_Lure_49.bmp,1,0,3
385,6,18,antique,NA,1,1,1.042,1,NA,F_Image_18.bmp-F_Lure_18.bmp,1,1,1
386,6,21,animal,NA,2,2,0.75102,1,NA,F_Image_21.bmp-F_Lure_21.bmp,1,0,1
387,6,10,laundry,NA,1,1,0.92648,1,NA,F_Image_10.bmp-F_Lure_10.bmp,1,1,1
388,6,51,magnet,NA,2,2,0.94402,1,NA,S_Image_51.bmp-S_Lure_51.bmp,1,1,3
389,6,57,alien,NA,2,2,1.0492,1,NA,S_Image_57.bmp-S_Lure_57.bmp,1,1,3
390,6,22,arch,NA,1,1,0.98078,1,NA,F_Image_22.bmp-F_Lure_22.bmp,1,1,1
391,6,52,breakfast,NA,2,2,1.5714,1,NA,S_Image_52.bmp-S_Lure_52.bmp,1,1,3
392,6,38,marble,NA,2,2,0.72309,1,NA,O_Image_38.bmp-O_Lure_38.bmp,1,0,2
393,6,41,crumb,NA,1,1,0.82835,1,NA,O_Image_41.bmp-O_Lure_41.bmp,1,1,2
394,6,3,alien,NA,2,2,0.79392,1,NA,F_Image_3.bmp-F_Lure_3.bmp,1,1,1
395,6,43,bubble,NA,1,1,0.64821,1,NA,O_Image_43.bmp-O_Lure_43.bmp,1,0,2
396,6,7,corpse,NA,2,2,1.1402,1,NA,F_Image_7.bmp-F_Lure_7.bmp,1,1,1
