Trial,Cond,ImageNum,Cue,Block,Correct,Response,RT,Accuracy,CueRep,fName,ImageType,Baseline,Category
1,1,57,NA,NA,NA,1,5.9003,NA,NA,S_Lure_57.bmp,0,1,3
2,1,18,NA,NA,NA,1,2.0137,NA,NA,F_Lure_18.bmp,0,1,1
3,1,40,NA,NA,NA,1,2.0438,NA,NA,O_Image_40.bmp,1,1,2
4,1,5,NA,NA,NA,1,2.4953,NA,NA,F_Lure_5.bmp,0,0,1
5,1,57,NA,NA,NA,1,1.1442,NA,NA,S_Image_57.bmp,2,1,3
6,1,27,NA,NA,NA,1,0.91082,NA,NA,O_Lure_27.bmp,0,0,2
7,1,67,NA,NA,NA,1,1.6234,NA,NA,S_Lure_67.bmp,0,1,3
8,1,25,NA,NA,NA,1,1.2902,NA,NA,O_Lure_25.bmp,0,0,2
9,1,49,NA,NA,NA,1,0.92437,NA,NA,S_Lure_49.bmp,0,0,3
10,1,28,NA,NA,NA,1,1.0676,NA,NA,O_Lure_28.bmp,0,1,2
11,1,43,NA,NA,NA,1,0.9497,NA,NA,O_Lure_43.bmp,0,0,2
12,1,37,NA,NA,NA,1,1.5731,NA,NA,O_Image_37.bmp,2,1,2
13,1,30,NA,NA,NA,1,1.1459,NA,NA,O_Lure_30.bmp,0,0,2
14,1,61,NA,NA,NA,1,3.7512,NA,NA,S_Image_61.bmp,2,0,3
15,1,60,NA,NA,NA,1,1.47,NA,NA,S_Lure_60.bmp,0,1,3
16,1,67,NA,NA,NA,1,0.28145,NA,NA,S_Image_67.bmp,2,1,3
17,1,24,NA,NA,NA,1,1.2829,NA,NA,F_Image_24.bmp,2,0,1
18,1,32,NA,NA,NA,1,0.98018,NA,NA,O_Image_32.bmp,1,0,2
19,1,44,NA,NA,NA,1,0.32952,NA,NA,O_Lure_44.bmp,0,1,2
20,1,65,NA,NA,NA,1,0.55239,NA,NA,S_Image_65.bmp,2,1,3
21,1,34,NA,NA,NA,1,0.60563,NA,NA,O_Lure_34.bmp,0,0,2
22,1,59,NA,NA,NA,1,1.3057,NA,NA,S_Lure_59.bmp,0,0,3
23,1,20,NA,NA,NA,1,1.0911,NA,NA,F_Lure_20.bmp,0,1,1
24,1,14,NA,NA,NA,1,0.65317,NA,NA,F_Image_14.bmp,1,0,1
25,1,45,NA,NA,NA,1,0.32874,NA,NA,O_Lure_45.bmp,0,1,2
26,1,15,NA,NA,NA,1,2.3199,NA,NA,F_Lure_15.bmp,0,0,1
27,1,20,NA,NA,NA,1,2.2881,NA,NA,F_Image_20.bmp,2,1,1
28,1,12,NA,NA,NA,1,0.51361,NA,NA,F_Image_12.bmp,2,0,1
29,1,4,NA,NA,NA,1,0.38499,NA,NA,F_Lure_4.bmp,0,1,1
30,1,62,NA,NA,NA,1,1.4142,NA,NA,S_Lure_62.bmp,0,0,3
31,1,7,NA,NA,NA,1,1.859,NA,NA,F_Image_7.bmp,1,1,1
32,1,31,NA,NA,NA,1,1.189,NA,NA,O_Image_31.bmp,2,1,2
33,1,13,NA,NA,NA,1,1.9112,NA,NA,F_Image_13.bmp,2,1,1
34,1,15,NA,NA,NA,1,3.4784,NA,NA,F_Image_15.bmp,2,0,1
35,1,10,NA,NA,NA,2,2.0391,NA,NA,F_Image_10.bmp,2,1,1
36,1,50,NA,NA,NA,1,2.0819,NA,NA,S_Image_50.bmp,2,1,3
37,1,45,NA,NA,NA,1,0.74076,NA,NA,O_Image_45.bmp,1,1,2
38,1,16,NA,NA,NA,1,1.3128,NA,NA,F_Lure_16.bmp,0,1,1
39,1,25,NA,NA,NA,1,0.86288,NA,NA,O_Image_25.bmp,2,0,2
40,1,62,NA,NA,NA,1,0.39165,NA,NA,S_Image_62.bmp,1,0,3
41,1,28,NA,NA,NA,1,1.6117,NA,NA,O_Image_28.bmp,1,1,2
42,1,38,NA,NA,NA,1,1.2483,NA,NA,O_Image_38.bmp,1,0,2
43,1,69,NA,NA,NA,1,2.627,NA,NA,S_Lure_69.bmp,0,0,3
44,1,55,NA,NA,NA,1,0.70272,NA,NA,S_Lure_55.bmp,0,0,3
45,1,33,NA,NA,NA,1,0.68596,NA,NA,O_Image_33.bmp,1,1,2
46,1,8,NA,NA,NA,1,1.0619,NA,NA,F_Image_8.bmp,1,0,1
47,1,17,NA,NA,NA,1,1.2227,NA,NA,F_Image_17.bmp,1,0,1
48,1,34,NA,NA,NA,1,1.2589,NA,NA,O_Image_34.bmp,1,0,2
49,1,2,NA,NA,NA,1,1.6528,NA,NA,F_Lure_2.bmp,0,0,1
50,1,63,NA,NA,NA,1,0.6555,NA,NA,S_Image_63.bmp,1,1,3
51,1,64,NA,NA,NA,1,0.74633,NA,NA,S_Lure_64.bmp,0,0,3
52,1,1,NA,NA,NA,1,0.36127,NA,NA,F_Image_1.bmp,2,0,1
53,1,55,NA,NA,NA,1,0.46911,NA,NA,S_Image_55.bmp,1,0,3
54,1,61,NA,NA,NA,1,0.2938,NA,NA,S_Lure_61.bmp,0,0,3
55,1,46,NA,NA,NA,1,0.20582,NA,NA,O_Lure_46.bmp,0,0,2
56,1,54,NA,NA,NA,1,0.61786,NA,NA,S_Image_54.bmp,1,0,3
57,1,50,NA,NA,NA,1,0.18921,NA,NA,S_Lure_50.bmp,0,1,3
58,1,26,NA,NA,NA,1,0.60193,NA,NA,O_Image_26.bmp,2,0,2
59,1,52,NA,NA,NA,1,0.52596,NA,NA,S_Lure_52.bmp,0,1,3
60,1,70,NA,NA,NA,1,1.9167,NA,NA,S_Lure_70.bmp,0,1,3
61,1,35,NA,NA,NA,1,0.76414,NA,NA,O_Image_35.bmp,1,1,2
62,1,19,NA,NA,NA,1,0.37754,NA,NA,F_Image_19.bmp,1,0,1
63,1,56,NA,NA,NA,1,1.3262,NA,NA,S_Lure_56.bmp,0,1,3
64,1,41,NA,NA,NA,1,0.75775,NA,NA,O_Lure_41.bmp,0,1,2
65,1,16,NA,NA,NA,1,0.37778,NA,NA,F_Image_16.bmp,1,1,1
66,1,23,NA,NA,NA,1,0.48642,NA,NA,F_Image_23.bmp,2,0,1
67,1,40,NA,NA,NA,1,0.14261,NA,NA,O_Lure_40.bmp,0,1,2
68,1,46,NA,NA,NA,1,0.94973,NA,NA,O_Image_46.bmp,2,0,2
69,1,9,NA,NA,NA,1,0.63591,NA,NA,F_Image_9.bmp,2,1,1
70,1,24,NA,NA,NA,1,0.48671,NA,NA,F_Lure_24.bmp,0,0,1
71,1,8,NA,NA,NA,1,2.1198,NA,NA,F_Lure_8.bmp,0,0,1
72,1,43,NA,NA,NA,1,0.63934,NA,NA,O_Image_43.bmp,2,0,2
73,1,51,NA,NA,NA,1,0.70617,NA,NA,S_Image_51.bmp,1,1,3
74,1,63,NA,NA,NA,1,0.6814,NA,NA,S_Lure_63.bmp,0,1,3
75,1,19,NA,NA,NA,1,0.57753,NA,NA,F_Lure_19.bmp,0,0,1
76,1,69,NA,NA,NA,1,0.69436,NA,NA,S_Image_69.bmp,1,0,3
77,1,7,NA,NA,NA,2,1.0763,NA,NA,F_Lure_7.bmp,0,1,1
78,1,23,NA,NA,NA,1,4.5341,NA,NA,F_Lure_23.bmp,0,0,1
79,1,36,NA,NA,NA,1,1.8924,NA,NA,O_Image_36.bmp,2,1,2
80,1,36,NA,NA,NA,1,0.40322,NA,NA,O_Lure_36.bmp,0,1,2
81,1,49,NA,NA,NA,1,0.095966,NA,NA,S_Image_49.bmp,2,0,3
82,1,29,NA,NA,NA,1,0.30413,NA,NA,O_Lure_29.bmp,0,1,2
83,1,51,NA,NA,NA,1,0.32803,NA,NA,S_Lure_51.bmp,0,1,3
84,1,48,NA,NA,NA,1,0.27746,NA,NA,O_Image_48.bmp,2,0,2
85,1,71,NA,NA,NA,2,0.46873,NA,NA,S_Lure_71.bmp,0,0,3
86,1,4,NA,NA,NA,2,0.077553,NA,NA,F_Image_4.bmp,2,1,1
87,1,14,NA,NA,NA,2,0.50889,NA,NA,F_Lure_14.bmp,0,0,1
88,1,44,NA,NA,NA,2,0.19766,NA,NA,O_Image_44.bmp,2,1,2
89,1,6,NA,NA,NA,2,0.32305,NA,NA,F_Image_6.bmp,1,0,1
90,1,27,NA,NA,NA,2,0.2984,NA,NA,O_Image_27.bmp,2,0,2
91,1,29,NA,NA,NA,2,0.32247,NA,NA,O_Image_29.bmp,2,1,2
92,1,10,NA,NA,NA,2,0.049834,NA,NA,F_Lure_10.bmp,0,1,1
93,1,11,NA,NA,NA,2,0.59524,NA,NA,F_Lure_11.bmp,0,0,1
94,1,5,NA,NA,NA,2,0.19798,NA,NA,F_Image_5.bmp,1,0,1
95,1,52,NA,NA,NA,2,1.3619,NA,NA,S_Image_52.bmp,2,1,3
96,1,54,NA,NA,NA,2,0.00014036,NA,NA,S_Lure_54.bmp,0,0,3
97,1,38,NA,NA,NA,2,0.24067,NA,NA,O_Lure_38.bmp,0,0,2
98,1,68,NA,NA,NA,2,0.252,NA,NA,S_Image_68.bmp,1,0,3
99,1,53,NA,NA,NA,2,0.39874,NA,NA,S_Lure_53.bmp,0,1,3
100,1,35,NA,NA,NA,2,0.32415,NA,NA,O_Lure_35.bmp,0,1,2
101,1,53,NA,NA,NA,2,0.16432,NA,NA,S_Image_53.bmp,2,1,3
102,1,64,NA,NA,NA,2,0.45695,NA,NA,S_Image_64.bmp,2,0,3
103,1,26,NA,NA,NA,2,0.64366,NA,NA,O_Lure_26.bmp,0,0,2
104,1,3,NA,NA,NA,2,3.4934,NA,NA,F_Lure_3.bmp,0,1,1
105,1,30,NA,NA,NA,2,0.50978,NA,NA,O_Image_30.bmp,1,0,2
106,1,22,NA,NA,NA,2,0.43721,NA,NA,F_Lure_22.bmp,0,1,1
107,1,71,NA,NA,NA,2,0.51915,NA,NA,S_Image_71.bmp,2,0,3
108,1,66,NA,NA,NA,2,0.21324,NA,NA,S_Image_66.bmp,2,1,3
109,1,33,NA,NA,NA,2,0.049286,NA,NA,O_Lure_33.bmp,0,1,2
110,1,42,NA,NA,NA,2,0.14609,NA,NA,O_Image_42.bmp,1,1,2
111,1,68,NA,NA,NA,2,0.01619,NA,NA,S_Lure_68.bmp,0,0,3
112,1,6,NA,NA,NA,2,0.42683,NA,NA,F_Lure_6.bmp,0,0,1
113,1,70,NA,NA,NA,2,0.43693,NA,NA,S_Image_70.bmp,1,1,3
114,1,60,NA,NA,NA,2,0.00011893,NA,NA,S_Image_60.bmp,1,1,3
115,1,39,NA,NA,NA,2,0.37684,NA,NA,O_Lure_39.bmp,0,0,2
116,1,39,NA,NA,NA,2,0.36566,NA,NA,O_Image_39.bmp,2,0,2
117,1,48,NA,NA,NA,2,0.21161,NA,NA,O_Lure_48.bmp,0,0,2
118,1,13,NA,NA,NA,2,0.23105,NA,NA,F_Lure_13.bmp,0,1,1
119,1,32,NA,NA,NA,2,0.30572,NA,NA,O_Lure_32.bmp,0,0,2
120,1,31,NA,NA,NA,2,0.37775,NA,NA,O_Lure_31.bmp,0,1,2
121,1,42,NA,NA,NA,2,0.42244,NA,NA,O_Lure_42.bmp,0,1,2
122,1,47,NA,NA,NA,2,0.68126,NA,NA,O_Lure_47.bmp,0,1,2
123,1,11,NA,NA,NA,2,0.87465,NA,NA,F_Image_11.bmp,1,0,1
124,1,12,NA,NA,NA,2,1.1319,NA,NA,F_Lure_12.bmp,0,0,1
125,1,3,NA,NA,NA,2,0.70747,NA,NA,F_Image_3.bmp,1,1,1
126,1,58,NA,NA,NA,2,0.79479,NA,NA,S_Image_58.bmp,1,1,3
127,1,17,NA,NA,NA,2,0.63815,NA,NA,F_Lure_17.bmp,0,0,1
128,1,1,NA,NA,NA,2,0.3197,NA,NA,F_Lure_1.bmp,0,0,1
129,1,72,NA,NA,NA,2,0.43826,NA,NA,S_Image_72.bmp,1,0,3
130,1,9,NA,NA,NA,2,0.3132,NA,NA,F_Lure_9.bmp,0,1,1
131,1,21,NA,NA,NA,2,0.2557,NA,NA,F_Image_21.bmp,1,0,1
132,1,59,NA,NA,NA,2,0.12905,NA,NA,S_Image_59.bmp,2,0,3
133,1,66,NA,NA,NA,2,0.10376,NA,NA,S_Lure_66.bmp,0,1,3
134,1,18,NA,NA,NA,2,0.8099,NA,NA,F_Image_18.bmp,2,1,1
135,1,41,NA,NA,NA,2,0.33314,NA,NA,O_Image_41.bmp,1,1,2
136,1,2,NA,NA,NA,2,0.32397,NA,NA,F_Image_2.bmp,2,0,1
137,1,72,NA,NA,NA,2,0.29065,NA,NA,S_Lure_72.bmp,0,0,3
138,1,65,NA,NA,NA,2,0.41877,NA,NA,S_Lure_65.bmp,0,1,3
139,1,47,NA,NA,NA,2,0.34946,NA,NA,O_Image_47.bmp,1,1,2
140,1,37,NA,NA,NA,2,0.78677,NA,NA,O_Lure_37.bmp,0,1,2
141,1,21,NA,NA,NA,2,0.39825,NA,NA,F_Lure_21.bmp,0,0,1
142,1,22,NA,NA,NA,2,0.73022,NA,NA,F_Image_22.bmp,1,1,1
143,1,58,NA,NA,NA,2,0.8235,NA,NA,S_Lure_58.bmp,0,1,3
144,1,56,NA,NA,NA,2,0.66703,NA,NA,S_Image_56.bmp,1,1,3
145,2,58,hurricane,1,1,1,3.1166,1,NA,S_Image_58.bmp-S_Lure_58.bmp,1,1,3
146,2,8,bubble,1,1,1,1.2886,1,NA,F_Image_8.bmp-F_Lure_8.bmp,1,0,1
147,2,51,magnet,1,1,1,1.3705,1,NA,S_Image_51.bmp-S_Lure_51.bmp,1,1,3
148,2,42,breakfast,1,1,1,0.86515,1,NA,O_Image_42.bmp-O_Lure_42.bmp,1,1,2
149,2,19,costume,1,1,1,0.97195,1,NA,F_Image_19.bmp-F_Lure_19.bmp,1,0,1
150,2,63,flood,1,1,1,1.1468,1,NA,S_Image_63.bmp-S_Lure_63.bmp,1,1,3
151,2,5,harem,1,2,2,1.4744,1,NA,F_Image_5.bmp-F_Lure_5.bmp,1,0,1
152,2,72,fuel,1,1,1,1.573,1,NA,S_Image_72.bmp-S_Lure_72.bmp,1,0,3
153,2,32,lever,1,2,1,0.84393,0,NA,O_Image_32.bmp-O_Lure_32.bmp,1,0,2
154,2,55,black,1,2,2,1.3996,1,NA,S_Image_55.bmp-S_Lure_55.bmp,1,0,3
155,2,30,galaxy,1,2,2,0.94155,1,NA,O_Image_30.bmp-O_Lure_30.bmp,1,0,2
156,2,54,attack,1,1,1,1.3573,1,NA,S_Image_54.bmp-S_Lure_54.bmp,1,0,3
157,3,32,lever,1,2,0,3.4996,0,NA,O_Image_32.bmp-O_Lure_32.bmp,1,0,2
158,3,63,flood,1,1,1,1.3174,1,NA,S_Image_63.bmp-S_Lure_63.bmp,1,1,3
159,3,54,attack,1,1,1,0.72651,1,NA,S_Image_54.bmp-S_Lure_54.bmp,1,0,3
160,3,51,magnet,1,1,1,0.7035,1,NA,S_Image_51.bmp-S_Lure_51.bmp,1,1,3
161,3,19,costume,1,1,1,0.54441,1,NA,F_Image_19.bmp-F_Lure_19.bmp,1,0,1
162,3,5,harem,1,1,1,0.95247,1,NA,F_Image_5.bmp-F_Lure_5.bmp,1,0,1
163,3,72,fuel,1,1,1,1.3118,1,NA,S_Image_72.bmp-S_Lure_72.bmp,1,0,3
164,3,58,hurricane,1,2,2,1.305,1,NA,S_Image_58.bmp-S_Lure_58.bmp,1,1,3
165,3,42,breakfast,1,1,1,0.8265,1,NA,O_Image_42.bmp-O_Lure_42.bmp,1,1,2
166,3,30,galaxy,1,2,2,0.759,1,NA,O_Image_30.bmp-O_Lure_30.bmp,1,0,2
167,3,8,bubble,1,2,2,1.3746,1,NA,F_Image_8.bmp-F_Lure_8.bmp,1,0,1
168,3,55,black,1,2,2,1.0692,1,NA,S_Image_55.bmp-S_Lure_55.bmp,1,0,3
169,2,69,corner,2,1,1,1.5437,1,NA,S_Image_69.bmp-S_Lure_69.bmp,1,0,3
170,2,40,ghost,2,2,2,1.9515,1,NA,O_Image_40.bmp-O_Lure_40.bmp,1,1,2
171,2,47,laundry,2,2,2,0.74292,1,NA,O_Image_47.bmp-O_Lure_47.bmp,1,1,2
172,2,7,corpse,2,1,1,0.7832,1,NA,F_Image_7.bmp-F_Lure_7.bmp,1,1,1
173,2,22,arch,2,2,2,1.0373,1,NA,F_Image_22.bmp-F_Lure_22.bmp,1,1,1
174,2,3,alien,2,1,1,0.87366,1,NA,F_Image_3.bmp-F_Lure_3.bmp,1,1,1
175,2,70,kiss,2,2,2,1.7803,1,NA,S_Image_70.bmp-S_Lure_70.bmp,1,1,3
176,2,68,asphalt,2,1,1,1.0102,1,NA,S_Image_68.bmp-S_Lure_68.bmp,1,0,3
177,2,62,drizzle,2,1,1,1.1597,1,NA,S_Image_62.bmp-S_Lure_62.bmp,1,0,3
178,2,33,hostage,2,1,1,0.95896,1,NA,O_Image_33.bmp-O_Lure_33.bmp,1,1,2
179,2,60,cloud,2,1,2,2.4541,0,NA,S_Image_60.bmp-S_Lure_60.bmp,1,1,3
180,2,45,honeymoon,2,2,2,1.0741,1,NA,O_Image_45.bmp-O_Lure_45.bmp,1,1,2
181,3,62,drizzle,2,1,1,1.6759,1,NA,S_Image_62.bmp-S_Lure_62.bmp,1,0,3
182,3,69,corner,2,2,2,1.1749,1,NA,S_Image_69.bmp-S_Lure_69.bmp,1,0,3
183,3,22,arch,2,1,1,1.7742,1,NA,F_Image_22.bmp-F_Lure_22.bmp,1,1,1
184,3,70,kiss,2,2,2,1.3721,1,NA,S_Image_70.bmp-S_Lure_70.bmp,1,1,3
185,3,3,alien,2,1,1,0.54748,1,NA,F_Image_3.bmp-F_Lure_3.bmp,1,1,1
186,3,7,corpse,2,1,1,0.8345,1,NA,F_Image_7.bmp-F_Lure_7.bmp,1,1,1
187,3,47,laundry,2,1,1,1.9744,1,NA,O_Image_47.bmp-O_Lure_47.bmp,1,1,2
188,3,33,hostage,2,2,2,0.68523,1,NA,O_Image_33.bmp-O_Lure_33.bmp,1,1,2
189,3,40,ghost,2,2,2,1.9037,1,NA,O_Image_40.bmp-O_Lure_40.bmp,1,1,2
190,3,68,asphalt,2,2,2,1.1609,1,NA,S_Image_68.bmp-S_Lure_68.bmp,1,0,3
191,3,60,cloud,2,1,1,0.57637,1,NA,S_Image_60.bmp-S_Lure_60.bmp,1,1,3
192,3,45,honeymoon,2,2,2,0.61491,1,NA,O_Image_45.bmp-O_Lure_45.bmp,1,1,2
193,2,28,alcohol,3,2,1,3.0673,0,NA,O_Image_28.bmp-O_Lure_28.bmp,1,1,2
194,2,35,board,3,1,1,1.8385,1,NA,O_Image_35.bmp-O_Lure_35.bmp,1,1,2
195,2,16,fire,3,2,2,1.6103,1,NA,F_Image_16.bmp-F_Lure_16.bmp,1,1,1
196,2,38,marble,3,1,1,0.61562,1,NA,O_Image_38.bmp-O_Lure_38.bmp,1,0,2
197,2,6,army,3,2,2,2.1163,1,NA,F_Image_6.bmp-F_Lure_6.bmp,1,0,1
198,2,34,giant,3,2,2,1.5891,1,NA,O_Image_34.bmp-O_Lure_34.bmp,1,0,2
199,2,11,arrow,3,1,1,1.6035,1,NA,F_Image_11.bmp-F_Lure_11.bmp,1,0,1
200,2,56,antique,3,2,2,2.7049,1,NA,S_Image_56.bmp-S_Lure_56.bmp,1,1,3
201,2,21,animal,3,2,2,2.0426,1,NA,F_Image_21.bmp-F_Lure_21.bmp,1,0,1
202,2,41,crumb,3,2,2,0.75848,1,NA,O_Image_41.bmp-O_Lure_41.bmp,1,1,2
203,2,17,cone,3,2,2,1.3738,1,NA,F_Image_17.bmp-F_Lure_17.bmp,1,0,1
204,2,14,angel,3,1,1,1.0287,1,NA,F_Image_14.bmp-F_Lure_14.bmp,1,0,1
205,3,41,crumb,3,1,1,1.1758,1,NA,O_Image_41.bmp-O_Lure_41.bmp,1,1,2
206,3,56,antique,3,1,1,1.2868,1,NA,S_Image_56.bmp-S_Lure_56.bmp,1,1,3
207,3,35,board,3,1,1,1.3611,1,NA,O_Image_35.bmp-O_Lure_35.bmp,1,1,2
208,3,6,army,3,1,1,1.5194,1,NA,F_Image_6.bmp-F_Lure_6.bmp,1,0,1
209,3,34,giant,3,1,1,1.3923,1,NA,O_Image_34.bmp-O_Lure_34.bmp,1,0,2
210,3,16,fire,3,1,1,0.79048,1,NA,F_Image_16.bmp-F_Lure_16.bmp,1,1,1
211,3,17,cone,3,1,0,3.4998,0,NA,F_Image_17.bmp-F_Lure_17.bmp,1,0,1
212,3,14,angel,3,2,2,2.1024,1,NA,F_Image_14.bmp-F_Lure_14.bmp,1,0,1
213,3,28,alcohol,3,2,2,1.0554,1,NA,O_Image_28.bmp-O_Lure_28.bmp,1,1,2
214,3,38,marble,3,2,2,1.363,1,NA,O_Image_38.bmp-O_Lure_38.bmp,1,0,2
215,3,11,arrow,3,2,2,1.8977,1,NA,F_Image_11.bmp-F_Lure_11.bmp,1,0,1
216,3,21,animal,3,2,2,0.94746,1,NA,F_Image_21.bmp-F_Lure_21.bmp,1,0,1
217,4,50,arch,1,2,1,1.7535,0,NA,S_Image_50.bmp-S_Lure_50.bmp,2,1,3
218,4,67,board,1,1,1,0.96106,1,NA,S_Image_67.bmp-S_Lure_67.bmp,2,1,3
219,4,65,ghost,1,2,2,1.0163,1,NA,S_Image_65.bmp-S_Lure_65.bmp,2,1,3
220,4,2,galaxy,1,2,2,1.1166,1,NA,F_Image_2.bmp-F_Lure_2.bmp,2,0,1
221,4,13,cloud,1,2,2,3.0854,1,NA,F_Image_13.bmp-F_Lure_13.bmp,2,1,1
222,4,46,drizzle,1,2,2,0.9594,1,NA,O_Image_46.bmp-O_Lure_46.bmp,2,0,2
223,4,61,army,1,2,2,1.0226,1,NA,S_Image_61.bmp-S_Lure_61.bmp,2,0,3
224,4,15,attack,1,1,1,0.89979,1,NA,F_Image_15.bmp-F_Lure_15.bmp,2,0,1
225,4,20,kiss,1,1,1,1.5332,1,NA,F_Image_20.bmp-F_Lure_20.bmp,2,1,1
226,4,37,fire,1,1,1,0.98116,1,NA,O_Image_37.bmp-O_Lure_37.bmp,2,1,2
227,4,24,lever,1,2,2,1.0756,1,NA,F_Image_24.bmp-F_Lure_24.bmp,2,0,1
228,4,9,hostage,1,2,2,1.1981,1,NA,F_Image_9.bmp-F_Lure_9.bmp,2,1,1
229,4,31,corpse,2,2,2,0.67487,1,NA,O_Image_31.bmp-O_Lure_31.bmp,2,1,2
230,4,10,laundry,2,2,2,1.2138,1,NA,F_Image_10.bmp-F_Lure_10.bmp,2,1,1
231,4,12,fuel,2,2,2,1.1464,1,NA,F_Image_12.bmp-F_Lure_12.bmp,2,0,1
232,4,29,hurricane,2,2,2,1.1057,1,NA,O_Image_29.bmp-O_Lure_29.bmp,2,1,2
233,4,48,arrow,2,2,2,1.0837,1,NA,O_Image_48.bmp-O_Lure_48.bmp,2,0,2
234,4,25,angel,2,2,2,1.4699,1,NA,O_Image_25.bmp-O_Lure_25.bmp,2,0,2
235,4,36,flood,2,2,2,1.6244,1,NA,O_Image_36.bmp-O_Lure_36.bmp,2,1,2
236,4,71,costume,2,2,1,1.3493,0,NA,S_Image_71.bmp-S_Lure_71.bmp,2,0,3
237,4,49,marble,2,1,2,1.2523,0,NA,S_Image_49.bmp-S_Lure_49.bmp,2,0,3
238,4,43,bubble,2,2,2,1.1997,1,NA,O_Image_43.bmp-O_Lure_43.bmp,2,0,2
239,4,39,corner,2,2,2,0.87728,1,NA,O_Image_39.bmp-O_Lure_39.bmp,2,0,2
240,4,4,alcohol,2,2,2,1.7201,1,NA,F_Image_4.bmp-F_Lure_4.bmp,2,1,1
241,4,52,breakfast,3,1,2,1.2806,0,NA,S_Image_52.bmp-S_Lure_52.bmp,2,1,3
242,4,59,cone,3,2,2,1.3463,1,NA,S_Image_59.bmp-S_Lure_59.bmp,2,0,3
243,4,64,harem,3,2,2,1.4418,1,NA,S_Image_64.bmp-S_Lure_64.bmp,2,0,3
244,4,57,alien,3,2,2,1.1742,1,NA,S_Image_57.bmp-S_Lure_57.bmp,2,1,3
245,4,23,giant,3,2,2,1.3645,1,NA,F_Image_23.bmp-F_Lure_23.bmp,2,0,1
246,4,66,crumb,3,2,0,3.4995,0,NA,S_Image_66.bmp-S_Lure_66.bmp,2,1,3
247,4,44,magnet,3,2,2,0.99689,1,NA,O_Image_44.bmp-O_Lure_44.bmp,2,1,2
248,4,18,antique,3,2,2,1.9945,1,NA,F_Image_18.bmp-F_Lure_18.bmp,2,1,1
249,4,53,honeymoon,3,2,2,0.88001,1,NA,S_Image_53.bmp-S_Lure_53.bmp,2,1,3
250,4,27,black,3,2,1,0.79388,0,NA,O_Image_27.bmp-O_Lure_27.bmp,2,0,2
251,4,26,animal,3,1,2,1.0561,0,NA,O_Image_26.bmp-O_Lure_26.bmp,2,0,2
252,4,1,asphalt,3,1,1,0.98761,1,NA,F_Image_1.bmp-F_Lure_1.bmp,2,0,1
253,5,32.24,lever,NA,2,0,2.5002,0,1,O_Image_32.bmp-F_Lure_24.bmp,NA,0,2.1
254,5,11.48,arrow,NA,1,2,0.39999,0,1,F_Image_11.bmp-O_Lure_48.bmp,NA,0,1.2
255,5,21.26,animal,NA,1,4,0.57759,0,1,F_Image_21.bmp-O_Lure_26.bmp,NA,0,1.2
256,5,72.12,fuel,NA,3,3,0.66693,1,1,S_Image_72.bmp-F_Lure_12.bmp,NA,0,3.1
257,5,34.23,giant,NA,2,1,0.35655,0,1,O_Image_34.bmp-F_Lure_23.bmp,NA,0,2.1
258,5,5.64,harem,NA,1,4,0.32626,0,1,F_Image_5.bmp-S_Lure_64.bmp,NA,0,1.3
259,5,69.39,corner,NA,3,3,0.45624,1,1,S_Image_69.bmp-O_Lure_39.bmp,NA,0,3.2
260,5,34.23,giant,NA,2,2,0.38585,1,2,O_Image_34.bmp-F_Lure_23.bmp,NA,0,2.1
261,5,62.46,drizzle,NA,3,3,0.33977,1,1,S_Image_62.bmp-O_Lure_46.bmp,NA,0,3.2
262,5,6.61,army,NA,1,1,0.38135,1,1,F_Image_6.bmp-S_Lure_61.bmp,NA,0,1.3
263,5,55.27,black,NA,3,3,1.2231,1,1,S_Image_55.bmp-O_Lure_27.bmp,NA,0,3.2
264,5,21.26,animal,NA,1,1,0.40912,1,2,F_Image_21.bmp-O_Lure_26.bmp,NA,0,1.2
265,5,6.61,army,NA,1,1,0.37887,1,2,F_Image_6.bmp-S_Lure_61.bmp,NA,0,1.3
266,5,11.48,arrow,NA,1,3,0.34015,0,2,F_Image_11.bmp-O_Lure_48.bmp,NA,0,1.2
267,5,69.39,corner,NA,3,1,1.126,0,2,S_Image_69.bmp-O_Lure_39.bmp,NA,0,3.2
268,5,17.59,cone,NA,1,1,0.32761,1,1,F_Image_17.bmp-S_Lure_59.bmp,NA,0,1.3
269,5,54.15,attack,NA,3,3,0.90486,1,1,S_Image_54.bmp-F_Lure_15.bmp,NA,0,3.1
270,5,72.12,fuel,NA,3,3,0.3392,1,2,S_Image_72.bmp-F_Lure_12.bmp,NA,0,3.1
271,5,54.15,attack,NA,3,0,2.5001,0,2,S_Image_54.bmp-F_Lure_15.bmp,NA,0,3.1
272,5,38.49,marble,NA,2,2,0.35131,1,1,O_Image_38.bmp-S_Lure_49.bmp,NA,0,2.3
273,5,68.01,asphalt,NA,3,3,0.3606,1,1,S_Image_68.bmp-F_Lure_1.bmp,NA,0,3.1
274,5,54.15,attack,NA,3,3,1.0502,1,3,S_Image_54.bmp-F_Lure_15.bmp,NA,0,3.1
275,5,38.49,marble,NA,2,2,0.32352,1,2,O_Image_38.bmp-S_Lure_49.bmp,NA,0,2.3
276,5,14.25,angel,NA,1,1,0.32597,1,1,F_Image_14.bmp-O_Lure_25.bmp,NA,0,1.2
277,5,30.02,galaxy,NA,2,2,0.3271,1,1,O_Image_30.bmp-F_Lure_2.bmp,NA,0,2.1
278,5,6.61,army,NA,1,1,0.39254,1,3,F_Image_6.bmp-S_Lure_61.bmp,NA,0,1.3
279,5,8.43,bubble,NA,1,1,0.50598,1,1,F_Image_8.bmp-O_Lure_43.bmp,NA,0,1.2
280,5,14.25,angel,NA,1,1,0.39609,1,2,F_Image_14.bmp-O_Lure_25.bmp,NA,0,1.2
281,5,62.46,drizzle,NA,3,3,0.37331,1,2,S_Image_62.bmp-O_Lure_46.bmp,NA,0,3.2
282,5,5.64,harem,NA,1,3,1.5596,0,2,F_Image_5.bmp-S_Lure_64.bmp,NA,0,1.3
283,5,55.27,black,NA,3,3,0.25775,1,2,S_Image_55.bmp-O_Lure_27.bmp,NA,0,3.2
284,5,32.24,lever,NA,2,1,0.35584,0,2,O_Image_32.bmp-F_Lure_24.bmp,NA,0,2.1
285,5,62.46,drizzle,NA,3,3,0.34968,1,3,S_Image_62.bmp-O_Lure_46.bmp,NA,0,3.2
286,5,69.39,corner,NA,3,3,0.61531,1,3,S_Image_69.bmp-O_Lure_39.bmp,NA,0,3.2
287,5,5.64,harem,NA,1,2,0.64895,0,3,F_Image_5.bmp-S_Lure_64.bmp,NA,0,1.3
288,5,68.01,asphalt,NA,3,3,0.33008,1,2,S_Image_68.bmp-F_Lure_1.bmp,NA,0,3.1
289,5,21.26,animal,NA,1,0,2.5004,0,3,F_Image_21.bmp-O_Lure_26.bmp,NA,0,1.2
290,5,11.48,arrow,NA,1,1,0.2456,1,3,F_Image_11.bmp-O_Lure_48.bmp,NA,0,1.2
291,5,30.02,galaxy,NA,2,2,0.38337,1,2,O_Image_30.bmp-F_Lure_2.bmp,NA,0,2.1
292,5,19.71,costume,NA,1,1,0.32059,1,1,F_Image_19.bmp-S_Lure_71.bmp,NA,0,1.3
293,5,14.25,angel,NA,1,1,0.27485,1,3,F_Image_14.bmp-O_Lure_25.bmp,NA,0,1.2
294,5,54.15,attack,NA,3,3,0.34101,1,4,S_Image_54.bmp-F_Lure_15.bmp,NA,0,3.1
295,5,8.43,bubble,NA,1,1,0.27083,1,2,F_Image_8.bmp-O_Lure_43.bmp,NA,0,1.2
296,5,11.48,arrow,NA,1,1,0.28916,1,4,F_Image_11.bmp-O_Lure_48.bmp,NA,0,1.2
297,5,8.43,bubble,NA,1,1,0.28304,1,3,F_Image_8.bmp-O_Lure_43.bmp,NA,0,1.2
298,5,30.02,galaxy,NA,2,1,1.4527,0,3,O_Image_30.bmp-F_Lure_2.bmp,NA,0,2.1
299,5,55.27,black,NA,3,4,0.49411,0,3,S_Image_55.bmp-O_Lure_27.bmp,NA,0,3.2
300,5,8.43,bubble,NA,1,1,0.2875,1,4,F_Image_8.bmp-O_Lure_43.bmp,NA,0,1.2
301,5,19.71,costume,NA,1,1,0.32151,1,2,F_Image_19.bmp-S_Lure_71.bmp,NA,0,1.3
302,5,14.25,angel,NA,1,1,0.2514,1,4,F_Image_14.bmp-O_Lure_25.bmp,NA,0,1.2
303,5,5.64,harem,NA,1,2,0.32499,0,4,F_Image_5.bmp-S_Lure_64.bmp,NA,0,1.3
304,5,62.46,drizzle,NA,3,3,0.49519,1,4,S_Image_62.bmp-O_Lure_46.bmp,NA,0,3.2
305,5,68.01,asphalt,NA,3,3,0.52046,1,3,S_Image_68.bmp-F_Lure_1.bmp,NA,0,3.1
306,5,19.71,costume,NA,1,1,0.35463,1,3,F_Image_19.bmp-S_Lure_71.bmp,NA,0,1.3
307,5,72.12,fuel,NA,3,3,0.33302,1,3,S_Image_72.bmp-F_Lure_12.bmp,NA,0,3.1
308,5,17.59,cone,NA,1,1,0.32626,1,2,F_Image_17.bmp-S_Lure_59.bmp,NA,0,1.3
309,5,19.71,costume,NA,1,1,0.32775,1,4,F_Image_19.bmp-S_Lure_71.bmp,NA,0,1.3
310,5,32.24,lever,NA,2,1,0.8895,0,3,O_Image_32.bmp-F_Lure_24.bmp,NA,0,2.1
311,5,69.39,corner,NA,3,0,2.5004,0,4,S_Image_69.bmp-O_Lure_39.bmp,NA,0,3.2
312,5,34.23,giant,NA,2,1,0.42927,0,3,O_Image_34.bmp-F_Lure_23.bmp,NA,0,2.1
313,5,17.59,cone,NA,1,1,0.27071,1,3,F_Image_17.bmp-S_Lure_59.bmp,NA,0,1.3
314,5,32.24,lever,NA,2,3,0.33687,0,4,O_Image_32.bmp-F_Lure_24.bmp,NA,0,2.1
315,5,38.49,marble,NA,2,2,0.531,1,3,O_Image_38.bmp-S_Lure_49.bmp,NA,0,2.3
316,5,68.01,asphalt,NA,3,3,0.32418,1,4,S_Image_68.bmp-F_Lure_1.bmp,NA,0,3.1
317,5,30.02,galaxy,NA,2,2,0.3345,1,4,O_Image_30.bmp-F_Lure_2.bmp,NA,0,2.1
318,5,6.61,army,NA,1,1,0.42383,1,4,F_Image_6.bmp-S_Lure_61.bmp,NA,0,1.3
319,5,34.23,giant,NA,2,2,0.41791,1,4,O_Image_34.bmp-F_Lure_23.bmp,NA,0,2.1
320,5,21.26,animal,NA,1,1,0.27546,1,4,F_Image_21.bmp-O_Lure_26.bmp,NA,0,1.2
321,5,38.49,marble,NA,2,2,0.41276,1,4,O_Image_38.bmp-S_Lure_49.bmp,NA,0,2.3
322,5,17.59,cone,NA,1,1,1.4221,1,4,F_Image_17.bmp-S_Lure_59.bmp,NA,0,1.3
323,5,72.12,fuel,NA,3,3,0.41654,1,4,S_Image_72.bmp-F_Lure_12.bmp,NA,0,3.1
324,5,55.27,black,NA,3,3,0.36172,1,4,S_Image_55.bmp-O_Lure_27.bmp,NA,0,3.2
325,6,15,attack,NA,2,2,3.4471,1,NA,F_Image_15.bmp-F_Lure_15.bmp,1,0,1
326,6,61,army,NA,2,2,1.5871,1,NA,S_Image_61.bmp-S_Lure_61.bmp,1,0,3
327,6,65,ghost,NA,1,0,3.5001,0,NA,S_Image_65.bmp-S_Lure_65.bmp,1,1,3
328,6,13,cloud,NA,1,2,1.4361,0,NA,F_Image_13.bmp-F_Lure_13.bmp,1,1,1
329,6,63,flood,NA,2,0,3.4996,0,NA,S_Image_63.bmp-S_Lure_63.bmp,1,1,3
330,6,34,giant,NA,1,0,3.4996,0,NA,O_Image_34.bmp-O_Lure_34.bmp,1,0,2
331,6,71,costume,NA,2,0,3.4998,0,NA,S_Image_71.bmp-S_Lure_71.bmp,1,0,3
332,6,58,hurricane,NA,2,0,3.4999,0,NA,S_Image_58.bmp-S_Lure_58.bmp,1,1,3
333,6,9,hostage,NA,1,0,3.5,0,NA,F_Image_9.bmp-F_Lure_9.bmp,1,1,1
334,6,53,honeymoon,NA,1,1,1.7953,1,NA,S_Image_53.bmp-S_Lure_53.bmp,1,1,3
335,6,48,arrow,NA,2,2,1.1056,1,NA,O_Image_48.bmp-O_Lure_48.bmp,1,0,2
336,6,19,costume,NA,1,1,1.3959,1,NA,F_Image_19.bmp-F_Lure_19.bmp,1,0,1
337,6,25,angel,NA,2,2,3.4415,1,NA,O_Image_25.bmp-O_Lure_25.bmp,1,0,2
338,6,47,laundry,NA,2,2,1.4386,1,NA,O_Image_47.bmp-O_Lure_47.bmp,1,1,2
339,6,66,crumb,NA,2,2,1.475,1,NA,S_Image_66.bmp-S_Lure_66.bmp,1,1,3
340,6,6,army,NA,1,1,0.71888,1,NA,F_Image_6.bmp-F_Lure_6.bmp,1,0,1
341,6,62,drizzle,NA,1,1,1.7357,1,NA,S_Image_62.bmp-S_Lure_62.bmp,1,0,3
342,6,45,honeymoon,NA,1,1,0.62453,1,NA,O_Image_45.bmp-O_Lure_45.bmp,1,1,2
343,6,32,lever,NA,2,2,1.3022,1,NA,O_Image_32.bmp-O_Lure_32.bmp,1,0,2
344,6,54,attack,NA,2,2,3.0158,1,NA,S_Image_54.bmp-S_Lure_54.bmp,1,0,3
345,6,37,fire,NA,2,2,0.92527,1,NA,O_Image_37.bmp-O_Lure_37.bmp,1,1,2
346,6,33,hostage,NA,1,1,0.81506,1,NA,O_Image_33.bmp-O_Lure_33.bmp,1,1,2
347,6,70,kiss,NA,2,2,1.0284,1,NA,S_Image_70.bmp-S_Lure_70.bmp,1,1,3
348,6,56,antique,NA,1,1,1.5698,1,NA,S_Image_56.bmp-S_Lure_56.bmp,1,1,3
349,6,17,cone,NA,1,1,2.7849,1,NA,F_Image_17.bmp-F_Lure_17.bmp,1,0,1
350,6,36,flood,NA,2,1,1.8795,0,NA,O_Image_36.bmp-O_Lure_36.bmp,1,1,2
351,6,1,asphalt,NA,1,1,0.6107,1,NA,F_Image_1.bmp-F_Lure_1.bmp,1,0,1
352,6,26,animal,NA,2,2,1.3443,1,NA,O_Image_26.bmp-O_Lure_26.bmp,1,0,2
353,6,24,lever,NA,2,2,0.7929,1,NA,F_Image_24.bmp-F_Lure_24.bmp,1,0,1
354,6,72,fuel,NA,2,2,2.1278,1,NA,S_Image_72.bmp-S_Lure_72.bmp,1,0,3
355,6,31,corpse,NA,2,2,0.60108,1,NA,O_Image_31.bmp-O_Lure_31.bmp,1,1,2
356,6,64,harem,NA,1,1,0.62349,1,NA,S_Image_64.bmp-S_Lure_64.bmp,1,0,3
357,6,30,galaxy,NA,2,2,0.63652,1,NA,O_Image_30.bmp-O_Lure_30.bmp,1,0,2
358,6,27,black,NA,2,2,0.99318,1,NA,O_Image_27.bmp-O_Lure_27.bmp,1,0,2
359,6,40,ghost,NA,2,2,0.72788,1,NA,O_Image_40.bmp-O_Lure_40.bmp,1,1,2
360,6,14,angel,NA,1,1,0.76165,1,NA,F_Image_14.bmp-F_Lure_14.bmp,1,0,1
361,6,50,arch,NA,1,2,1.1454,0,NA,S_Image_50.bmp-S_Lure_50.bmp,1,1,3
362,6,59,cone,NA,1,1,1.77,1,NA,S_Image_59.bmp-S_Lure_59.bmp,1,0,3
363,6,8,bubble,NA,2,2,1.0973,1,NA,F_Image_8.bmp-F_Lure_8.bmp,1,0,1
364,6,28,alcohol,NA,2,2,0.81178,1,NA,O_Image_28.bmp-O_Lure_28.bmp,1,1,2
365,6,23,giant,NA,2,1,1.8574,0,NA,F_Image_23.bmp-F_Lure_23.bmp,1,0,1
366,6,35,board,NA,1,1,0.65371,1,NA,O_Image_35.bmp-O_Lure_35.bmp,1,1,2
367,6,20,kiss,NA,1,1,1.7214,1,NA,F_Image_20.bmp-F_Lure_20.bmp,1,1,1
368,6,4,alcohol,NA,1,1,0.93914,1,NA,F_Image_4.bmp-F_Lure_4.bmp,1,1,1
369,6,16,fire,NA,2,2,0.90753,1,NA,F_Image_16.bmp-F_Lure_16.bmp,1,1,1
370,6,69,corner,NA,1,1,0.80557,1,NA,S_Image_69.bmp-S_Lure_69.bmp,1,0,3
371,6,60,cloud,NA,1,1,0.89999,1,NA,S_Image_60.bmp-S_Lure_60.bmp,1,1,3
372,6,46,drizzle,NA,2,2,0.56579,1,NA,O_Image_46.bmp-O_Lure_46.bmp,1,0,2
373,6,2,galaxy,NA,1,1,1.141,1,NA,F_Image_2.bmp-F_Lure_2.bmp,1,0,1
374,6,12,fuel,NA,2,1,1.6618,0,NA,F_Image_12.bmp-F_Lure_12.bmp,1,0,1
375,6,42,breakfast,NA,1,1,0.59425,1,NA,O_Image_42.bmp-O_Lure_42.bmp,1,1,2
376,6,11,arrow,NA,1,1,2.3526,1,NA,F_Image_11.bmp-F_Lure_11.bmp,1,0,1
377,6,29,hurricane,NA,2,2,0.74474,1,NA,O_Image_29.bmp-O_Lure_29.bmp,1,1,2
378,6,44,magnet,NA,1,1,1.1536,1,NA,O_Image_44.bmp-O_Lure_44.bmp,1,1,2
379,6,68,asphalt,NA,1,1,1.2651,1,NA,S_Image_68.bmp-S_Lure_68.bmp,1,0,3
380,6,55,black,NA,1,1,0.86864,1,NA,S_Image_55.bmp-S_Lure_55.bmp,1,0,3
381,6,39,corner,NA,2,2,0.58395,1,NA,O_Image_39.bmp-O_Lure_39.bmp,1,0,2
382,6,67,board,NA,1,1,0.81474,1,NA,S_Image_67.bmp-S_Lure_67.bmp,1,1,3
383,6,5,harem,NA,1,1,1.9959,1,NA,F_Image_5.bmp-F_Lure_5.bmp,1,0,1
384,6,49,marble,NA,1,1,1.2744,1,NA,S_Image_49.bmp-S_Lure_49.bmp,1,0,3
385,6,18,antique,NA,1,1,1.1658,1,NA,F_Image_18.bmp-F_Lure_18.bmp,1,1,1
386,6,21,animal,NA,2,2,0.74077,1,NA,F_Image_21.bmp-F_Lure_21.bmp,1,0,1
387,6,10,laundry,NA,1,1,1.4057,1,NA,F_Image_10.bmp-F_Lure_10.bmp,1,1,1
388,6,51,magnet,NA,2,2,1.0355,1,NA,S_Image_51.bmp-S_Lure_51.bmp,1,1,3
389,6,57,alien,NA,2,1,1.5284,0,NA,S_Image_57.bmp-S_Lure_57.bmp,1,1,3
390,6,22,arch,NA,1,1,2.3138,1,NA,F_Image_22.bmp-F_Lure_22.bmp,1,1,1
391,6,52,breakfast,NA,2,1,1.6271,0,NA,S_Image_52.bmp-S_Lure_52.bmp,1,1,3
392,6,38,marble,NA,2,2,0.8568,1,NA,O_Image_38.bmp-O_Lure_38.bmp,1,0,2
393,6,41,crumb,NA,1,1,0.94871,1,NA,O_Image_41.bmp-O_Lure_41.bmp,1,1,2
394,6,3,alien,NA,2,2,0.79652,1,NA,F_Image_3.bmp-F_Lure_3.bmp,1,1,1
395,6,43,bubble,NA,1,1,0.6903,1,NA,O_Image_43.bmp-O_Lure_43.bmp,1,0,2
396,6,7,corpse,NA,2,2,1.3894,1,NA,F_Image_7.bmp-F_Lure_7.bmp,1,1,1
