Trial,Cond,ImageNum,Cue,Block,Correct,Response,RT,Accuracy,CueRep,fName,ImageType,Baseline,Category
1,1,57,NA,NA,NA,1,1.6426,NA,NA,S_Lure_57.bmp,0,1,3
2,1,18,NA,NA,NA,1,3.0303,NA,NA,F_Lure_18.bmp,0,1,1
3,1,40,NA,NA,NA,1,2.3467,NA,NA,O_Image_40.bmp,1,1,2
4,1,5,NA,NA,NA,1,1.93,NA,NA,F_Lure_5.bmp,0,0,1
5,1,57,NA,NA,NA,1,0.98505,NA,NA,S_Image_57.bmp,2,1,3
6,1,27,NA,NA,NA,1,14.9163,NA,NA,O_Lure_27.bmp,0,0,2
7,1,67,NA,NA,NA,1,6.7095,NA,NA,S_Lure_67.bmp,0,1,3
8,1,25,NA,NA,NA,1,3.4373,NA,NA,O_Lure_25.bmp,0,0,2
9,1,49,NA,NA,NA,1,0.75313,NA,NA,S_Lure_49.bmp,0,0,3
10,1,28,NA,NA,NA,1,0.18382,NA,NA,O_Lure_28.bmp,0,1,2
11,1,43,NA,NA,NA,1,1.0359,NA,NA,O_Lure_43.bmp,0,0,2
12,1,37,NA,NA,NA,1,0.19027,NA,NA,O_Image_37.bmp,2,1,2
13,1,30,NA,NA,NA,1,0.57023,NA,NA,O_Lure_30.bmp,0,0,2
14,1,61,NA,NA,NA,1,0.38364,NA,NA,S_Image_61.bmp,2,0,3
15,1,60,NA,NA,NA,1,0.66054,NA,NA,S_Lure_60.bmp,0,1,3
16,1,67,NA,NA,NA,1,1.1591,NA,NA,S_Image_67.bmp,2,1,3
17,1,24,NA,NA,NA,1,0.91735,NA,NA,F_Image_24.bmp,2,0,1
18,1,32,NA,NA,NA,1,1.5328,NA,NA,O_Image_32.bmp,1,0,2
19,1,44,NA,NA,NA,1,0.22771,NA,NA,O_Lure_44.bmp,0,1,2
20,1,65,NA,NA,NA,1,0.00011772,NA,NA,S_Image_65.bmp,2,1,3
21,1,34,NA,NA,NA,1,1.0971,NA,NA,O_Lure_34.bmp,0,0,2
22,1,59,NA,NA,NA,1,0.26664,NA,NA,S_Lure_59.bmp,0,0,3
23,1,20,NA,NA,NA,1,1.0601,NA,NA,F_Lure_20.bmp,0,1,1
24,1,14,NA,NA,NA,1,0.029549,NA,NA,F_Image_14.bmp,1,0,1
25,1,45,NA,NA,NA,1,1.0402,NA,NA,O_Lure_45.bmp,0,1,2
26,1,15,NA,NA,NA,1,1.091,NA,NA,F_Lure_15.bmp,0,0,1
27,1,20,NA,NA,NA,1,0.13186,NA,NA,F_Image_20.bmp,2,1,1
28,1,12,NA,NA,NA,1,1.1461,NA,NA,F_Image_12.bmp,2,0,1
29,1,4,NA,NA,NA,1,0.67345,NA,NA,F_Lure_4.bmp,0,1,1
30,1,62,NA,NA,NA,1,0.57159,NA,NA,S_Lure_62.bmp,0,0,3
31,1,7,NA,NA,NA,1,3.1602,NA,NA,F_Image_7.bmp,1,1,1
32,1,31,NA,NA,NA,1,0.2073,NA,NA,O_Image_31.bmp,2,1,2
33,1,13,NA,NA,NA,1,0.38074,NA,NA,F_Image_13.bmp,2,1,1
34,1,15,NA,NA,NA,1,0.50493,NA,NA,F_Image_15.bmp,2,0,1
35,1,10,NA,NA,NA,1,0.46431,NA,NA,F_Image_10.bmp,2,1,1
36,1,50,NA,NA,NA,1,0.88833,NA,NA,S_Image_50.bmp,2,1,3
37,1,45,NA,NA,NA,1,0.47389,NA,NA,O_Image_45.bmp,1,1,2
38,1,16,NA,NA,NA,1,1.2289,NA,NA,F_Lure_16.bmp,0,1,1
39,1,25,NA,NA,NA,1,0.22428,NA,NA,O_Image_25.bmp,2,0,2
40,1,62,NA,NA,NA,1,0.49169,NA,NA,S_Image_62.bmp,1,0,3
41,1,28,NA,NA,NA,1,0.93172,NA,NA,O_Image_28.bmp,1,1,2
42,1,38,NA,NA,NA,1,0.00011591,NA,NA,O_Image_38.bmp,1,0,2
43,1,69,NA,NA,NA,1,0.76121,NA,NA,S_Lure_69.bmp,0,0,3
44,1,55,NA,NA,NA,1,1.4307,NA,NA,S_Lure_55.bmp,0,0,3
45,1,33,NA,NA,NA,1,0.75356,NA,NA,O_Image_33.bmp,1,1,2
46,1,8,NA,NA,NA,1,0.38518,NA,NA,F_Image_8.bmp,1,0,1
47,1,17,NA,NA,NA,1,0.92504,NA,NA,F_Image_17.bmp,1,0,1
48,1,34,NA,NA,NA,1,0.28254,NA,NA,O_Image_34.bmp,1,0,2
49,1,2,NA,NA,NA,1,1.1781,NA,NA,F_Lure_2.bmp,0,0,1
50,1,63,NA,NA,NA,1,0.93491,NA,NA,S_Image_63.bmp,1,1,3
51,1,64,NA,NA,NA,1,1.5877,NA,NA,S_Lure_64.bmp,0,0,3
52,1,1,NA,NA,NA,1,0.15058,NA,NA,F_Image_1.bmp,2,0,1
53,1,55,NA,NA,NA,1,1.0681,NA,NA,S_Image_55.bmp,1,0,3
54,1,61,NA,NA,NA,1,0.55546,NA,NA,S_Lure_61.bmp,0,0,3
55,1,46,NA,NA,NA,1,0.032904,NA,NA,O_Lure_46.bmp,0,0,2
56,1,54,NA,NA,NA,1,0.00012527,NA,NA,S_Image_54.bmp,1,0,3
57,1,50,NA,NA,NA,1,0.51107,NA,NA,S_Lure_50.bmp,0,1,3
58,1,26,NA,NA,NA,1,0.74191,NA,NA,O_Image_26.bmp,2,0,2
59,1,52,NA,NA,NA,1,1.108,NA,NA,S_Lure_52.bmp,0,1,3
60,1,70,NA,NA,NA,1,3.1787,NA,NA,S_Lure_70.bmp,0,1,3
61,1,35,NA,NA,NA,1,2.5676,NA,NA,O_Image_35.bmp,1,1,2
62,1,19,NA,NA,NA,1,1.3006,NA,NA,F_Image_19.bmp,1,0,1
63,1,56,NA,NA,NA,1,0.19804,NA,NA,S_Lure_56.bmp,0,1,3
64,1,41,NA,NA,NA,1,1.6254,NA,NA,O_Lure_41.bmp,0,1,2
65,1,16,NA,NA,NA,1,0.57254,NA,NA,F_Image_16.bmp,1,1,1
66,1,23,NA,NA,NA,1,0.47185,NA,NA,F_Image_23.bmp,2,0,1
67,1,40,NA,NA,NA,1,0.28076,NA,NA,O_Lure_40.bmp,0,1,2
68,1,46,NA,NA,NA,1,0.856,NA,NA,O_Image_46.bmp,2,0,2
69,1,9,NA,NA,NA,1,1.2481,NA,NA,F_Image_9.bmp,2,1,1
70,1,24,NA,NA,NA,1,0.00011742,NA,NA,F_Lure_24.bmp,0,0,1
71,1,8,NA,NA,NA,1,0.69896,NA,NA,F_Lure_8.bmp,0,0,1
72,1,43,NA,NA,NA,1,1.1298,NA,NA,O_Image_43.bmp,2,0,2
73,1,51,NA,NA,NA,1,2.3605,NA,NA,S_Image_51.bmp,1,1,3
74,1,63,NA,NA,NA,1,11.2804,NA,NA,S_Lure_63.bmp,0,1,3
75,1,19,NA,NA,NA,1,8.8256,NA,NA,F_Lure_19.bmp,0,0,1
76,1,69,NA,NA,NA,1,10.7799,NA,NA,S_Image_69.bmp,1,0,3
77,1,7,NA,NA,NA,1,0.00011802,NA,NA,F_Lure_7.bmp,0,1,1
78,1,23,NA,NA,NA,1,0.00011832,NA,NA,F_Lure_23.bmp,0,0,1
79,1,36,NA,NA,NA,1,0.48122,NA,NA,O_Image_36.bmp,2,1,2
80,1,36,NA,NA,NA,1,0.45604,NA,NA,O_Lure_36.bmp,0,1,2
81,1,49,NA,NA,NA,1,1.1368,NA,NA,S_Image_49.bmp,2,0,3
82,1,29,NA,NA,NA,1,0.00011772,NA,NA,O_Lure_29.bmp,0,1,2
83,1,51,NA,NA,NA,1,0.0030915,NA,NA,S_Lure_51.bmp,0,1,3
84,1,48,NA,NA,NA,1,1.6371,NA,NA,O_Image_48.bmp,2,0,2
85,1,71,NA,NA,NA,1,0.94271,NA,NA,S_Lure_71.bmp,0,0,3
86,1,4,NA,NA,NA,1,0.00011772,NA,NA,F_Image_4.bmp,2,1,1
87,1,14,NA,NA,NA,1,0.24106,NA,NA,F_Lure_14.bmp,0,0,1
88,1,44,NA,NA,NA,1,0.0036656,NA,NA,O_Image_44.bmp,2,1,2
89,1,6,NA,NA,NA,1,2.7089,NA,NA,F_Image_6.bmp,1,0,1
90,1,27,NA,NA,NA,1,0.020737,NA,NA,O_Image_27.bmp,2,0,2
91,1,29,NA,NA,NA,1,1.9093,NA,NA,O_Image_29.bmp,2,1,2
92,1,10,NA,NA,NA,1,0.73974,NA,NA,F_Lure_10.bmp,0,1,1
93,1,11,NA,NA,NA,1,0.54442,NA,NA,F_Lure_11.bmp,0,0,1
94,1,5,NA,NA,NA,1,0.58919,NA,NA,F_Image_5.bmp,1,0,1
95,1,52,NA,NA,NA,1,0.32004,NA,NA,S_Image_52.bmp,2,1,3
96,1,54,NA,NA,NA,1,1.4388,NA,NA,S_Lure_54.bmp,0,0,3
97,1,38,NA,NA,NA,1,0.62484,NA,NA,O_Lure_38.bmp,0,0,2
98,1,68,NA,NA,NA,1,0.82764,NA,NA,S_Image_68.bmp,1,0,3
99,1,53,NA,NA,NA,1,2.0931,NA,NA,S_Lure_53.bmp,0,1,3
100,1,35,NA,NA,NA,1,0.7401,NA,NA,O_Lure_35.bmp,0,1,2
101,1,53,NA,NA,NA,1,0.27278,NA,NA,S_Image_53.bmp,2,1,3
102,1,64,NA,NA,NA,1,0.81561,NA,NA,S_Image_64.bmp,2,0,3
103,1,26,NA,NA,NA,1,1.1285,NA,NA,O_Lure_26.bmp,0,0,2
104,1,3,NA,NA,NA,1,0.74991,NA,NA,F_Lure_3.bmp,0,1,1
105,1,30,NA,NA,NA,1,0.88262,NA,NA,O_Image_30.bmp,1,0,2
106,1,22,NA,NA,NA,1,1.6102,NA,NA,F_Lure_22.bmp,0,1,1
107,1,71,NA,NA,NA,1,0.19834,NA,NA,S_Image_71.bmp,2,0,3
108,1,66,NA,NA,NA,1,2.9771,NA,NA,S_Image_66.bmp,2,1,3
109,1,33,NA,NA,NA,1,0.86943,NA,NA,O_Lure_33.bmp,0,1,2
110,1,42,NA,NA,NA,1,1.2948,NA,NA,O_Image_42.bmp,1,1,2
111,1,68,NA,NA,NA,1,1.8522,NA,NA,S_Lure_68.bmp,0,0,3
112,1,6,NA,NA,NA,1,0.97378,NA,NA,F_Lure_6.bmp,0,0,1
113,1,70,NA,NA,NA,1,0.56933,NA,NA,S_Image_70.bmp,1,1,3
114,1,60,NA,NA,NA,1,1.4067,NA,NA,S_Image_60.bmp,1,1,3
115,1,39,NA,NA,NA,1,0.58567,NA,NA,O_Lure_39.bmp,0,0,2
116,1,39,NA,NA,NA,1,0.94848,NA,NA,O_Image_39.bmp,2,0,2
117,1,48,NA,NA,NA,1,0.89657,NA,NA,O_Lure_48.bmp,0,0,2
118,1,13,NA,NA,NA,1,0.382,NA,NA,F_Lure_13.bmp,0,1,1
119,1,32,NA,NA,NA,1,1.0174,NA,NA,O_Lure_32.bmp,0,0,2
120,1,31,NA,NA,NA,1,0.94627,NA,NA,O_Lure_31.bmp,0,1,2
121,1,42,NA,NA,NA,1,1.6971,NA,NA,O_Lure_42.bmp,0,1,2
122,1,47,NA,NA,NA,1,0.31261,NA,NA,O_Lure_47.bmp,0,1,2
123,1,11,NA,NA,NA,1,4.8631,NA,NA,F_Image_11.bmp,1,0,1
124,1,12,NA,NA,NA,1,1.0976,NA,NA,F_Lure_12.bmp,0,0,1
125,1,3,NA,NA,NA,1,0.83916,NA,NA,F_Image_3.bmp,1,1,1
126,1,58,NA,NA,NA,1,0.33725,NA,NA,S_Image_58.bmp,1,1,3
127,1,17,NA,NA,NA,1,0.00011712,NA,NA,F_Lure_17.bmp,0,0,1
128,1,1,NA,NA,NA,1,1.3136,NA,NA,F_Lure_1.bmp,0,0,1
129,1,72,NA,NA,NA,1,1.9043,NA,NA,S_Image_72.bmp,1,0,3
130,1,9,NA,NA,NA,1,1.2233,NA,NA,F_Lure_9.bmp,0,1,1
131,1,21,NA,NA,NA,1,2.3213,NA,NA,F_Image_21.bmp,1,0,1
132,1,59,NA,NA,NA,1,2.0615,NA,NA,S_Image_59.bmp,2,0,3
133,1,66,NA,NA,NA,1,1.5566,NA,NA,S_Lure_66.bmp,0,1,3
134,1,18,NA,NA,NA,1,0.47408,NA,NA,F_Image_18.bmp,2,1,1
135,1,41,NA,NA,NA,1,1.6334,NA,NA,O_Image_41.bmp,1,1,2
136,1,2,NA,NA,NA,1,0.31494,NA,NA,F_Image_2.bmp,2,0,1
137,1,72,NA,NA,NA,1,2.1677,NA,NA,S_Lure_72.bmp,0,0,3
138,1,65,NA,NA,NA,1,0.54782,NA,NA,S_Lure_65.bmp,0,1,3
139,1,47,NA,NA,NA,1,0.25671,NA,NA,O_Image_47.bmp,1,1,2
140,1,37,NA,NA,NA,1,1.3914,NA,NA,O_Lure_37.bmp,0,1,2
141,1,21,NA,NA,NA,1,0.72247,NA,NA,F_Lure_21.bmp,0,0,1
142,1,22,NA,NA,NA,1,1.0897,NA,NA,F_Image_22.bmp,1,1,1
143,1,58,NA,NA,NA,1,0.91386,NA,NA,S_Lure_58.bmp,0,1,3
144,1,56,NA,NA,NA,1,0.00012104,NA,NA,S_Image_56.bmp,1,1,3
145,2,58,hurricane,1,1,1,2.9367,1,NA,S_Image_58.bmp-S_Lure_58.bmp,1,1,3
146,2,8,bubble,1,1,1,1.7473,1,NA,F_Image_8.bmp-F_Lure_8.bmp,1,0,1
147,2,51,magnet,1,1,2,2.2743,0,NA,S_Image_51.bmp-S_Lure_51.bmp,1,1,3
148,2,42,breakfast,1,1,1,1.4457,1,NA,O_Image_42.bmp-O_Lure_42.bmp,1,1,2
149,2,19,costume,1,1,1,1.2015,1,NA,F_Image_19.bmp-F_Lure_19.bmp,1,0,1
150,2,63,flood,1,1,1,1.4307,1,NA,S_Image_63.bmp-S_Lure_63.bmp,1,1,3
151,2,5,harem,1,2,1,1.9472,0,NA,F_Image_5.bmp-F_Lure_5.bmp,1,0,1
152,2,72,fuel,1,1,1,1.4188,1,NA,S_Image_72.bmp-S_Lure_72.bmp,1,0,3
153,2,32,lever,1,2,2,0.99996,1,NA,O_Image_32.bmp-O_Lure_32.bmp,1,0,2
154,2,55,black,1,2,2,1.1092,1,NA,S_Image_55.bmp-S_Lure_55.bmp,1,0,3
155,2,30,galaxy,1,2,1,0.99892,0,NA,O_Image_30.bmp-O_Lure_30.bmp,1,0,2
156,2,54,attack,1,1,1,1.2365,1,NA,S_Image_54.bmp-S_Lure_54.bmp,1,0,3
157,3,32,lever,1,2,2,0.87966,1,NA,O_Image_32.bmp-O_Lure_32.bmp,1,0,2
158,3,63,flood,1,1,1,0.88987,1,NA,S_Image_63.bmp-S_Lure_63.bmp,1,1,3
159,3,54,attack,1,1,1,0.71651,1,NA,S_Image_54.bmp-S_Lure_54.bmp,1,0,3
160,3,51,magnet,1,1,2,1.0695,0,NA,S_Image_51.bmp-S_Lure_51.bmp,1,1,3
161,3,19,costume,1,1,1,0.94418,1,NA,F_Image_19.bmp-F_Lure_19.bmp,1,0,1
162,3,5,harem,1,1,1,1.3603,1,NA,F_Image_5.bmp-F_Lure_5.bmp,1,0,1
163,3,72,fuel,1,1,1,1.336,1,NA,S_Image_72.bmp-S_Lure_72.bmp,1,0,3
164,3,58,hurricane,1,2,1,1.6321,0,NA,S_Image_58.bmp-S_Lure_58.bmp,1,1,3
165,3,42,breakfast,1,1,1,1.1965,1,NA,O_Image_42.bmp-O_Lure_42.bmp,1,1,2
166,3,30,galaxy,1,2,2,1.0019,1,NA,O_Image_30.bmp-O_Lure_30.bmp,1,0,2
167,3,8,bubble,1,2,1,1.9676,0,NA,F_Image_8.bmp-F_Lure_8.bmp,1,0,1
168,3,55,black,1,2,2,1.0065,1,NA,S_Image_55.bmp-S_Lure_55.bmp,1,0,3
169,2,69,corner,2,1,1,1.8293,1,NA,S_Image_69.bmp-S_Lure_69.bmp,1,0,3
170,2,40,ghost,2,2,2,1.0338,1,NA,O_Image_40.bmp-O_Lure_40.bmp,1,1,2
171,2,47,laundry,2,2,2,1.2215,1,NA,O_Image_47.bmp-O_Lure_47.bmp,1,1,2
172,2,7,corpse,2,1,1,1.0028,1,NA,F_Image_7.bmp-F_Lure_7.bmp,1,1,1
173,2,22,arch,2,2,2,0.85605,1,NA,F_Image_22.bmp-F_Lure_22.bmp,1,1,1
174,2,3,alien,2,1,1,1.2196,1,NA,F_Image_3.bmp-F_Lure_3.bmp,1,1,1
175,2,70,kiss,2,2,2,1.7284,1,NA,S_Image_70.bmp-S_Lure_70.bmp,1,1,3
176,2,68,asphalt,2,1,1,1.2969,1,NA,S_Image_68.bmp-S_Lure_68.bmp,1,0,3
177,2,62,drizzle,2,1,1,1.3386,1,NA,S_Image_62.bmp-S_Lure_62.bmp,1,0,3
178,2,33,hostage,2,1,1,1.2426,1,NA,O_Image_33.bmp-O_Lure_33.bmp,1,1,2
179,2,60,cloud,2,1,1,0.76689,1,NA,S_Image_60.bmp-S_Lure_60.bmp,1,1,3
180,2,45,honeymoon,2,2,2,1.5341,1,NA,O_Image_45.bmp-O_Lure_45.bmp,1,1,2
181,3,62,drizzle,2,1,1,0.98164,1,NA,S_Image_62.bmp-S_Lure_62.bmp,1,0,3
182,3,69,corner,2,2,2,0.94763,1,NA,S_Image_69.bmp-S_Lure_69.bmp,1,0,3
183,3,22,arch,2,1,1,1.1154,1,NA,F_Image_22.bmp-F_Lure_22.bmp,1,1,1
184,3,70,kiss,2,2,2,0.78009,1,NA,S_Image_70.bmp-S_Lure_70.bmp,1,1,3
185,3,3,alien,2,1,1,0.71457,1,NA,F_Image_3.bmp-F_Lure_3.bmp,1,1,1
186,3,7,corpse,2,1,1,1.1156,1,NA,F_Image_7.bmp-F_Lure_7.bmp,1,1,1
187,3,47,laundry,2,1,1,1.3085,1,NA,O_Image_47.bmp-O_Lure_47.bmp,1,1,2
188,3,33,hostage,2,2,2,2.2217,1,NA,O_Image_33.bmp-O_Lure_33.bmp,1,1,2
189,3,40,ghost,2,2,2,1.6829,1,NA,O_Image_40.bmp-O_Lure_40.bmp,1,1,2
190,3,68,asphalt,2,2,2,2.1808,1,NA,S_Image_68.bmp-S_Lure_68.bmp,1,0,3
191,3,60,cloud,2,1,1,1.2043,1,NA,S_Image_60.bmp-S_Lure_60.bmp,1,1,3
192,3,45,honeymoon,2,2,2,1.0249,1,NA,O_Image_45.bmp-O_Lure_45.bmp,1,1,2
193,2,28,alcohol,3,2,2,0.97448,1,NA,O_Image_28.bmp-O_Lure_28.bmp,1,1,2
194,2,35,board,3,1,1,0.80586,1,NA,O_Image_35.bmp-O_Lure_35.bmp,1,1,2
195,2,16,fire,3,2,2,1.315,1,NA,F_Image_16.bmp-F_Lure_16.bmp,1,1,1
196,2,38,marble,3,1,1,0.6043,1,NA,O_Image_38.bmp-O_Lure_38.bmp,1,0,2
197,2,6,army,3,2,2,0.84183,1,NA,F_Image_6.bmp-F_Lure_6.bmp,1,0,1
198,2,34,giant,3,2,2,0.71785,1,NA,O_Image_34.bmp-O_Lure_34.bmp,1,0,2
199,2,11,arrow,3,1,1,1.2072,1,NA,F_Image_11.bmp-F_Lure_11.bmp,1,0,1
200,2,56,antique,3,2,2,1.3402,1,NA,S_Image_56.bmp-S_Lure_56.bmp,1,1,3
201,2,21,animal,3,2,2,1.0124,1,NA,F_Image_21.bmp-F_Lure_21.bmp,1,0,1
202,2,41,crumb,3,2,2,0.7853,1,NA,O_Image_41.bmp-O_Lure_41.bmp,1,1,2
203,2,17,cone,3,2,2,0.99189,1,NA,F_Image_17.bmp-F_Lure_17.bmp,1,0,1
204,2,14,angel,3,1,1,0.98981,1,NA,F_Image_14.bmp-F_Lure_14.bmp,1,0,1
205,3,41,crumb,3,1,1,0.70749,1,NA,O_Image_41.bmp-O_Lure_41.bmp,1,1,2
206,3,56,antique,3,1,1,1.0449,1,NA,S_Image_56.bmp-S_Lure_56.bmp,1,1,3
207,3,35,board,3,1,1,0.63299,1,NA,O_Image_35.bmp-O_Lure_35.bmp,1,1,2
208,3,6,army,3,1,1,1.0052,1,NA,F_Image_6.bmp-F_Lure_6.bmp,1,0,1
209,3,34,giant,3,1,1,0.83461,1,NA,O_Image_34.bmp-O_Lure_34.bmp,1,0,2
210,3,16,fire,3,1,2,1.5186,0,NA,F_Image_16.bmp-F_Lure_16.bmp,1,1,1
211,3,17,cone,3,1,1,1.3355,1,NA,F_Image_17.bmp-F_Lure_17.bmp,1,0,1
212,3,14,angel,3,2,2,1.2162,1,NA,F_Image_14.bmp-F_Lure_14.bmp,1,0,1
213,3,28,alcohol,3,2,2,1.0206,1,NA,O_Image_28.bmp-O_Lure_28.bmp,1,1,2
214,3,38,marble,3,2,2,0.64991,1,NA,O_Image_38.bmp-O_Lure_38.bmp,1,0,2
215,3,11,arrow,3,2,2,1.4852,1,NA,F_Image_11.bmp-F_Lure_11.bmp,1,0,1
216,3,21,animal,3,2,2,1.6476,1,NA,F_Image_21.bmp-F_Lure_21.bmp,1,0,1
217,4,50,arch,1,2,2,2.7113,1,NA,S_Image_50.bmp-S_Lure_50.bmp,2,1,3
218,4,67,board,1,1,1,1.136,1,NA,S_Image_67.bmp-S_Lure_67.bmp,2,1,3
219,4,65,ghost,1,2,2,1.5203,1,NA,S_Image_65.bmp-S_Lure_65.bmp,2,1,3
220,4,2,galaxy,1,2,2,1.0811,1,NA,F_Image_2.bmp-F_Lure_2.bmp,2,0,1
221,4,13,cloud,1,2,2,1.1315,1,NA,F_Image_13.bmp-F_Lure_13.bmp,2,1,1
222,4,46,drizzle,1,2,2,0.77168,1,NA,O_Image_46.bmp-O_Lure_46.bmp,2,0,2
223,4,61,army,1,2,2,0.85044,1,NA,S_Image_61.bmp-S_Lure_61.bmp,2,0,3
224,4,15,attack,1,1,1,1.302,1,NA,F_Image_15.bmp-F_Lure_15.bmp,2,0,1
225,4,20,kiss,1,1,1,0.99184,1,NA,F_Image_20.bmp-F_Lure_20.bmp,2,1,1
226,4,37,fire,1,1,1,0.84591,1,NA,O_Image_37.bmp-O_Lure_37.bmp,2,1,2
227,4,24,lever,1,2,2,1.2414,1,NA,F_Image_24.bmp-F_Lure_24.bmp,2,0,1
228,4,9,hostage,1,2,2,1.4778,1,NA,F_Image_9.bmp-F_Lure_9.bmp,2,1,1
229,4,31,corpse,2,2,2,1.8648,1,NA,O_Image_31.bmp-O_Lure_31.bmp,2,1,2
230,4,10,laundry,2,2,2,1.396,1,NA,F_Image_10.bmp-F_Lure_10.bmp,2,1,1
231,4,12,fuel,2,2,2,1.0812,1,NA,F_Image_12.bmp-F_Lure_12.bmp,2,0,1
232,4,29,hurricane,2,2,2,0.83547,1,NA,O_Image_29.bmp-O_Lure_29.bmp,2,1,2
233,4,48,arrow,2,2,2,1.1599,1,NA,O_Image_48.bmp-O_Lure_48.bmp,2,0,2
234,4,25,angel,2,2,1,1.1593,0,NA,O_Image_25.bmp-O_Lure_25.bmp,2,0,2
235,4,36,flood,2,2,2,0.99939,1,NA,O_Image_36.bmp-O_Lure_36.bmp,2,1,2
236,4,71,costume,2,2,2,1.2124,1,NA,S_Image_71.bmp-S_Lure_71.bmp,2,0,3
237,4,49,marble,2,1,2,0.98604,0,NA,S_Image_49.bmp-S_Lure_49.bmp,2,0,3
238,4,43,bubble,2,2,2,0.99981,1,NA,O_Image_43.bmp-O_Lure_43.bmp,2,0,2
239,4,39,corner,2,2,2,0.65331,1,NA,O_Image_39.bmp-O_Lure_39.bmp,2,0,2
240,4,4,alcohol,2,2,2,1.1292,1,NA,F_Image_4.bmp-F_Lure_4.bmp,2,1,1
241,4,52,breakfast,3,1,1,1.0658,1,NA,S_Image_52.bmp-S_Lure_52.bmp,2,1,3
242,4,59,cone,3,2,2,1.4288,1,NA,S_Image_59.bmp-S_Lure_59.bmp,2,0,3
243,4,64,harem,3,2,2,0.92118,1,NA,S_Image_64.bmp-S_Lure_64.bmp,2,0,3
244,4,57,alien,3,2,2,1.0019,1,NA,S_Image_57.bmp-S_Lure_57.bmp,2,1,3
245,4,23,giant,3,2,2,1.2798,1,NA,F_Image_23.bmp-F_Lure_23.bmp,2,0,1
246,4,66,crumb,3,2,2,1.5137,1,NA,S_Image_66.bmp-S_Lure_66.bmp,2,1,3
247,4,44,magnet,3,2,2,0.59492,1,NA,O_Image_44.bmp-O_Lure_44.bmp,2,1,2
248,4,18,antique,3,2,2,0.86443,1,NA,F_Image_18.bmp-F_Lure_18.bmp,2,1,1
249,4,53,honeymoon,3,2,2,0.85134,1,NA,S_Image_53.bmp-S_Lure_53.bmp,2,1,3
250,4,27,black,3,2,2,1.1191,1,NA,O_Image_27.bmp-O_Lure_27.bmp,2,0,2
251,4,26,animal,3,1,1,1.4716,1,NA,O_Image_26.bmp-O_Lure_26.bmp,2,0,2
252,4,1,asphalt,3,1,2,1.2026,0,NA,F_Image_1.bmp-F_Lure_1.bmp,2,0,1
253,5,32.24,lever,NA,2,2,1.877,1,1,O_Image_32.bmp-F_Lure_24.bmp,NA,0,2.1
254,5,11.48,arrow,NA,1,4,0.71185,0,1,F_Image_11.bmp-O_Lure_48.bmp,NA,0,1.2
255,5,21.26,animal,NA,1,4,1.2653,0,1,F_Image_21.bmp-O_Lure_26.bmp,NA,0,1.2
256,5,72.12,fuel,NA,3,1,1.1152,0,1,S_Image_72.bmp-F_Lure_12.bmp,NA,0,3.1
257,5,34.23,giant,NA,2,0,2.5,0,1,O_Image_34.bmp-F_Lure_23.bmp,NA,0,2.1
258,5,5.64,harem,NA,1,2,0.55897,0,1,F_Image_5.bmp-S_Lure_64.bmp,NA,0,1.3
259,5,69.39,corner,NA,3,3,0.80859,1,1,S_Image_69.bmp-O_Lure_39.bmp,NA,0,3.2
260,5,34.23,giant,NA,2,2,0.2905,1,2,O_Image_34.bmp-F_Lure_23.bmp,NA,0,2.1
261,5,62.46,drizzle,NA,3,3,0.00011772,1,1,S_Image_62.bmp-O_Lure_46.bmp,NA,0,3.2
262,5,6.61,army,NA,1,1,0.4943,1,1,F_Image_6.bmp-S_Lure_61.bmp,NA,0,1.3
263,5,55.27,black,NA,3,4,1.0401,0,1,S_Image_55.bmp-O_Lure_27.bmp,NA,0,3.2
264,5,21.26,animal,NA,1,4,1.3781,0,2,F_Image_21.bmp-O_Lure_26.bmp,NA,0,1.2
265,5,6.61,army,NA,1,1,1.2679,1,2,F_Image_6.bmp-S_Lure_61.bmp,NA,0,1.3
266,5,11.48,arrow,NA,1,1,0.94193,1,2,F_Image_11.bmp-O_Lure_48.bmp,NA,0,1.2
267,5,69.39,corner,NA,3,2,0.51895,0,2,S_Image_69.bmp-O_Lure_39.bmp,NA,0,3.2
268,5,17.59,cone,NA,1,3,0.76065,0,1,F_Image_17.bmp-S_Lure_59.bmp,NA,0,1.3
269,5,54.15,attack,NA,3,3,1.1944,1,1,S_Image_54.bmp-F_Lure_15.bmp,NA,0,3.1
270,5,72.12,fuel,NA,3,1,0.42001,0,2,S_Image_72.bmp-F_Lure_12.bmp,NA,0,3.1
271,5,54.15,attack,NA,3,3,0.49395,1,2,S_Image_54.bmp-F_Lure_15.bmp,NA,0,3.1
272,5,38.49,marble,NA,2,2,0.47188,1,1,O_Image_38.bmp-S_Lure_49.bmp,NA,0,2.3
273,5,68.01,asphalt,NA,3,1,0.54573,0,1,S_Image_68.bmp-F_Lure_1.bmp,NA,0,3.1
274,5,54.15,attack,NA,3,3,0.57968,1,3,S_Image_54.bmp-F_Lure_15.bmp,NA,0,3.1
275,5,38.49,marble,NA,2,2,0.62915,1,2,O_Image_38.bmp-S_Lure_49.bmp,NA,0,2.3
276,5,14.25,angel,NA,1,1,0.4384,1,1,F_Image_14.bmp-O_Lure_25.bmp,NA,0,1.2
277,5,30.02,galaxy,NA,2,2,0.51278,1,1,O_Image_30.bmp-F_Lure_2.bmp,NA,0,2.1
278,5,6.61,army,NA,1,1,0.4185,1,3,F_Image_6.bmp-S_Lure_61.bmp,NA,0,1.3
279,5,8.43,bubble,NA,1,2,1.2841,0,1,F_Image_8.bmp-O_Lure_43.bmp,NA,0,1.2
280,5,14.25,angel,NA,1,1,0.53349,1,2,F_Image_14.bmp-O_Lure_25.bmp,NA,0,1.2
281,5,62.46,drizzle,NA,3,3,0.50308,1,2,S_Image_62.bmp-O_Lure_46.bmp,NA,0,3.2
282,5,5.64,harem,NA,1,1,0.40052,1,2,F_Image_5.bmp-S_Lure_64.bmp,NA,0,1.3
283,5,55.27,black,NA,3,3,0.7304,1,2,S_Image_55.bmp-O_Lure_27.bmp,NA,0,3.2
284,5,32.24,lever,NA,2,2,0.45177,1,2,O_Image_32.bmp-F_Lure_24.bmp,NA,0,2.1
285,5,62.46,drizzle,NA,3,1,0.38969,0,3,S_Image_62.bmp-O_Lure_46.bmp,NA,0,3.2
286,5,69.39,corner,NA,3,3,0.96799,1,3,S_Image_69.bmp-O_Lure_39.bmp,NA,0,3.2
287,5,5.64,harem,NA,1,1,0.4572,1,3,F_Image_5.bmp-S_Lure_64.bmp,NA,0,1.3
288,5,68.01,asphalt,NA,3,3,0.95661,1,2,S_Image_68.bmp-F_Lure_1.bmp,NA,0,3.1
289,5,21.26,animal,NA,1,4,0.42168,0,3,F_Image_21.bmp-O_Lure_26.bmp,NA,0,1.2
290,5,11.48,arrow,NA,1,1,0.31997,1,3,F_Image_11.bmp-O_Lure_48.bmp,NA,0,1.2
291,5,30.02,galaxy,NA,2,2,0.46624,1,2,O_Image_30.bmp-F_Lure_2.bmp,NA,0,2.1
292,5,19.71,costume,NA,1,3,1.2519,0,1,F_Image_19.bmp-S_Lure_71.bmp,NA,0,1.3
293,5,14.25,angel,NA,1,1,0.7174,1,3,F_Image_14.bmp-O_Lure_25.bmp,NA,0,1.2
294,5,54.15,attack,NA,3,3,0.63894,1,4,S_Image_54.bmp-F_Lure_15.bmp,NA,0,3.1
295,5,8.43,bubble,NA,1,1,0.39309,1,2,F_Image_8.bmp-O_Lure_43.bmp,NA,0,1.2
296,5,11.48,arrow,NA,1,1,0.4109,1,4,F_Image_11.bmp-O_Lure_48.bmp,NA,0,1.2
297,5,8.43,bubble,NA,1,1,0.42867,1,3,F_Image_8.bmp-O_Lure_43.bmp,NA,0,1.2
298,5,30.02,galaxy,NA,2,2,0.67018,1,3,O_Image_30.bmp-F_Lure_2.bmp,NA,0,2.1
299,5,55.27,black,NA,3,3,0.48022,1,3,S_Image_55.bmp-O_Lure_27.bmp,NA,0,3.2
300,5,8.43,bubble,NA,1,1,0.37011,1,4,F_Image_8.bmp-O_Lure_43.bmp,NA,0,1.2
301,5,19.71,costume,NA,1,1,0.31655,1,2,F_Image_19.bmp-S_Lure_71.bmp,NA,0,1.3
302,5,14.25,angel,NA,1,1,0.42976,1,4,F_Image_14.bmp-O_Lure_25.bmp,NA,0,1.2
303,5,5.64,harem,NA,1,1,0.3275,1,4,F_Image_5.bmp-S_Lure_64.bmp,NA,0,1.3
304,5,62.46,drizzle,NA,3,3,0.49718,1,4,S_Image_62.bmp-O_Lure_46.bmp,NA,0,3.2
305,5,68.01,asphalt,NA,3,3,0.56274,1,3,S_Image_68.bmp-F_Lure_1.bmp,NA,0,3.1
306,5,19.71,costume,NA,1,1,0.37197,1,3,F_Image_19.bmp-S_Lure_71.bmp,NA,0,1.3
307,5,72.12,fuel,NA,3,1,0.50259,0,3,S_Image_72.bmp-F_Lure_12.bmp,NA,0,3.1
308,5,17.59,cone,NA,1,1,1.264,1,2,F_Image_17.bmp-S_Lure_59.bmp,NA,0,1.3
309,5,19.71,costume,NA,1,1,0.49781,1,4,F_Image_19.bmp-S_Lure_71.bmp,NA,0,1.3
310,5,32.24,lever,NA,2,2,0.57117,1,3,O_Image_32.bmp-F_Lure_24.bmp,NA,0,2.1
311,5,69.39,corner,NA,3,3,0.49344,1,4,S_Image_69.bmp-O_Lure_39.bmp,NA,0,3.2
312,5,34.23,giant,NA,2,1,0.35098,0,3,O_Image_34.bmp-F_Lure_23.bmp,NA,0,2.1
313,5,17.59,cone,NA,1,1,0.52869,1,3,F_Image_17.bmp-S_Lure_59.bmp,NA,0,1.3
314,5,32.24,lever,NA,2,2,0.73003,1,4,O_Image_32.bmp-F_Lure_24.bmp,NA,0,2.1
315,5,38.49,marble,NA,2,2,0.42793,1,3,O_Image_38.bmp-S_Lure_49.bmp,NA,0,2.3
316,5,68.01,asphalt,NA,3,3,0.42154,1,4,S_Image_68.bmp-F_Lure_1.bmp,NA,0,3.1
317,5,30.02,galaxy,NA,2,2,0.56795,1,4,O_Image_30.bmp-F_Lure_2.bmp,NA,0,2.1
318,5,6.61,army,NA,1,1,0.52903,1,4,F_Image_6.bmp-S_Lure_61.bmp,NA,0,1.3
319,5,34.23,giant,NA,2,3,0.53869,0,4,O_Image_34.bmp-F_Lure_23.bmp,NA,0,2.1
320,5,21.26,animal,NA,1,1,1.4688,1,4,F_Image_21.bmp-O_Lure_26.bmp,NA,0,1.2
321,5,38.49,marble,NA,2,2,0.60701,1,4,O_Image_38.bmp-S_Lure_49.bmp,NA,0,2.3
322,5,17.59,cone,NA,1,1,0.38508,1,4,F_Image_17.bmp-S_Lure_59.bmp,NA,0,1.3
323,5,72.12,fuel,NA,3,3,0.64245,1,4,S_Image_72.bmp-F_Lure_12.bmp,NA,0,3.1
324,5,55.27,black,NA,3,3,0.48434,1,4,S_Image_55.bmp-O_Lure_27.bmp,NA,0,3.2
325,6,15,attack,NA,2,1,1.0065,0,NA,F_Image_15.bmp-F_Lure_15.bmp,1,0,1
326,6,61,army,NA,2,2,1.1812,1,NA,S_Image_61.bmp-S_Lure_61.bmp,1,0,3
327,6,65,ghost,NA,1,1,1.0357,1,NA,S_Image_65.bmp-S_Lure_65.bmp,1,1,3
328,6,13,cloud,NA,1,2,1.4083,0,NA,F_Image_13.bmp-F_Lure_13.bmp,1,1,1
329,6,63,flood,NA,2,2,2.3343,1,NA,S_Image_63.bmp-S_Lure_63.bmp,1,1,3
330,6,34,giant,NA,1,1,0.79134,1,NA,O_Image_34.bmp-O_Lure_34.bmp,1,0,2
331,6,71,costume,NA,2,2,1.294,1,NA,S_Image_71.bmp-S_Lure_71.bmp,1,0,3
332,6,58,hurricane,NA,2,2,1.2407,1,NA,S_Image_58.bmp-S_Lure_58.bmp,1,1,3
333,6,9,hostage,NA,1,1,1.1495,1,NA,F_Image_9.bmp-F_Lure_9.bmp,1,1,1
334,6,53,honeymoon,NA,1,1,0.86173,1,NA,S_Image_53.bmp-S_Lure_53.bmp,1,1,3
335,6,48,arrow,NA,2,2,0.85773,1,NA,O_Image_48.bmp-O_Lure_48.bmp,1,0,2
336,6,19,costume,NA,1,1,1.2779,1,NA,F_Image_19.bmp-F_Lure_19.bmp,1,0,1
337,6,25,angel,NA,2,1,0.88928,0,NA,O_Image_25.bmp-O_Lure_25.bmp,1,0,2
338,6,47,laundry,NA,2,2,0.76382,1,NA,O_Image_47.bmp-O_Lure_47.bmp,1,1,2
339,6,66,crumb,NA,2,2,0.98754,1,NA,S_Image_66.bmp-S_Lure_66.bmp,1,1,3
340,6,6,army,NA,1,1,1.0344,1,NA,F_Image_6.bmp-F_Lure_6.bmp,1,0,1
341,6,62,drizzle,NA,1,1,1.1431,1,NA,S_Image_62.bmp-S_Lure_62.bmp,1,0,3
342,6,45,honeymoon,NA,1,1,0.69583,1,NA,O_Image_45.bmp-O_Lure_45.bmp,1,1,2
343,6,32,lever,NA,2,2,0.78628,1,NA,O_Image_32.bmp-O_Lure_32.bmp,1,0,2
344,6,54,attack,NA,2,2,1.6171,1,NA,S_Image_54.bmp-S_Lure_54.bmp,1,0,3
345,6,37,fire,NA,2,2,1.1186,1,NA,O_Image_37.bmp-O_Lure_37.bmp,1,1,2
346,6,33,hostage,NA,1,2,1.0559,0,NA,O_Image_33.bmp-O_Lure_33.bmp,1,1,2
347,6,70,kiss,NA,2,2,0.94826,1,NA,S_Image_70.bmp-S_Lure_70.bmp,1,1,3
348,6,56,antique,NA,1,1,1.1001,1,NA,S_Image_56.bmp-S_Lure_56.bmp,1,1,3
349,6,17,cone,NA,1,1,1.4461,1,NA,F_Image_17.bmp-F_Lure_17.bmp,1,0,1
350,6,36,flood,NA,2,2,0.88216,1,NA,O_Image_36.bmp-O_Lure_36.bmp,1,1,2
351,6,1,asphalt,NA,1,1,2.685,1,NA,F_Image_1.bmp-F_Lure_1.bmp,1,0,1
352,6,26,animal,NA,2,2,1.5197,1,NA,O_Image_26.bmp-O_Lure_26.bmp,1,0,2
353,6,24,lever,NA,2,2,1.4653,1,NA,F_Image_24.bmp-F_Lure_24.bmp,1,0,1
354,6,72,fuel,NA,2,2,2.9807,1,NA,S_Image_72.bmp-S_Lure_72.bmp,1,0,3
355,6,31,corpse,NA,2,2,1.0116,1,NA,O_Image_31.bmp-O_Lure_31.bmp,1,1,2
356,6,64,harem,NA,1,1,2.7139,1,NA,S_Image_64.bmp-S_Lure_64.bmp,1,0,3
357,6,30,galaxy,NA,2,0,3.4997,0,NA,O_Image_30.bmp-O_Lure_30.bmp,1,0,2
358,6,27,black,NA,2,2,0.96547,1,NA,O_Image_27.bmp-O_Lure_27.bmp,1,0,2
359,6,40,ghost,NA,2,2,1.8366,1,NA,O_Image_40.bmp-O_Lure_40.bmp,1,1,2
360,6,14,angel,NA,1,1,1.0817,1,NA,F_Image_14.bmp-F_Lure_14.bmp,1,0,1
361,6,50,arch,NA,1,2,2.2842,0,NA,S_Image_50.bmp-S_Lure_50.bmp,1,1,3
362,6,59,cone,NA,1,0,3.4996,0,NA,S_Image_59.bmp-S_Lure_59.bmp,1,0,3
363,6,8,bubble,NA,2,2,1.8414,1,NA,F_Image_8.bmp-F_Lure_8.bmp,1,0,1
364,6,28,alcohol,NA,2,2,0.726,1,NA,O_Image_28.bmp-O_Lure_28.bmp,1,1,2
365,6,23,giant,NA,2,1,1.5993,0,NA,F_Image_23.bmp-F_Lure_23.bmp,1,0,1
366,6,35,board,NA,1,1,0.90934,1,NA,O_Image_35.bmp-O_Lure_35.bmp,1,1,2
367,6,20,kiss,NA,1,1,1.1359,1,NA,F_Image_20.bmp-F_Lure_20.bmp,1,1,1
368,6,4,alcohol,NA,1,1,1.2002,1,NA,F_Image_4.bmp-F_Lure_4.bmp,1,1,1
369,6,16,fire,NA,2,1,1.3902,0,NA,F_Image_16.bmp-F_Lure_16.bmp,1,1,1
370,6,69,corner,NA,1,1,1.8771,1,NA,S_Image_69.bmp-S_Lure_69.bmp,1,0,3
371,6,60,cloud,NA,1,1,1.2806,1,NA,S_Image_60.bmp-S_Lure_60.bmp,1,1,3
372,6,46,drizzle,NA,2,2,0.97126,1,NA,O_Image_46.bmp-O_Lure_46.bmp,1,0,2
373,6,2,galaxy,NA,1,1,1.1789,1,NA,F_Image_2.bmp-F_Lure_2.bmp,1,0,1
374,6,12,fuel,NA,2,1,1.3304,0,NA,F_Image_12.bmp-F_Lure_12.bmp,1,0,1
375,6,42,breakfast,NA,1,1,0.88303,1,NA,O_Image_42.bmp-O_Lure_42.bmp,1,1,2
376,6,11,arrow,NA,1,1,1.0296,1,NA,F_Image_11.bmp-F_Lure_11.bmp,1,0,1
377,6,29,hurricane,NA,2,2,0.81036,1,NA,O_Image_29.bmp-O_Lure_29.bmp,1,1,2
378,6,44,magnet,NA,1,1,0.70462,1,NA,O_Image_44.bmp-O_Lure_44.bmp,1,1,2
379,6,68,asphalt,NA,1,1,1.4585,1,NA,S_Image_68.bmp-S_Lure_68.bmp,1,0,3
380,6,55,black,NA,1,1,1.3266,1,NA,S_Image_55.bmp-S_Lure_55.bmp,1,0,3
381,6,39,corner,NA,2,2,1.1202,1,NA,O_Image_39.bmp-O_Lure_39.bmp,1,0,2
382,6,67,board,NA,1,1,1.1054,1,NA,S_Image_67.bmp-S_Lure_67.bmp,1,1,3
383,6,5,harem,NA,1,1,1.3957,1,NA,F_Image_5.bmp-F_Lure_5.bmp,1,0,1
384,6,49,marble,NA,1,2,1.7217,0,NA,S_Image_49.bmp-S_Lure_49.bmp,1,0,3
385,6,18,antique,NA,1,1,1.5802,1,NA,F_Image_18.bmp-F_Lure_18.bmp,1,1,1
386,6,21,animal,NA,2,2,1.122,1,NA,F_Image_21.bmp-F_Lure_21.bmp,1,0,1
387,6,10,laundry,NA,1,1,1.1076,1,NA,F_Image_10.bmp-F_Lure_10.bmp,1,1,1
388,6,51,magnet,NA,2,2,2.5095,1,NA,S_Image_51.bmp-S_Lure_51.bmp,1,1,3
389,6,57,alien,NA,2,1,1.1355,0,NA,S_Image_57.bmp-S_Lure_57.bmp,1,1,3
390,6,22,arch,NA,1,1,1.1923,1,NA,F_Image_22.bmp-F_Lure_22.bmp,1,1,1
391,6,52,breakfast,NA,2,2,1.5909,1,NA,S_Image_52.bmp-S_Lure_52.bmp,1,1,3
392,6,38,marble,NA,2,1,0.70174,0,NA,O_Image_38.bmp-O_Lure_38.bmp,1,0,2
393,6,41,crumb,NA,1,1,0.86404,1,NA,O_Image_41.bmp-O_Lure_41.bmp,1,1,2
394,6,3,alien,NA,2,2,1.4672,1,NA,F_Image_3.bmp-F_Lure_3.bmp,1,1,1
395,6,43,bubble,NA,1,1,0.93495,1,NA,O_Image_43.bmp-O_Lure_43.bmp,1,0,2
396,6,7,corpse,NA,2,0,3.5,0,NA,F_Image_7.bmp-F_Lure_7.bmp,1,1,1
