Trial,Cond,ImageNum,Cue,Block,Correct,Response,RT,Accuracy,CueRep,fName,ImageType,Baseline,Category
1,1,57,NA,NA,NA,1,5.1289,NA,NA,S_Lure_57.bmp,0,1,3
2,1,18,NA,NA,NA,1,2.1836,NA,NA,F_Lure_18.bmp,0,1,1
3,1,40,NA,NA,NA,1,1.0203,NA,NA,O_Image_40.bmp,1,1,2
4,1,5,NA,NA,NA,1,1.1044,NA,NA,F_Lure_5.bmp,0,0,1
5,1,57,NA,NA,NA,1,2.3131,NA,NA,S_Image_57.bmp,2,1,3
6,1,27,NA,NA,NA,1,1.0419,NA,NA,O_Lure_27.bmp,0,0,2
7,1,67,NA,NA,NA,2,3.108,NA,NA,S_Lure_67.bmp,0,1,3
8,1,25,NA,NA,NA,1,4.1571,NA,NA,O_Lure_25.bmp,0,0,2
9,1,49,NA,NA,NA,1,2.0353,NA,NA,S_Lure_49.bmp,0,0,3
10,1,28,NA,NA,NA,1,0.66231,NA,NA,O_Lure_28.bmp,0,1,2
11,1,43,NA,NA,NA,1,3.552,NA,NA,O_Lure_43.bmp,0,0,2
12,1,37,NA,NA,NA,1,4.5741,NA,NA,O_Image_37.bmp,2,1,2
13,1,30,NA,NA,NA,1,2.283,NA,NA,O_Lure_30.bmp,0,0,2
14,1,61,NA,NA,NA,1,2.0991,NA,NA,S_Image_61.bmp,2,0,3
15,1,60,NA,NA,NA,1,0.94103,NA,NA,S_Lure_60.bmp,0,1,3
16,1,67,NA,NA,NA,1,0.075208,NA,NA,S_Image_67.bmp,2,1,3
17,1,24,NA,NA,NA,1,0.92455,NA,NA,F_Image_24.bmp,2,0,1
18,1,32,NA,NA,NA,1,0.80522,NA,NA,O_Image_32.bmp,1,0,2
19,1,44,NA,NA,NA,1,1.408,NA,NA,O_Lure_44.bmp,0,1,2
20,1,65,NA,NA,NA,1,0.5153,NA,NA,S_Image_65.bmp,2,1,3
21,1,34,NA,NA,NA,1,0.00012134,NA,NA,O_Lure_34.bmp,0,0,2
22,1,59,NA,NA,NA,1,1.0009,NA,NA,S_Lure_59.bmp,0,0,3
23,1,20,NA,NA,NA,1,1.34,NA,NA,F_Lure_20.bmp,0,1,1
24,1,14,NA,NA,NA,1,1.6582,NA,NA,F_Image_14.bmp,1,0,1
25,1,45,NA,NA,NA,1,0.92441,NA,NA,O_Lure_45.bmp,0,1,2
26,1,15,NA,NA,NA,1,1.3076,NA,NA,F_Lure_15.bmp,0,0,1
27,1,20,NA,NA,NA,1,1.1004,NA,NA,F_Image_20.bmp,2,1,1
28,1,12,NA,NA,NA,1,0.97252,NA,NA,F_Image_12.bmp,2,0,1
29,1,4,NA,NA,NA,1,1.5437,NA,NA,F_Lure_4.bmp,0,1,1
30,1,62,NA,NA,NA,1,1.6938,NA,NA,S_Lure_62.bmp,0,0,3
31,1,7,NA,NA,NA,1,2.4131,NA,NA,F_Image_7.bmp,1,1,1
32,1,31,NA,NA,NA,1,1.6167,NA,NA,O_Image_31.bmp,2,1,2
33,1,13,NA,NA,NA,1,2.4927,NA,NA,F_Image_13.bmp,2,1,1
34,1,15,NA,NA,NA,1,0.68554,NA,NA,F_Image_15.bmp,2,0,1
35,1,10,NA,NA,NA,1,0.21417,NA,NA,F_Image_10.bmp,2,1,1
36,1,50,NA,NA,NA,1,1.0488,NA,NA,S_Image_50.bmp,2,1,3
37,1,45,NA,NA,NA,1,0.57084,NA,NA,O_Image_45.bmp,1,1,2
38,1,16,NA,NA,NA,1,1.095,NA,NA,F_Lure_16.bmp,0,1,1
39,1,25,NA,NA,NA,1,0.5516,NA,NA,O_Image_25.bmp,2,0,2
40,1,62,NA,NA,NA,1,0.40639,NA,NA,S_Image_62.bmp,1,0,3
41,1,28,NA,NA,NA,1,0.46763,NA,NA,O_Image_28.bmp,1,1,2
42,1,38,NA,NA,NA,1,0.78166,NA,NA,O_Image_38.bmp,1,0,2
43,1,69,NA,NA,NA,1,0.59593,NA,NA,S_Lure_69.bmp,0,0,3
44,1,55,NA,NA,NA,1,0.75906,NA,NA,S_Lure_55.bmp,0,0,3
45,1,33,NA,NA,NA,1,0.80513,NA,NA,O_Image_33.bmp,1,1,2
46,1,8,NA,NA,NA,1,1.1065,NA,NA,F_Image_8.bmp,1,0,1
47,1,17,NA,NA,NA,1,0.53993,NA,NA,F_Image_17.bmp,1,0,1
48,1,34,NA,NA,NA,1,0.79551,NA,NA,O_Image_34.bmp,1,0,2
49,1,2,NA,NA,NA,1,1.072,NA,NA,F_Lure_2.bmp,0,0,1
50,1,63,NA,NA,NA,1,1.058,NA,NA,S_Image_63.bmp,1,1,3
51,1,64,NA,NA,NA,1,0.93146,NA,NA,S_Lure_64.bmp,0,0,3
52,1,1,NA,NA,NA,1,0.96153,NA,NA,F_Image_1.bmp,2,0,1
53,1,55,NA,NA,NA,1,1.0163,NA,NA,S_Image_55.bmp,1,0,3
54,1,61,NA,NA,NA,1,0.88444,NA,NA,S_Lure_61.bmp,0,0,3
55,1,46,NA,NA,NA,1,0.92447,NA,NA,O_Lure_46.bmp,0,0,2
56,1,54,NA,NA,NA,1,0.91566,NA,NA,S_Image_54.bmp,1,0,3
57,1,50,NA,NA,NA,1,1.051,NA,NA,S_Lure_50.bmp,0,1,3
58,1,26,NA,NA,NA,1,0.41974,NA,NA,O_Image_26.bmp,2,0,2
59,1,52,NA,NA,NA,1,1.3424,NA,NA,S_Lure_52.bmp,0,1,3
60,1,70,NA,NA,NA,1,0.54055,NA,NA,S_Lure_70.bmp,0,1,3
61,1,35,NA,NA,NA,1,1.0431,NA,NA,O_Image_35.bmp,1,1,2
62,1,19,NA,NA,NA,1,0.65404,NA,NA,F_Image_19.bmp,1,0,1
63,1,56,NA,NA,NA,1,1.7439,NA,NA,S_Lure_56.bmp,0,1,3
64,1,41,NA,NA,NA,1,1.3026,NA,NA,O_Lure_41.bmp,0,1,2
65,1,16,NA,NA,NA,1,0.2869,NA,NA,F_Image_16.bmp,1,1,1
66,1,23,NA,NA,NA,1,0.4322,NA,NA,F_Image_23.bmp,2,0,1
67,1,40,NA,NA,NA,1,0.31619,NA,NA,O_Lure_40.bmp,0,1,2
68,1,46,NA,NA,NA,1,0.56417,NA,NA,O_Image_46.bmp,2,0,2
69,1,9,NA,NA,NA,1,0.29097,NA,NA,F_Image_9.bmp,2,1,1
70,1,24,NA,NA,NA,1,0.6842,NA,NA,F_Lure_24.bmp,0,0,1
71,1,8,NA,NA,NA,1,0.27632,NA,NA,F_Lure_8.bmp,0,0,1
72,1,43,NA,NA,NA,1,0.28653,NA,NA,O_Image_43.bmp,2,0,2
73,1,51,NA,NA,NA,1,0.951,NA,NA,S_Image_51.bmp,1,1,3
74,1,63,NA,NA,NA,1,1.9099,NA,NA,S_Lure_63.bmp,0,1,3
75,1,19,NA,NA,NA,1,0.43655,NA,NA,F_Lure_19.bmp,0,0,1
76,1,69,NA,NA,NA,1,0.28056,NA,NA,S_Image_69.bmp,1,0,3
77,1,7,NA,NA,NA,1,0.37855,NA,NA,F_Lure_7.bmp,0,1,1
78,1,23,NA,NA,NA,1,0.44864,NA,NA,F_Lure_23.bmp,0,0,1
79,1,36,NA,NA,NA,1,0.4026,NA,NA,O_Image_36.bmp,2,1,2
80,1,36,NA,NA,NA,1,0.00011259,NA,NA,O_Lure_36.bmp,0,1,2
81,1,49,NA,NA,NA,1,0.55868,NA,NA,S_Image_49.bmp,2,0,3
82,1,29,NA,NA,NA,1,0.28565,NA,NA,O_Lure_29.bmp,0,1,2
83,1,51,NA,NA,NA,1,0.287,NA,NA,S_Lure_51.bmp,0,1,3
84,1,48,NA,NA,NA,1,0.24782,NA,NA,O_Image_48.bmp,2,0,2
85,1,71,NA,NA,NA,1,0.00012255,NA,NA,S_Lure_71.bmp,0,0,3
86,1,4,NA,NA,NA,1,0.3424,NA,NA,F_Image_4.bmp,2,1,1
87,1,14,NA,NA,NA,1,0.62159,NA,NA,F_Lure_14.bmp,0,0,1
88,1,44,NA,NA,NA,1,1.0604,NA,NA,O_Image_44.bmp,2,1,2
89,1,6,NA,NA,NA,1,0.35188,NA,NA,F_Image_6.bmp,1,0,1
90,1,27,NA,NA,NA,1,0.95703,NA,NA,O_Image_27.bmp,2,0,2
91,1,29,NA,NA,NA,1,0.69176,NA,NA,O_Image_29.bmp,2,1,2
92,1,10,NA,NA,NA,1,0.40402,NA,NA,F_Lure_10.bmp,0,1,1
93,1,11,NA,NA,NA,1,0.92059,NA,NA,F_Lure_11.bmp,0,0,1
94,1,5,NA,NA,NA,1,0.70456,NA,NA,F_Image_5.bmp,1,0,1
95,1,52,NA,NA,NA,1,0.5459,NA,NA,S_Image_52.bmp,2,1,3
96,1,54,NA,NA,NA,1,0.32136,NA,NA,S_Lure_54.bmp,0,0,3
97,1,38,NA,NA,NA,1,0.62405,NA,NA,O_Lure_38.bmp,0,0,2
98,1,68,NA,NA,NA,1,0.42822,NA,NA,S_Image_68.bmp,1,0,3
99,1,53,NA,NA,NA,1,0.54361,NA,NA,S_Lure_53.bmp,0,1,3
100,1,35,NA,NA,NA,1,1.8229,NA,NA,O_Lure_35.bmp,0,1,2
101,1,53,NA,NA,NA,1,0.50557,NA,NA,S_Image_53.bmp,2,1,3
102,1,64,NA,NA,NA,1,0.22499,NA,NA,S_Image_64.bmp,2,0,3
103,1,26,NA,NA,NA,1,0.17972,NA,NA,O_Lure_26.bmp,0,0,2
104,1,3,NA,NA,NA,1,0.43918,NA,NA,F_Lure_3.bmp,0,1,1
105,1,30,NA,NA,NA,1,0.0001141,NA,NA,O_Image_30.bmp,1,0,2
106,1,22,NA,NA,NA,1,0.00011923,NA,NA,F_Lure_22.bmp,0,1,1
107,1,71,NA,NA,NA,1,0.38378,NA,NA,S_Image_71.bmp,2,0,3
108,1,66,NA,NA,NA,1,0.46857,NA,NA,S_Image_66.bmp,2,1,3
109,1,33,NA,NA,NA,1,0.30125,NA,NA,O_Lure_33.bmp,0,1,2
110,1,42,NA,NA,NA,1,0.25277,NA,NA,O_Image_42.bmp,1,1,2
111,1,68,NA,NA,NA,1,0.87806,NA,NA,S_Lure_68.bmp,0,0,3
112,1,6,NA,NA,NA,1,0.41395,NA,NA,F_Lure_6.bmp,0,0,1
113,1,70,NA,NA,NA,1,0.31396,NA,NA,S_Image_70.bmp,1,1,3
114,1,60,NA,NA,NA,1,0.54002,NA,NA,S_Image_60.bmp,1,1,3
115,1,39,NA,NA,NA,1,1.2121,NA,NA,O_Lure_39.bmp,0,0,2
116,1,39,NA,NA,NA,1,0.95963,NA,NA,O_Image_39.bmp,2,0,2
117,1,48,NA,NA,NA,1,1.5349,NA,NA,O_Lure_48.bmp,0,0,2
118,1,13,NA,NA,NA,1,0.00012255,NA,NA,F_Lure_13.bmp,0,1,1
119,1,32,NA,NA,NA,1,0.61303,NA,NA,O_Lure_32.bmp,0,0,2
120,1,31,NA,NA,NA,1,0.52232,NA,NA,O_Lure_31.bmp,0,1,2
121,1,42,NA,NA,NA,1,0.57905,NA,NA,O_Lure_42.bmp,0,1,2
122,1,47,NA,NA,NA,1,0.80164,NA,NA,O_Lure_47.bmp,0,1,2
123,1,11,NA,NA,NA,1,2.023,NA,NA,F_Image_11.bmp,1,0,1
124,1,12,NA,NA,NA,1,0.87444,NA,NA,F_Lure_12.bmp,0,0,1
125,1,3,NA,NA,NA,1,0.067935,NA,NA,F_Image_3.bmp,1,1,1
126,1,58,NA,NA,NA,1,0.90927,NA,NA,S_Image_58.bmp,1,1,3
127,1,17,NA,NA,NA,1,0.26124,NA,NA,F_Lure_17.bmp,0,0,1
128,1,1,NA,NA,NA,1,0.43803,NA,NA,F_Lure_1.bmp,0,0,1
129,1,72,NA,NA,NA,1,0.32019,NA,NA,S_Image_72.bmp,1,0,3
130,1,9,NA,NA,NA,1,1.6,NA,NA,F_Lure_9.bmp,0,1,1
131,1,21,NA,NA,NA,1,0.57281,NA,NA,F_Image_21.bmp,1,0,1
132,1,59,NA,NA,NA,1,0.84212,NA,NA,S_Image_59.bmp,2,0,3
133,1,66,NA,NA,NA,1,0.20363,NA,NA,S_Lure_66.bmp,0,1,3
134,1,18,NA,NA,NA,1,0.071582,NA,NA,F_Image_18.bmp,2,1,1
135,1,41,NA,NA,NA,1,0.016307,NA,NA,O_Image_41.bmp,1,1,2
136,1,2,NA,NA,NA,1,0.41231,NA,NA,F_Image_2.bmp,2,0,1
137,1,72,NA,NA,NA,1,0.64103,NA,NA,S_Lure_72.bmp,0,0,3
138,1,65,NA,NA,NA,1,0.37194,NA,NA,S_Lure_65.bmp,0,1,3
139,1,47,NA,NA,NA,1,0.4646,NA,NA,O_Image_47.bmp,1,1,2
140,1,37,NA,NA,NA,1,0.13727,NA,NA,O_Lure_37.bmp,0,1,2
141,1,21,NA,NA,NA,1,0.93735,NA,NA,F_Lure_21.bmp,0,0,1
142,1,22,NA,NA,NA,1,0.27196,NA,NA,F_Image_22.bmp,1,1,1
143,1,58,NA,NA,NA,1,0.46602,NA,NA,S_Lure_58.bmp,0,1,3
144,1,56,NA,NA,NA,1,0.55538,NA,NA,S_Image_56.bmp,1,1,3
145,2,58,hurricane,1,1,0,3.5,0,NA,S_Image_58.bmp-S_Lure_58.bmp,1,1,3
146,2,8,bubble,1,1,1,3.2913,1,NA,F_Image_8.bmp-F_Lure_8.bmp,1,0,1
147,2,51,magnet,1,1,1,2.6778,1,NA,S_Image_51.bmp-S_Lure_51.bmp,1,1,3
148,2,42,breakfast,1,1,1,1.3756,1,NA,O_Image_42.bmp-O_Lure_42.bmp,1,1,2
149,2,19,costume,1,1,1,1.4062,1,NA,F_Image_19.bmp-F_Lure_19.bmp,1,0,1
150,2,63,flood,1,1,1,2.1,1,NA,S_Image_63.bmp-S_Lure_63.bmp,1,1,3
151,2,5,harem,1,2,2,1.629,1,NA,F_Image_5.bmp-F_Lure_5.bmp,1,0,1
152,2,72,fuel,1,1,1,1.4016,1,NA,S_Image_72.bmp-S_Lure_72.bmp,1,0,3
153,2,32,lever,1,2,1,1.6789,0,NA,O_Image_32.bmp-O_Lure_32.bmp,1,0,2
154,2,55,black,1,2,2,1.3611,1,NA,S_Image_55.bmp-S_Lure_55.bmp,1,0,3
155,2,30,galaxy,1,2,2,1.1358,1,NA,O_Image_30.bmp-O_Lure_30.bmp,1,0,2
156,2,54,attack,1,1,1,1.9594,1,NA,S_Image_54.bmp-S_Lure_54.bmp,1,0,3
157,3,32,lever,1,2,1,1.3262,0,NA,O_Image_32.bmp-O_Lure_32.bmp,1,0,2
158,3,63,flood,1,1,1,1.503,1,NA,S_Image_63.bmp-S_Lure_63.bmp,1,1,3
159,3,54,attack,1,1,1,0.9927,1,NA,S_Image_54.bmp-S_Lure_54.bmp,1,0,3
160,3,51,magnet,1,1,1,1.0786,1,NA,S_Image_51.bmp-S_Lure_51.bmp,1,1,3
161,3,19,costume,1,1,1,1.0887,1,NA,F_Image_19.bmp-F_Lure_19.bmp,1,0,1
162,3,5,harem,1,1,1,1.1548,1,NA,F_Image_5.bmp-F_Lure_5.bmp,1,0,1
163,3,72,fuel,1,1,1,1.2825,1,NA,S_Image_72.bmp-S_Lure_72.bmp,1,0,3
164,3,58,hurricane,1,2,1,1.2602,0,NA,S_Image_58.bmp-S_Lure_58.bmp,1,1,3
165,3,42,breakfast,1,1,1,0.7518,1,NA,O_Image_42.bmp-O_Lure_42.bmp,1,1,2
166,3,30,galaxy,1,2,2,0.95123,1,NA,O_Image_30.bmp-O_Lure_30.bmp,1,0,2
167,3,8,bubble,1,2,2,0.99056,1,NA,F_Image_8.bmp-F_Lure_8.bmp,1,0,1
168,3,55,black,1,2,2,0.64485,1,NA,S_Image_55.bmp-S_Lure_55.bmp,1,0,3
169,2,69,corner,2,1,2,3.1992,0,NA,S_Image_69.bmp-S_Lure_69.bmp,1,0,3
170,2,40,ghost,2,2,1,1.1571,0,NA,O_Image_40.bmp-O_Lure_40.bmp,1,1,2
171,2,47,laundry,2,2,2,0.99604,1,NA,O_Image_47.bmp-O_Lure_47.bmp,1,1,2
172,2,7,corpse,2,1,1,1.1377,1,NA,F_Image_7.bmp-F_Lure_7.bmp,1,1,1
173,2,22,arch,2,2,1,0.91361,0,NA,F_Image_22.bmp-F_Lure_22.bmp,1,1,1
174,2,3,alien,2,1,1,0.83437,1,NA,F_Image_3.bmp-F_Lure_3.bmp,1,1,1
175,2,70,kiss,2,2,2,0.75845,1,NA,S_Image_70.bmp-S_Lure_70.bmp,1,1,3
176,2,68,asphalt,2,1,2,0.56592,0,NA,S_Image_68.bmp-S_Lure_68.bmp,1,0,3
177,2,62,drizzle,2,1,2,1.3646,0,NA,S_Image_62.bmp-S_Lure_62.bmp,1,0,3
178,2,33,hostage,2,1,2,0.83551,0,NA,O_Image_33.bmp-O_Lure_33.bmp,1,1,2
179,2,60,cloud,2,1,1,1.0954,1,NA,S_Image_60.bmp-S_Lure_60.bmp,1,1,3
180,2,45,honeymoon,2,2,2,0.7931,1,NA,O_Image_45.bmp-O_Lure_45.bmp,1,1,2
181,3,62,drizzle,2,1,1,1.6302,1,NA,S_Image_62.bmp-S_Lure_62.bmp,1,0,3
182,3,69,corner,2,2,2,1.1944,1,NA,S_Image_69.bmp-S_Lure_69.bmp,1,0,3
183,3,22,arch,2,1,1,1.0719,1,NA,F_Image_22.bmp-F_Lure_22.bmp,1,1,1
184,3,70,kiss,2,2,2,0.58661,1,NA,S_Image_70.bmp-S_Lure_70.bmp,1,1,3
185,3,3,alien,2,1,1,0.72089,1,NA,F_Image_3.bmp-F_Lure_3.bmp,1,1,1
186,3,7,corpse,2,1,2,0.92989,0,NA,F_Image_7.bmp-F_Lure_7.bmp,1,1,1
187,3,47,laundry,2,1,1,0.96974,1,NA,O_Image_47.bmp-O_Lure_47.bmp,1,1,2
188,3,33,hostage,2,2,1,0.96817,0,NA,O_Image_33.bmp-O_Lure_33.bmp,1,1,2
189,3,40,ghost,2,2,1,0.73482,0,NA,O_Image_40.bmp-O_Lure_40.bmp,1,1,2
190,3,68,asphalt,2,2,2,1.119,1,NA,S_Image_68.bmp-S_Lure_68.bmp,1,0,3
191,3,60,cloud,2,1,2,1.0322,0,NA,S_Image_60.bmp-S_Lure_60.bmp,1,1,3
192,3,45,honeymoon,2,2,2,0.73975,1,NA,O_Image_45.bmp-O_Lure_45.bmp,1,1,2
193,2,28,alcohol,3,2,2,1.4115,1,NA,O_Image_28.bmp-O_Lure_28.bmp,1,1,2
194,2,35,board,3,1,1,1.176,1,NA,O_Image_35.bmp-O_Lure_35.bmp,1,1,2
195,2,16,fire,3,2,2,0.63877,1,NA,F_Image_16.bmp-F_Lure_16.bmp,1,1,1
196,2,38,marble,3,1,1,0.90742,1,NA,O_Image_38.bmp-O_Lure_38.bmp,1,0,2
197,2,6,army,3,2,2,0.62826,1,NA,F_Image_6.bmp-F_Lure_6.bmp,1,0,1
198,2,34,giant,3,2,2,0.71252,1,NA,O_Image_34.bmp-O_Lure_34.bmp,1,0,2
199,2,11,arrow,3,1,2,0.90528,0,NA,F_Image_11.bmp-F_Lure_11.bmp,1,0,1
200,2,56,antique,3,2,2,1.2347,1,NA,S_Image_56.bmp-S_Lure_56.bmp,1,1,3
201,2,21,animal,3,2,1,1.1184,0,NA,F_Image_21.bmp-F_Lure_21.bmp,1,0,1
202,2,41,crumb,3,2,2,0.65541,1,NA,O_Image_41.bmp-O_Lure_41.bmp,1,1,2
203,2,17,cone,3,2,1,1.1792,0,NA,F_Image_17.bmp-F_Lure_17.bmp,1,0,1
204,2,14,angel,3,1,1,0.85691,1,NA,F_Image_14.bmp-F_Lure_14.bmp,1,0,1
205,3,41,crumb,3,1,1,0.81147,1,NA,O_Image_41.bmp-O_Lure_41.bmp,1,1,2
206,3,56,antique,3,1,1,0.9126,1,NA,S_Image_56.bmp-S_Lure_56.bmp,1,1,3
207,3,35,board,3,1,1,0.64899,1,NA,O_Image_35.bmp-O_Lure_35.bmp,1,1,2
208,3,6,army,3,1,1,0.68477,1,NA,F_Image_6.bmp-F_Lure_6.bmp,1,0,1
209,3,34,giant,3,1,1,0.82256,1,NA,O_Image_34.bmp-O_Lure_34.bmp,1,0,2
210,3,16,fire,3,1,1,0.74739,1,NA,F_Image_16.bmp-F_Lure_16.bmp,1,1,1
211,3,17,cone,3,1,1,0.9787,1,NA,F_Image_17.bmp-F_Lure_17.bmp,1,0,1
212,3,14,angel,3,2,2,0.98471,1,NA,F_Image_14.bmp-F_Lure_14.bmp,1,0,1
213,3,28,alcohol,3,2,2,0.6869,1,NA,O_Image_28.bmp-O_Lure_28.bmp,1,1,2
214,3,38,marble,3,2,2,0.77745,1,NA,O_Image_38.bmp-O_Lure_38.bmp,1,0,2
215,3,11,arrow,3,2,2,0.99171,1,NA,F_Image_11.bmp-F_Lure_11.bmp,1,0,1
216,3,21,animal,3,2,2,0.77389,1,NA,F_Image_21.bmp-F_Lure_21.bmp,1,0,1
217,4,50,arch,1,2,2,1.942,1,NA,S_Image_50.bmp-S_Lure_50.bmp,2,1,3
218,4,67,board,1,1,1,1.6623,1,NA,S_Image_67.bmp-S_Lure_67.bmp,2,1,3
219,4,65,ghost,1,2,2,1.0808,1,NA,S_Image_65.bmp-S_Lure_65.bmp,2,1,3
220,4,2,galaxy,1,2,2,0.82699,1,NA,F_Image_2.bmp-F_Lure_2.bmp,2,0,1
221,4,13,cloud,1,2,2,0.94305,1,NA,F_Image_13.bmp-F_Lure_13.bmp,2,1,1
222,4,46,drizzle,1,2,2,0.77532,1,NA,O_Image_46.bmp-O_Lure_46.bmp,2,0,2
223,4,61,army,1,2,2,1.1424,1,NA,S_Image_61.bmp-S_Lure_61.bmp,2,0,3
224,4,15,attack,1,1,1,0.94993,1,NA,F_Image_15.bmp-F_Lure_15.bmp,2,0,1
225,4,20,kiss,1,1,1,0.94964,1,NA,F_Image_20.bmp-F_Lure_20.bmp,2,1,1
226,4,37,fire,1,1,2,1.1009,0,NA,O_Image_37.bmp-O_Lure_37.bmp,2,1,2
227,4,24,lever,1,2,2,1.118,1,NA,F_Image_24.bmp-F_Lure_24.bmp,2,0,1
228,4,9,hostage,1,2,2,0.82288,1,NA,F_Image_9.bmp-F_Lure_9.bmp,2,1,1
229,4,31,corpse,2,2,2,0.77908,1,NA,O_Image_31.bmp-O_Lure_31.bmp,2,1,2
230,4,10,laundry,2,2,2,0.80127,1,NA,F_Image_10.bmp-F_Lure_10.bmp,2,1,1
231,4,12,fuel,2,2,2,0.8389,1,NA,F_Image_12.bmp-F_Lure_12.bmp,2,0,1
232,4,29,hurricane,2,2,2,0.67463,1,NA,O_Image_29.bmp-O_Lure_29.bmp,2,1,2
233,4,48,arrow,2,2,1,0.72555,0,NA,O_Image_48.bmp-O_Lure_48.bmp,2,0,2
234,4,25,angel,2,2,2,0.51037,1,NA,O_Image_25.bmp-O_Lure_25.bmp,2,0,2
235,4,36,flood,2,2,2,0.60818,1,NA,O_Image_36.bmp-O_Lure_36.bmp,2,1,2
236,4,71,costume,2,2,2,1.1969,1,NA,S_Image_71.bmp-S_Lure_71.bmp,2,0,3
237,4,49,marble,2,1,2,0.67428,0,NA,S_Image_49.bmp-S_Lure_49.bmp,2,0,3
238,4,43,bubble,2,2,2,0.5575,1,NA,O_Image_43.bmp-O_Lure_43.bmp,2,0,2
239,4,39,corner,2,2,2,0.66063,1,NA,O_Image_39.bmp-O_Lure_39.bmp,2,0,2
240,4,4,alcohol,2,2,2,0.57626,1,NA,F_Image_4.bmp-F_Lure_4.bmp,2,1,1
241,4,52,breakfast,3,1,2,0.86194,0,NA,S_Image_52.bmp-S_Lure_52.bmp,2,1,3
242,4,59,cone,3,2,2,0.64912,1,NA,S_Image_59.bmp-S_Lure_59.bmp,2,0,3
243,4,64,harem,3,2,2,0.67637,1,NA,S_Image_64.bmp-S_Lure_64.bmp,2,0,3
244,4,57,alien,3,2,2,0.72695,1,NA,S_Image_57.bmp-S_Lure_57.bmp,2,1,3
245,4,23,giant,3,2,2,0.5999,1,NA,F_Image_23.bmp-F_Lure_23.bmp,2,0,1
246,4,66,crumb,3,2,2,0.88544,1,NA,S_Image_66.bmp-S_Lure_66.bmp,2,1,3
247,4,44,magnet,3,2,2,0.55148,1,NA,O_Image_44.bmp-O_Lure_44.bmp,2,1,2
248,4,18,antique,3,2,2,0.75882,1,NA,F_Image_18.bmp-F_Lure_18.bmp,2,1,1
249,4,53,honeymoon,3,2,2,0.51046,1,NA,S_Image_53.bmp-S_Lure_53.bmp,2,1,3
250,4,27,black,3,2,2,0.68796,1,NA,O_Image_27.bmp-O_Lure_27.bmp,2,0,2
251,4,26,animal,3,1,2,0.64137,0,NA,O_Image_26.bmp-O_Lure_26.bmp,2,0,2
252,4,1,asphalt,3,1,2,0.62135,0,NA,F_Image_1.bmp-F_Lure_1.bmp,2,0,1
253,5,32.24,lever,NA,2,3,0.24148,0,1,O_Image_32.bmp-F_Lure_24.bmp,NA,0,2.1
254,5,11.48,arrow,NA,1,2,0.77196,0,1,F_Image_11.bmp-O_Lure_48.bmp,NA,0,1.2
255,5,21.26,animal,NA,1,1,0.00011651,1,1,F_Image_21.bmp-O_Lure_26.bmp,NA,0,1.2
256,5,72.12,fuel,NA,3,1,0.47904,0,1,S_Image_72.bmp-F_Lure_12.bmp,NA,0,3.1
257,5,34.23,giant,NA,2,1,0.27231,0,1,O_Image_34.bmp-F_Lure_23.bmp,NA,0,2.1
258,5,5.64,harem,NA,1,1,0.49873,1,1,F_Image_5.bmp-S_Lure_64.bmp,NA,0,1.3
259,5,69.39,corner,NA,3,1,0.00012406,0,1,S_Image_69.bmp-O_Lure_39.bmp,NA,0,3.2
260,5,34.23,giant,NA,2,3,1.5012,0,2,O_Image_34.bmp-F_Lure_23.bmp,NA,0,2.1
261,5,62.46,drizzle,NA,3,2,0.66348,0,1,S_Image_62.bmp-O_Lure_46.bmp,NA,0,3.2
262,5,6.61,army,NA,1,0,2.5004,0,1,F_Image_6.bmp-S_Lure_61.bmp,NA,0,1.3
263,5,55.27,black,NA,3,3,0.59512,1,1,S_Image_55.bmp-O_Lure_27.bmp,NA,0,3.2
264,5,21.26,animal,NA,1,1,0.36428,1,2,F_Image_21.bmp-O_Lure_26.bmp,NA,0,1.2
265,5,6.61,army,NA,1,1,0.14161,1,2,F_Image_6.bmp-S_Lure_61.bmp,NA,0,1.3
266,5,11.48,arrow,NA,1,1,0.51136,1,2,F_Image_11.bmp-O_Lure_48.bmp,NA,0,1.2
267,5,69.39,corner,NA,3,2,1.2964,0,2,S_Image_69.bmp-O_Lure_39.bmp,NA,0,3.2
268,5,17.59,cone,NA,1,3,0.2423,0,1,F_Image_17.bmp-S_Lure_59.bmp,NA,0,1.3
269,5,54.15,attack,NA,3,1,0.58737,0,1,S_Image_54.bmp-F_Lure_15.bmp,NA,0,3.1
270,5,72.12,fuel,NA,3,1,0.76565,0,2,S_Image_72.bmp-F_Lure_12.bmp,NA,0,3.1
271,5,54.15,attack,NA,3,3,0.33481,1,2,S_Image_54.bmp-F_Lure_15.bmp,NA,0,3.1
272,5,38.49,marble,NA,2,0,2.5004,0,1,O_Image_38.bmp-S_Lure_49.bmp,NA,0,2.3
273,5,68.01,asphalt,NA,3,0,2.5006,0,1,S_Image_68.bmp-F_Lure_1.bmp,NA,0,3.1
274,5,54.15,attack,NA,3,4,0.63621,0,3,S_Image_54.bmp-F_Lure_15.bmp,NA,0,3.1
275,5,38.49,marble,NA,2,1,0.48662,0,2,O_Image_38.bmp-S_Lure_49.bmp,NA,0,2.3
276,5,14.25,angel,NA,1,1,0.4406,1,1,F_Image_14.bmp-O_Lure_25.bmp,NA,0,1.2
277,5,30.02,galaxy,NA,2,2,0.33058,1,1,O_Image_30.bmp-F_Lure_2.bmp,NA,0,2.1
278,5,6.61,army,NA,1,3,0.62839,0,3,F_Image_6.bmp-S_Lure_61.bmp,NA,0,1.3
279,5,8.43,bubble,NA,1,1,0.053559,1,1,F_Image_8.bmp-O_Lure_43.bmp,NA,0,1.2
280,5,14.25,angel,NA,1,1,0.31984,1,2,F_Image_14.bmp-O_Lure_25.bmp,NA,0,1.2
281,5,62.46,drizzle,NA,3,2,0.58568,0,2,S_Image_62.bmp-O_Lure_46.bmp,NA,0,3.2
282,5,5.64,harem,NA,1,1,0.57102,1,2,F_Image_5.bmp-S_Lure_64.bmp,NA,0,1.3
283,5,55.27,black,NA,3,3,0.24508,1,2,S_Image_55.bmp-O_Lure_27.bmp,NA,0,3.2
284,5,32.24,lever,NA,2,2,0.2865,1,2,O_Image_32.bmp-F_Lure_24.bmp,NA,0,2.1
285,5,62.46,drizzle,NA,3,3,0.57687,1,3,S_Image_62.bmp-O_Lure_46.bmp,NA,0,3.2
286,5,69.39,corner,NA,3,2,0.56225,0,3,S_Image_69.bmp-O_Lure_39.bmp,NA,0,3.2
287,5,5.64,harem,NA,1,1,0.27581,1,3,F_Image_5.bmp-S_Lure_64.bmp,NA,0,1.3
288,5,68.01,asphalt,NA,3,3,0.27719,1,2,S_Image_68.bmp-F_Lure_1.bmp,NA,0,3.1
289,5,21.26,animal,NA,1,1,0.51838,1,3,F_Image_21.bmp-O_Lure_26.bmp,NA,0,1.2
290,5,11.48,arrow,NA,1,4,0.59999,0,3,F_Image_11.bmp-O_Lure_48.bmp,NA,0,1.2
291,5,30.02,galaxy,NA,2,2,0.31348,1,2,O_Image_30.bmp-F_Lure_2.bmp,NA,0,2.1
292,5,19.71,costume,NA,1,1,0.33045,1,1,F_Image_19.bmp-S_Lure_71.bmp,NA,0,1.3
293,5,14.25,angel,NA,1,1,0.50802,1,3,F_Image_14.bmp-O_Lure_25.bmp,NA,0,1.2
294,5,54.15,attack,NA,3,1,0.8699,0,4,S_Image_54.bmp-F_Lure_15.bmp,NA,0,3.1
295,5,8.43,bubble,NA,1,1,0.28847,1,2,F_Image_8.bmp-O_Lure_43.bmp,NA,0,1.2
296,5,11.48,arrow,NA,1,3,0.010594,0,4,F_Image_11.bmp-O_Lure_48.bmp,NA,0,1.2
297,5,8.43,bubble,NA,1,1,0.25987,1,3,F_Image_8.bmp-O_Lure_43.bmp,NA,0,1.2
298,5,30.02,galaxy,NA,2,2,0.24532,1,3,O_Image_30.bmp-F_Lure_2.bmp,NA,0,2.1
299,5,55.27,black,NA,3,3,0.26284,1,3,S_Image_55.bmp-O_Lure_27.bmp,NA,0,3.2
300,5,8.43,bubble,NA,1,1,0.36783,1,4,F_Image_8.bmp-O_Lure_43.bmp,NA,0,1.2
301,5,19.71,costume,NA,1,1,0.32141,1,2,F_Image_19.bmp-S_Lure_71.bmp,NA,0,1.3
302,5,14.25,angel,NA,1,1,0.37978,1,4,F_Image_14.bmp-O_Lure_25.bmp,NA,0,1.2
303,5,5.64,harem,NA,1,1,0.4132,1,4,F_Image_5.bmp-S_Lure_64.bmp,NA,0,1.3
304,5,62.46,drizzle,NA,3,1,0.35838,0,4,S_Image_62.bmp-O_Lure_46.bmp,NA,0,3.2
305,5,68.01,asphalt,NA,3,3,1.1043,1,3,S_Image_68.bmp-F_Lure_1.bmp,NA,0,3.1
306,5,19.71,costume,NA,1,1,0.52226,1,3,F_Image_19.bmp-S_Lure_71.bmp,NA,0,1.3
307,5,72.12,fuel,NA,3,3,0.42853,1,3,S_Image_72.bmp-F_Lure_12.bmp,NA,0,3.1
308,5,17.59,cone,NA,1,1,0.29416,1,2,F_Image_17.bmp-S_Lure_59.bmp,NA,0,1.3
309,5,19.71,costume,NA,1,1,0.67155,1,4,F_Image_19.bmp-S_Lure_71.bmp,NA,0,1.3
310,5,32.24,lever,NA,2,1,0.24141,0,3,O_Image_32.bmp-F_Lure_24.bmp,NA,0,2.1
311,5,69.39,corner,NA,3,2,0.57188,0,4,S_Image_69.bmp-O_Lure_39.bmp,NA,0,3.2
312,5,34.23,giant,NA,2,3,0.33362,0,3,O_Image_34.bmp-F_Lure_23.bmp,NA,0,2.1
313,5,17.59,cone,NA,1,1,0.52738,1,3,F_Image_17.bmp-S_Lure_59.bmp,NA,0,1.3
314,5,32.24,lever,NA,2,3,0.80823,0,4,O_Image_32.bmp-F_Lure_24.bmp,NA,0,2.1
315,5,38.49,marble,NA,2,3,0.31453,0,3,O_Image_38.bmp-S_Lure_49.bmp,NA,0,2.3
316,5,68.01,asphalt,NA,3,3,0.3329,1,4,S_Image_68.bmp-F_Lure_1.bmp,NA,0,3.1
317,5,30.02,galaxy,NA,2,2,0.24525,1,4,O_Image_30.bmp-F_Lure_2.bmp,NA,0,2.1
318,5,6.61,army,NA,1,1,0.74328,1,4,F_Image_6.bmp-S_Lure_61.bmp,NA,0,1.3
319,5,34.23,giant,NA,2,3,0.50438,0,4,O_Image_34.bmp-F_Lure_23.bmp,NA,0,2.1
320,5,21.26,animal,NA,1,1,0.29023,1,4,F_Image_21.bmp-O_Lure_26.bmp,NA,0,1.2
321,5,38.49,marble,NA,2,3,0.34017,0,4,O_Image_38.bmp-S_Lure_49.bmp,NA,0,2.3
322,5,17.59,cone,NA,1,1,0.32667,1,4,F_Image_17.bmp-S_Lure_59.bmp,NA,0,1.3
323,5,72.12,fuel,NA,3,1,0.51175,0,4,S_Image_72.bmp-F_Lure_12.bmp,NA,0,3.1
324,5,55.27,black,NA,3,3,1.7691,1,4,S_Image_55.bmp-O_Lure_27.bmp,NA,0,3.2
325,6,15,attack,NA,2,2,1.2519,1,NA,F_Image_15.bmp-F_Lure_15.bmp,1,0,1
326,6,61,army,NA,2,2,1.1516,1,NA,S_Image_61.bmp-S_Lure_61.bmp,1,0,3
327,6,65,ghost,NA,1,2,1.1361,0,NA,S_Image_65.bmp-S_Lure_65.bmp,1,1,3
328,6,13,cloud,NA,1,1,0.88089,1,NA,F_Image_13.bmp-F_Lure_13.bmp,1,1,1
329,6,63,flood,NA,2,1,2.795,0,NA,S_Image_63.bmp-S_Lure_63.bmp,1,1,3
330,6,34,giant,NA,1,0,3.5001,0,NA,O_Image_34.bmp-O_Lure_34.bmp,1,0,2
331,6,71,costume,NA,2,0,3.4998,0,NA,S_Image_71.bmp-S_Lure_71.bmp,1,0,3
332,6,58,hurricane,NA,2,1,1.5819,0,NA,S_Image_58.bmp-S_Lure_58.bmp,1,1,3
333,6,9,hostage,NA,1,1,0.32485,1,NA,F_Image_9.bmp-F_Lure_9.bmp,1,1,1
334,6,53,honeymoon,NA,1,1,0.3181,1,NA,S_Image_53.bmp-S_Lure_53.bmp,1,1,3
335,6,48,arrow,NA,2,1,0.35942,0,NA,O_Image_48.bmp-O_Lure_48.bmp,1,0,2
336,6,19,costume,NA,1,1,0.26323,1,NA,F_Image_19.bmp-F_Lure_19.bmp,1,0,1
337,6,25,angel,NA,2,1,0.2591,0,NA,O_Image_25.bmp-O_Lure_25.bmp,1,0,2
338,6,47,laundry,NA,2,1,0.28704,0,NA,O_Image_47.bmp-O_Lure_47.bmp,1,1,2
339,6,66,crumb,NA,2,1,0.24235,0,NA,S_Image_66.bmp-S_Lure_66.bmp,1,1,3
340,6,6,army,NA,1,1,0.25403,1,NA,F_Image_6.bmp-F_Lure_6.bmp,1,0,1
341,6,62,drizzle,NA,1,1,0.23408,1,NA,S_Image_62.bmp-S_Lure_62.bmp,1,0,3
342,6,45,honeymoon,NA,1,1,0.24679,1,NA,O_Image_45.bmp-O_Lure_45.bmp,1,1,2
343,6,32,lever,NA,2,1,0.25866,0,NA,O_Image_32.bmp-O_Lure_32.bmp,1,0,2
344,6,54,attack,NA,2,1,0.23863,0,NA,S_Image_54.bmp-S_Lure_54.bmp,1,0,3
345,6,37,fire,NA,2,1,0.22784,0,NA,O_Image_37.bmp-O_Lure_37.bmp,1,1,2
346,6,33,hostage,NA,1,1,0.21711,1,NA,O_Image_33.bmp-O_Lure_33.bmp,1,1,2
347,6,70,kiss,NA,2,1,0.20622,0,NA,S_Image_70.bmp-S_Lure_70.bmp,1,1,3
348,6,56,antique,NA,1,1,0.22115,1,NA,S_Image_56.bmp-S_Lure_56.bmp,1,1,3
349,6,17,cone,NA,1,1,0.21764,1,NA,F_Image_17.bmp-F_Lure_17.bmp,1,0,1
350,6,36,flood,NA,2,1,0.20723,0,NA,O_Image_36.bmp-O_Lure_36.bmp,1,1,2
351,6,1,asphalt,NA,1,1,0.20487,1,NA,F_Image_1.bmp-F_Lure_1.bmp,1,0,1
352,6,26,animal,NA,2,1,0.21952,0,NA,O_Image_26.bmp-O_Lure_26.bmp,1,0,2
353,6,24,lever,NA,2,1,0.22465,0,NA,F_Image_24.bmp-F_Lure_24.bmp,1,0,1
354,6,72,fuel,NA,2,1,0.22166,0,NA,S_Image_72.bmp-S_Lure_72.bmp,1,0,3
355,6,31,corpse,NA,2,1,0.23502,0,NA,O_Image_31.bmp-O_Lure_31.bmp,1,1,2
356,6,64,harem,NA,1,1,0.28764,1,NA,S_Image_64.bmp-S_Lure_64.bmp,1,0,3
357,6,30,galaxy,NA,2,1,0.25849,0,NA,O_Image_30.bmp-O_Lure_30.bmp,1,0,2
358,6,27,black,NA,2,1,0.36621,0,NA,O_Image_27.bmp-O_Lure_27.bmp,1,0,2
359,6,40,ghost,NA,2,1,0.34986,0,NA,O_Image_40.bmp-O_Lure_40.bmp,1,1,2
360,6,14,angel,NA,1,1,0.23762,1,NA,F_Image_14.bmp-F_Lure_14.bmp,1,0,1
361,6,50,arch,NA,1,1,0.24285,1,NA,S_Image_50.bmp-S_Lure_50.bmp,1,1,3
362,6,59,cone,NA,1,1,0.18298,1,NA,S_Image_59.bmp-S_Lure_59.bmp,1,0,3
363,6,8,bubble,NA,2,1,0.30199,0,NA,F_Image_8.bmp-F_Lure_8.bmp,1,0,1
364,6,28,alcohol,NA,2,1,0.36,0,NA,O_Image_28.bmp-O_Lure_28.bmp,1,1,2
365,6,23,giant,NA,2,1,0.24078,0,NA,F_Image_23.bmp-F_Lure_23.bmp,1,0,1
366,6,35,board,NA,1,1,0.21255,1,NA,O_Image_35.bmp-O_Lure_35.bmp,1,1,2
367,6,20,kiss,NA,1,1,0.32979,1,NA,F_Image_20.bmp-F_Lure_20.bmp,1,1,1
368,6,4,alcohol,NA,1,1,0.24264,1,NA,F_Image_4.bmp-F_Lure_4.bmp,1,1,1
369,6,16,fire,NA,2,1,0.23143,0,NA,F_Image_16.bmp-F_Lure_16.bmp,1,1,1
370,6,69,corner,NA,1,1,0.20408,1,NA,S_Image_69.bmp-S_Lure_69.bmp,1,0,3
371,6,60,cloud,NA,1,1,0.23394,1,NA,S_Image_60.bmp-S_Lure_60.bmp,1,1,3
372,6,46,drizzle,NA,2,1,0.24676,0,NA,O_Image_46.bmp-O_Lure_46.bmp,1,0,2
373,6,2,galaxy,NA,1,1,0.25061,1,NA,F_Image_2.bmp-F_Lure_2.bmp,1,0,1
374,6,12,fuel,NA,2,1,0.21473,0,NA,F_Image_12.bmp-F_Lure_12.bmp,1,0,1
375,6,42,breakfast,NA,1,1,0.22793,1,NA,O_Image_42.bmp-O_Lure_42.bmp,1,1,2
376,6,11,arrow,NA,1,1,0.20931,1,NA,F_Image_11.bmp-F_Lure_11.bmp,1,0,1
377,6,29,hurricane,NA,2,1,0.24725,0,NA,O_Image_29.bmp-O_Lure_29.bmp,1,1,2
378,6,44,magnet,NA,1,1,0.24335,1,NA,O_Image_44.bmp-O_Lure_44.bmp,1,1,2
379,6,68,asphalt,NA,1,1,0.20823,1,NA,S_Image_68.bmp-S_Lure_68.bmp,1,0,3
380,6,55,black,NA,1,1,0.094824,1,NA,S_Image_55.bmp-S_Lure_55.bmp,1,0,3
381,6,39,corner,NA,2,1,0.28903,0,NA,O_Image_39.bmp-O_Lure_39.bmp,1,0,2
382,6,67,board,NA,1,1,0.26758,1,NA,S_Image_67.bmp-S_Lure_67.bmp,1,1,3
383,6,5,harem,NA,1,1,0.27068,1,NA,F_Image_5.bmp-F_Lure_5.bmp,1,0,1
384,6,49,marble,NA,1,1,0.30604,1,NA,S_Image_49.bmp-S_Lure_49.bmp,1,0,3
385,6,18,antique,NA,1,1,0.1805,1,NA,F_Image_18.bmp-F_Lure_18.bmp,1,1,1
386,6,21,animal,NA,2,1,0.17906,0,NA,F_Image_21.bmp-F_Lure_21.bmp,1,0,1
387,6,10,laundry,NA,1,1,0.18652,1,NA,F_Image_10.bmp-F_Lure_10.bmp,1,1,1
388,6,51,magnet,NA,2,1,0.17695,0,NA,S_Image_51.bmp-S_Lure_51.bmp,1,1,3
389,6,57,alien,NA,2,1,0.20078,0,NA,S_Image_57.bmp-S_Lure_57.bmp,1,1,3
390,6,22,arch,NA,1,1,0.22226,1,NA,F_Image_22.bmp-F_Lure_22.bmp,1,1,1
391,6,52,breakfast,NA,2,1,0.20339,0,NA,S_Image_52.bmp-S_Lure_52.bmp,1,1,3
392,6,38,marble,NA,2,1,0.29781,0,NA,O_Image_38.bmp-O_Lure_38.bmp,1,0,2
393,6,41,crumb,NA,1,1,0.29173,1,NA,O_Image_41.bmp-O_Lure_41.bmp,1,1,2
394,6,3,alien,NA,2,1,0.21487,0,NA,F_Image_3.bmp-F_Lure_3.bmp,1,1,1
395,6,43,bubble,NA,1,1,0.23587,1,NA,O_Image_43.bmp-O_Lure_43.bmp,1,0,2
396,6,7,corpse,NA,2,1,0.00014428,0,NA,F_Image_7.bmp-F_Lure_7.bmp,1,1,1
