Trial,Cond,ImageNum,Cue,Block,Correct,Response,RT,Accuracy,CueRep,fName,ImageType,Baseline,Category
1,1,110,NA,NA,NA,1,0.95149,NA,NA,S_Lure_110.bmp,0,1,3
2,1,31,NA,NA,NA,1,0.365,NA,NA,F_Lure_31.bmp,0,1,1
3,1,123,NA,NA,NA,1,0.025626,NA,NA,S_Image_123.bmp,2,0,3
4,1,40,NA,NA,NA,1,0.0002291,NA,NA,F_Lure_40.bmp,0,1,1
5,1,87,NA,NA,NA,1,0.28964,NA,NA,O_Image_87.bmp,2,1,2
6,1,98,NA,NA,NA,1,1.4483,NA,NA,S_Image_98.bmp,2,0,3
7,1,103,NA,NA,NA,1,1.2333,NA,NA,S_Image_103.bmp,1,1,3
8,1,64,NA,NA,NA,1,0.27364,NA,NA,O_Lure_64.bmp,0,0,2
9,1,29,NA,NA,NA,1,0.063523,NA,NA,F_Lure_29.bmp,0,1,1
10,1,133,NA,NA,NA,2,0.13437,NA,NA,S_Image_133.bmp,2,1,3
11,1,1,NA,NA,NA,1,0.31532,NA,NA,F_Lure_1.bmp,0,0,1
12,1,48,NA,NA,NA,1,0.3919,NA,NA,F_Image_48.bmp,1,0,1
13,1,4,NA,NA,NA,1,0.36911,NA,NA,F_Image_4.bmp,1,1,1
14,1,51,NA,NA,NA,1,0.35882,NA,NA,O_Lure_51.bmp,0,1,2
15,1,36,NA,NA,NA,2,0.33495,NA,NA,F_Lure_36.bmp,0,0,1
16,1,73,NA,NA,NA,1,0.65529,NA,NA,O_Image_73.bmp,1,1,2
17,1,139,NA,NA,NA,1,0.31341,NA,NA,S_Image_139.bmp,1,1,3
18,1,132,NA,NA,NA,1,2.4576,NA,NA,S_Image_132.bmp,1,0,3
19,1,19,NA,NA,NA,1,1.4316,NA,NA,F_Lure_19.bmp,0,1,1
20,1,111,NA,NA,NA,1,0.669,NA,NA,S_Lure_111.bmp,0,1,3
21,1,56,NA,NA,NA,1,0.42946,NA,NA,O_Lure_56.bmp,0,0,2
22,1,140,NA,NA,NA,1,0.42298,NA,NA,S_Lure_140.bmp,0,0,3
23,1,50,NA,NA,NA,1,0.73962,NA,NA,O_Lure_50.bmp,0,1,2
24,1,53,NA,NA,NA,1,0.40224,NA,NA,O_Image_53.bmp,1,0,2
25,1,116,NA,NA,NA,1,0.28078,NA,NA,S_Lure_116.bmp,0,1,3
26,1,142,NA,NA,NA,1,0.46946,NA,NA,S_Lure_142.bmp,0,0,3
27,1,37,NA,NA,NA,1,0.42118,NA,NA,F_Lure_37.bmp,0,0,1
28,1,54,NA,NA,NA,1,0.59982,NA,NA,O_Lure_54.bmp,0,0,2
29,1,33,NA,NA,NA,1,0.34476,NA,NA,F_Lure_33.bmp,0,0,1
30,1,67,NA,NA,NA,1,0.61419,NA,NA,O_Lure_67.bmp,0,0,2
31,1,101,NA,NA,NA,2,1.2169,NA,NA,S_Image_101.bmp,2,0,3
32,1,24,NA,NA,NA,1,0.37948,NA,NA,F_Lure_24.bmp,0,1,1
33,1,83,NA,NA,NA,1,0.39534,NA,NA,O_Image_83.bmp,1,1,2
34,1,130,NA,NA,NA,2,0.36466,NA,NA,S_Image_130.bmp,2,1,3
35,1,108,NA,NA,NA,2,0.53565,NA,NA,S_Image_108.bmp,1,0,3
36,1,77,NA,NA,NA,1,0.28096,NA,NA,O_Image_77.bmp,1,0,2
37,1,122,NA,NA,NA,2,0.35143,NA,NA,S_Image_122.bmp,1,0,3
38,1,46,NA,NA,NA,2,0.75427,NA,NA,F_Lure_46.bmp,0,0,1
39,1,25,NA,NA,NA,1,0.30891,NA,NA,F_Lure_25.bmp,0,1,1
40,1,58,NA,NA,NA,1,0.34075,NA,NA,O_Image_58.bmp,1,0,2
41,1,38,NA,NA,NA,1,0.47833,NA,NA,F_Image_38.bmp,2,0,1
42,1,14,NA,NA,NA,1,0.40006,NA,NA,F_Lure_14.bmp,0,1,1
43,1,70,NA,NA,NA,1,0.24875,NA,NA,O_Lure_70.bmp,0,0,2
44,1,134,NA,NA,NA,2,0.44359,NA,NA,S_Lure_134.bmp,0,1,3
45,1,63,NA,NA,NA,1,0.39505,NA,NA,O_Image_63.bmp,2,1,2
46,1,35,NA,NA,NA,2,0.59945,NA,NA,F_Image_35.bmp,1,0,1
47,1,88,NA,NA,NA,1,0.31924,NA,NA,O_Lure_88.bmp,0,0,2
48,1,15,NA,NA,NA,2,0.47471,NA,NA,F_Image_15.bmp,2,0,1
49,1,39,NA,NA,NA,2,0.4399,NA,NA,F_Lure_39.bmp,0,0,1
50,1,86,NA,NA,NA,1,0.38056,NA,NA,O_Image_86.bmp,2,1,2
51,1,69,NA,NA,NA,1,0.63416,NA,NA,O_Lure_69.bmp,0,0,2
52,1,31,NA,NA,NA,1,0.61114,NA,NA,F_Image_31.bmp,2,1,1
53,1,95,NA,NA,NA,1,0.55547,NA,NA,O_Lure_95.bmp,0,0,2
54,1,34,NA,NA,NA,1,0.47733,NA,NA,F_Image_34.bmp,1,1,1
55,1,23,NA,NA,NA,1,1.3264,NA,NA,F_Lure_23.bmp,0,1,1
56,1,88,NA,NA,NA,1,0.55021,NA,NA,O_Image_88.bmp,2,0,2
57,1,6,NA,NA,NA,1,0.32478,NA,NA,F_Image_6.bmp,2,1,1
58,1,10,NA,NA,NA,1,0.53246,NA,NA,F_Image_10.bmp,2,0,1
59,1,66,NA,NA,NA,1,0.23636,NA,NA,O_Lure_66.bmp,0,0,2
60,1,104,NA,NA,NA,2,0.72308,NA,NA,S_Image_104.bmp,1,1,3
61,1,103,NA,NA,NA,1,0.29831,NA,NA,S_Lure_103.bmp,0,1,3
62,1,90,NA,NA,NA,1,0.30344,NA,NA,O_Lure_90.bmp,0,1,2
63,1,119,NA,NA,NA,1,0.28595,NA,NA,S_Image_119.bmp,2,0,3
64,1,56,NA,NA,NA,1,0.25635,NA,NA,O_Image_56.bmp,1,0,2
65,1,68,NA,NA,NA,1,0.35376,NA,NA,O_Image_68.bmp,2,1,2
66,1,65,NA,NA,NA,1,0.53603,NA,NA,O_Lure_65.bmp,0,1,2
67,1,113,NA,NA,NA,1,0.42426,NA,NA,S_Lure_113.bmp,0,1,3
68,1,95,NA,NA,NA,1,0.29564,NA,NA,O_Image_95.bmp,2,0,2
69,1,59,NA,NA,NA,1,0.42689,NA,NA,O_Lure_59.bmp,0,1,2
70,1,143,NA,NA,NA,1,0.98603,NA,NA,S_Image_143.bmp,2,0,3
71,1,112,NA,NA,NA,1,0.41966,NA,NA,S_Lure_112.bmp,0,0,3
72,1,7,NA,NA,NA,1,0.33312,NA,NA,F_Image_7.bmp,1,0,1
73,1,137,NA,NA,NA,1,0.37016,NA,NA,S_Lure_137.bmp,0,1,3
74,1,93,NA,NA,NA,1,0.2204,NA,NA,O_Lure_93.bmp,0,0,2
75,1,138,NA,NA,NA,1,0.39575,NA,NA,S_Image_138.bmp,1,0,3
76,1,120,NA,NA,NA,2,0.98333,NA,NA,S_Lure_120.bmp,0,0,3
77,1,125,NA,NA,NA,1,0.3015,NA,NA,S_Lure_125.bmp,0,0,3
78,1,105,NA,NA,NA,1,0.40433,NA,NA,S_Image_105.bmp,1,0,3
79,1,102,NA,NA,NA,1,0.46754,NA,NA,S_Lure_102.bmp,0,1,3
80,1,26,NA,NA,NA,1,0.2297,NA,NA,F_Image_26.bmp,2,0,1
81,1,50,NA,NA,NA,1,0.40875,NA,NA,O_Image_50.bmp,2,1,2
82,1,94,NA,NA,NA,1,0.30179,NA,NA,O_Image_94.bmp,2,0,2
83,1,71,NA,NA,NA,1,0.23757,NA,NA,O_Lure_71.bmp,0,1,2
84,1,91,NA,NA,NA,1,0.2852,NA,NA,O_Lure_91.bmp,0,1,2
85,1,2,NA,NA,NA,1,0.8228,NA,NA,F_Lure_2.bmp,0,0,1
86,1,126,NA,NA,NA,1,0.34833,NA,NA,S_Image_126.bmp,1,0,3
87,1,59,NA,NA,NA,1,0.20691,NA,NA,O_Image_59.bmp,1,1,2
88,1,18,NA,NA,NA,1,6.5849,NA,NA,F_Lure_18.bmp,0,1,1
89,1,11,NA,NA,NA,1,0.32822,NA,NA,F_Lure_11.bmp,0,1,1
90,1,106,NA,NA,NA,1,1.0866,NA,NA,S_Lure_106.bmp,0,0,3
91,1,125,NA,NA,NA,1,0.37599,NA,NA,S_Image_125.bmp,2,0,3
92,1,123,NA,NA,NA,1,0.35379,NA,NA,S_Lure_123.bmp,0,0,3
93,1,60,NA,NA,NA,1,0.33645,NA,NA,O_Lure_60.bmp,0,0,2
94,1,19,NA,NA,NA,1,0.32466,NA,NA,F_Image_19.bmp,1,1,1
95,1,112,NA,NA,NA,1,0.33189,NA,NA,S_Image_112.bmp,1,0,3
96,1,92,NA,NA,NA,1,0.33249,NA,NA,O_Lure_92.bmp,0,1,2
97,1,10,NA,NA,NA,1,0.29369,NA,NA,F_Lure_10.bmp,0,0,1
98,1,16,NA,NA,NA,1,0.32939,NA,NA,F_Lure_16.bmp,0,1,1
99,1,89,NA,NA,NA,1,0.32334,NA,NA,O_Image_89.bmp,1,1,2
100,1,84,NA,NA,NA,1,0.3762,NA,NA,O_Image_84.bmp,1,1,2
101,1,114,NA,NA,NA,1,0.32102,NA,NA,S_Image_114.bmp,1,0,3
102,1,69,NA,NA,NA,1,0.28754,NA,NA,O_Image_69.bmp,1,0,2
103,1,37,NA,NA,NA,1,0.3128,NA,NA,F_Image_37.bmp,2,0,1
104,1,9,NA,NA,NA,1,0.27822,NA,NA,F_Lure_9.bmp,0,1,1
105,1,111,NA,NA,NA,1,0.29178,NA,NA,S_Image_111.bmp,1,1,3
106,1,33,NA,NA,NA,1,0.20692,NA,NA,F_Image_33.bmp,1,0,1
107,1,68,NA,NA,NA,1,0.31223,NA,NA,O_Lure_68.bmp,0,1,2
108,1,42,NA,NA,NA,1,0.45928,NA,NA,F_Image_42.bmp,2,0,1
109,1,115,NA,NA,NA,1,0.78083,NA,NA,S_Lure_115.bmp,0,1,3
110,1,124,NA,NA,NA,1,0.6269,NA,NA,S_Image_124.bmp,2,1,3
111,1,105,NA,NA,NA,1,0.31737,NA,NA,S_Lure_105.bmp,0,0,3
112,1,70,NA,NA,NA,1,0.28463,NA,NA,O_Image_70.bmp,2,0,2
113,1,8,NA,NA,NA,1,0.38094,NA,NA,F_Image_8.bmp,2,1,1
114,1,80,NA,NA,NA,1,0.26251,NA,NA,O_Lure_80.bmp,0,0,2
115,1,108,NA,NA,NA,1,0.31247,NA,NA,S_Lure_108.bmp,0,0,3
116,1,97,NA,NA,NA,2,1.1798,NA,NA,S_Lure_97.bmp,0,1,3
117,1,41,NA,NA,NA,1,0.89236,NA,NA,F_Image_41.bmp,2,0,1
118,1,99,NA,NA,NA,2,0.97005,NA,NA,S_Image_99.bmp,1,0,3
119,1,58,NA,NA,NA,1,0.20501,NA,NA,O_Lure_58.bmp,0,0,2
120,1,17,NA,NA,NA,1,0.41239,NA,NA,F_Image_17.bmp,1,1,1
121,1,76,NA,NA,NA,1,0.28226,NA,NA,O_Lure_76.bmp,0,1,2
122,1,71,NA,NA,NA,1,0.21874,NA,NA,O_Image_71.bmp,2,1,2
123,1,72,NA,NA,NA,1,0.36035,NA,NA,O_Image_72.bmp,2,0,2
124,1,115,NA,NA,NA,1,0.1375,NA,NA,S_Image_115.bmp,1,1,3
125,1,107,NA,NA,NA,1,0.26256,NA,NA,S_Lure_107.bmp,0,0,3
126,1,126,NA,NA,NA,1,0.36128,NA,NA,S_Lure_126.bmp,0,0,3
127,1,122,NA,NA,NA,1,0.92668,NA,NA,S_Lure_122.bmp,0,0,3
128,1,142,NA,NA,NA,1,0.59679,NA,NA,S_Image_142.bmp,2,0,3
129,1,64,NA,NA,NA,1,0.38278,NA,NA,O_Image_64.bmp,2,0,2
130,1,49,NA,NA,NA,1,0.46461,NA,NA,O_Lure_49.bmp,0,1,2
131,1,45,NA,NA,NA,2,0.28941,NA,NA,F_Lure_45.bmp,0,1,1
132,1,16,NA,NA,NA,1,0.33409,NA,NA,F_Image_16.bmp,1,1,1
133,1,109,NA,NA,NA,1,0.40967,NA,NA,S_Image_109.bmp,1,1,3
134,1,13,NA,NA,NA,1,0.40992,NA,NA,F_Lure_13.bmp,0,0,1
135,1,20,NA,NA,NA,1,1.9031,NA,NA,F_Lure_20.bmp,0,1,1
136,1,21,NA,NA,NA,1,0.68433,NA,NA,F_Image_21.bmp,1,0,1
137,1,27,NA,NA,NA,1,0.72438,NA,NA,F_Image_27.bmp,2,0,1
138,1,136,NA,NA,NA,1,0.65203,NA,NA,S_Image_136.bmp,2,0,3
139,1,3,NA,NA,NA,2,1.0517,NA,NA,F_Lure_3.bmp,0,0,1
140,1,120,NA,NA,NA,1,0.6038,NA,NA,S_Image_120.bmp,1,0,3
141,1,45,NA,NA,NA,1,0.85609,NA,NA,F_Image_45.bmp,2,1,1
142,1,128,NA,NA,NA,1,0.50467,NA,NA,S_Lure_128.bmp,0,1,3
143,1,144,NA,NA,NA,1,0.32686,NA,NA,S_Lure_144.bmp,0,1,3
144,1,104,NA,NA,NA,1,0.33337,NA,NA,S_Lure_104.bmp,0,1,3
145,1,22,NA,NA,NA,1,0.3674,NA,NA,F_Image_22.bmp,2,0,1
146,1,47,NA,NA,NA,1,0.58613,NA,NA,F_Image_47.bmp,1,0,1
147,1,133,NA,NA,NA,2,0.27689,NA,NA,S_Lure_133.bmp,0,1,3
148,1,43,NA,NA,NA,1,0.33486,NA,NA,F_Image_43.bmp,1,1,1
149,1,119,NA,NA,NA,1,0.27421,NA,NA,S_Lure_119.bmp,0,0,3
150,1,94,NA,NA,NA,1,0.0002189,NA,NA,O_Lure_94.bmp,0,0,2
151,1,49,NA,NA,NA,1,0.011361,NA,NA,O_Image_49.bmp,1,1,2
152,1,2,NA,NA,NA,1,1.0347,NA,NA,F_Image_2.bmp,1,0,1
153,1,9,NA,NA,NA,1,0.37831,NA,NA,F_Image_9.bmp,2,1,1
154,1,127,NA,NA,NA,1,0.30658,NA,NA,S_Lure_127.bmp,0,1,3
155,1,118,NA,NA,NA,1,0.11973,NA,NA,S_Lure_118.bmp,0,1,3
156,1,132,NA,NA,NA,1,0.35096,NA,NA,S_Lure_132.bmp,0,0,3
157,1,129,NA,NA,NA,1,0.85375,NA,NA,S_Lure_129.bmp,0,0,3
158,1,139,NA,NA,NA,1,0.34352,NA,NA,S_Lure_139.bmp,0,1,3
159,1,138,NA,NA,NA,1,0.26805,NA,NA,S_Lure_138.bmp,0,0,3
160,1,42,NA,NA,NA,1,0.30938,NA,NA,F_Lure_42.bmp,0,0,1
161,1,80,NA,NA,NA,1,0.29546,NA,NA,O_Image_80.bmp,2,0,2
162,1,81,NA,NA,NA,1,0.31594,NA,NA,O_Image_81.bmp,1,0,2
163,1,51,NA,NA,NA,1,0.35263,NA,NA,O_Image_51.bmp,1,1,2
164,1,67,NA,NA,NA,1,0.3467,NA,NA,O_Image_67.bmp,2,0,2
165,1,117,NA,NA,NA,2,0.3306,NA,NA,S_Lure_117.bmp,0,0,3
166,1,96,NA,NA,NA,1,0.28923,NA,NA,O_Lure_96.bmp,0,0,2
167,1,5,NA,NA,NA,1,0.36077,NA,NA,F_Image_5.bmp,1,1,1
168,1,137,NA,NA,NA,1,0.37268,NA,NA,S_Image_137.bmp,1,1,3
169,1,62,NA,NA,NA,1,0.45153,NA,NA,O_Lure_62.bmp,0,0,2
170,1,34,NA,NA,NA,1,0.3377,NA,NA,F_Lure_34.bmp,0,1,1
171,1,12,NA,NA,NA,2,0.29248,NA,NA,F_Lure_12.bmp,0,0,1
172,1,109,NA,NA,NA,1,0.30598,NA,NA,S_Lure_109.bmp,0,1,3
173,1,41,NA,NA,NA,1,0.44949,NA,NA,F_Lure_41.bmp,0,0,1
174,1,136,NA,NA,NA,1,0.65382,NA,NA,S_Lure_136.bmp,0,0,3
175,1,4,NA,NA,NA,1,0.43579,NA,NA,F_Lure_4.bmp,0,1,1
176,1,79,NA,NA,NA,1,0.37498,NA,NA,O_Lure_79.bmp,0,1,2
177,1,76,NA,NA,NA,1,0.27852,NA,NA,O_Image_76.bmp,2,1,2
178,1,29,NA,NA,NA,1,0.62909,NA,NA,F_Image_29.bmp,1,1,1
179,1,36,NA,NA,NA,2,0.3125,NA,NA,F_Image_36.bmp,1,0,1
180,1,81,NA,NA,NA,1,0.52736,NA,NA,O_Lure_81.bmp,0,0,2
181,1,15,NA,NA,NA,1,0.27393,NA,NA,F_Lure_15.bmp,0,0,1
182,1,141,NA,NA,NA,1,0.37058,NA,NA,S_Lure_141.bmp,0,1,3
183,1,117,NA,NA,NA,1,0.80245,NA,NA,S_Image_117.bmp,2,0,3
184,1,66,NA,NA,NA,1,0.30705,NA,NA,O_Image_66.bmp,1,0,2
185,1,22,NA,NA,NA,1,0.24162,NA,NA,F_Lure_22.bmp,0,0,1
186,1,135,NA,NA,NA,1,0.73732,NA,NA,S_Lure_135.bmp,0,1,3
187,1,135,NA,NA,NA,1,0.45507,NA,NA,S_Image_135.bmp,1,1,3
188,1,78,NA,NA,NA,1,0.29976,NA,NA,O_Lure_78.bmp,0,0,2
189,1,48,NA,NA,NA,1,0.29308,NA,NA,F_Lure_48.bmp,0,0,1
190,1,102,NA,NA,NA,1,0.33286,NA,NA,S_Image_102.bmp,1,1,3
191,1,5,NA,NA,NA,1,0.81277,NA,NA,F_Lure_5.bmp,0,1,1
192,1,75,NA,NA,NA,1,0.32142,NA,NA,O_Lure_75.bmp,0,1,2
193,1,82,NA,NA,NA,1,0.34543,NA,NA,O_Lure_82.bmp,0,0,2
194,1,72,NA,NA,NA,1,0.67083,NA,NA,O_Lure_72.bmp,0,0,2
195,1,32,NA,NA,NA,2,3.5058,NA,NA,F_Lure_32.bmp,0,1,1
196,1,18,NA,NA,NA,1,0.30275,NA,NA,F_Image_18.bmp,2,1,1
197,1,93,NA,NA,NA,1,0.27753,NA,NA,O_Image_93.bmp,2,0,2
198,1,30,NA,NA,NA,2,0.39655,NA,NA,F_Image_30.bmp,1,1,1
199,1,13,NA,NA,NA,1,0.29984,NA,NA,F_Image_13.bmp,1,0,1
200,1,114,NA,NA,NA,1,0.31805,NA,NA,S_Lure_114.bmp,0,0,3
201,1,7,NA,NA,NA,1,0.24256,NA,NA,F_Lure_7.bmp,0,0,1
202,1,140,NA,NA,NA,1,0.32824,NA,NA,S_Image_140.bmp,2,0,3
203,1,134,NA,NA,NA,2,0.5224,NA,NA,S_Image_134.bmp,1,1,3
204,1,86,NA,NA,NA,1,0.30591,NA,NA,O_Lure_86.bmp,0,1,2
205,1,44,NA,NA,NA,1,0.28586,NA,NA,F_Image_44.bmp,1,0,1
206,1,127,NA,NA,NA,1,0.27869,NA,NA,S_Image_127.bmp,2,1,3
207,1,38,NA,NA,NA,1,0.0002073,NA,NA,F_Lure_38.bmp,0,0,1
208,1,39,NA,NA,NA,2,0.30803,NA,NA,F_Image_39.bmp,2,0,1
209,1,55,NA,NA,NA,1,0.2826,NA,NA,O_Image_55.bmp,1,1,2
210,1,52,NA,NA,NA,1,0.30498,NA,NA,O_Image_52.bmp,2,1,2
211,1,77,NA,NA,NA,1,0.43297,NA,NA,O_Lure_77.bmp,0,0,2
212,1,26,NA,NA,NA,1,0.41652,NA,NA,F_Lure_26.bmp,0,0,1
213,1,63,NA,NA,NA,1,0.26914,NA,NA,O_Lure_63.bmp,0,1,2
214,1,1,NA,NA,NA,1,0.40003,NA,NA,F_Image_1.bmp,1,0,1
215,1,27,NA,NA,NA,1,0.32697,NA,NA,F_Lure_27.bmp,0,0,1
216,1,96,NA,NA,NA,1,0.32603,NA,NA,O_Image_96.bmp,1,0,2
217,1,100,NA,NA,NA,2,0.09123,NA,NA,S_Lure_100.bmp,0,1,3
218,1,11,NA,NA,NA,1,0.33511,NA,NA,F_Image_11.bmp,2,1,1
219,1,87,NA,NA,NA,1,0.29273,NA,NA,O_Lure_87.bmp,0,1,2
220,1,57,NA,NA,NA,1,0.44207,NA,NA,O_Image_57.bmp,1,0,2
221,1,141,NA,NA,NA,1,0.28061,NA,NA,S_Image_141.bmp,2,1,3
222,1,75,NA,NA,NA,1,0.34952,NA,NA,O_Image_75.bmp,1,1,2
223,1,118,NA,NA,NA,1,0.30642,NA,NA,S_Image_118.bmp,1,1,3
224,1,110,NA,NA,NA,1,0.29924,NA,NA,S_Image_110.bmp,1,1,3
225,1,82,NA,NA,NA,1,0.27668,NA,NA,O_Image_82.bmp,1,0,2
226,1,43,NA,NA,NA,1,0.62984,NA,NA,F_Lure_43.bmp,0,1,1
227,1,121,NA,NA,NA,1,0.47479,NA,NA,S_Image_121.bmp,1,0,3
228,1,97,NA,NA,NA,1,0.97377,NA,NA,S_Image_97.bmp,2,1,3
229,1,130,NA,NA,NA,2,0.35455,NA,NA,S_Lure_130.bmp,0,1,3
230,1,106,NA,NA,NA,1,0.50353,NA,NA,S_Image_106.bmp,2,0,3
231,1,98,NA,NA,NA,1,0.33353,NA,NA,S_Lure_98.bmp,0,0,3
232,1,83,NA,NA,NA,1,0.30247,NA,NA,O_Lure_83.bmp,0,1,2
233,1,14,NA,NA,NA,1,0.54127,NA,NA,F_Image_14.bmp,2,1,1
234,1,73,NA,NA,NA,1,0.07156,NA,NA,O_Lure_73.bmp,0,1,2
235,1,131,NA,NA,NA,2,0.33491,NA,NA,S_Image_131.bmp,2,1,3
236,1,100,NA,NA,NA,1,0.31246,NA,NA,S_Image_100.bmp,2,1,3
237,1,8,NA,NA,NA,1,0.30866,NA,NA,F_Lure_8.bmp,0,1,1
238,1,12,NA,NA,NA,2,0.42965,NA,NA,F_Image_12.bmp,1,0,1
239,1,113,NA,NA,NA,1,0.51325,NA,NA,S_Image_113.bmp,2,1,3
240,1,91,NA,NA,NA,1,1.2852,NA,NA,O_Image_91.bmp,2,1,2
241,1,47,NA,NA,NA,1,0.33917,NA,NA,F_Lure_47.bmp,0,0,1
242,1,28,NA,NA,NA,2,0.71824,NA,NA,F_Image_28.bmp,1,1,1
243,1,52,NA,NA,NA,1,0.44944,NA,NA,O_Lure_52.bmp,0,1,2
244,1,40,NA,NA,NA,1,0.18574,NA,NA,F_Image_40.bmp,1,1,1
245,1,30,NA,NA,NA,1,0.30267,NA,NA,F_Lure_30.bmp,0,1,1
246,1,74,NA,NA,NA,1,0.29664,NA,NA,O_Lure_74.bmp,0,1,2
247,1,121,NA,NA,NA,1,0.27354,NA,NA,S_Lure_121.bmp,0,0,3
248,1,78,NA,NA,NA,1,0.33396,NA,NA,O_Image_78.bmp,1,0,2
249,1,131,NA,NA,NA,1,0.95534,NA,NA,S_Lure_131.bmp,0,1,3
250,1,61,NA,NA,NA,1,0.35742,NA,NA,O_Image_61.bmp,2,0,2
251,1,3,NA,NA,NA,2,0.30004,NA,NA,F_Image_3.bmp,2,0,1
252,1,92,NA,NA,NA,1,0.32215,NA,NA,O_Image_92.bmp,2,1,2
253,1,124,NA,NA,NA,1,0.50939,NA,NA,S_Lure_124.bmp,0,1,3
254,1,24,NA,NA,NA,1,0.72314,NA,NA,F_Image_24.bmp,2,1,1
255,1,6,NA,NA,NA,1,0.32703,NA,NA,F_Lure_6.bmp,0,1,1
256,1,46,NA,NA,NA,2,0.60063,NA,NA,F_Image_46.bmp,2,0,1
257,1,65,NA,NA,NA,1,0.39354,NA,NA,O_Image_65.bmp,2,1,2
258,1,143,NA,NA,NA,2,0.29139,NA,NA,S_Lure_143.bmp,0,0,3
259,1,116,NA,NA,NA,1,0.33261,NA,NA,S_Image_116.bmp,2,1,3
260,1,54,NA,NA,NA,1,0.29095,NA,NA,O_Image_54.bmp,2,0,2
261,1,35,NA,NA,NA,2,0.3492,NA,NA,F_Lure_35.bmp,0,0,1
262,1,85,NA,NA,NA,1,0.40967,NA,NA,O_Lure_85.bmp,0,1,2
263,1,84,NA,NA,NA,1,0.29495,NA,NA,O_Lure_84.bmp,0,1,2
264,1,74,NA,NA,NA,1,0.43075,NA,NA,O_Image_74.bmp,2,1,2
265,1,28,NA,NA,NA,1,0.38177,NA,NA,F_Lure_28.bmp,0,1,1
266,1,144,NA,NA,NA,1,0.39101,NA,NA,S_Image_144.bmp,2,1,3
267,1,32,NA,NA,NA,1,1.1323,NA,NA,F_Image_32.bmp,1,1,1
268,1,57,NA,NA,NA,1,0.53395,NA,NA,O_Lure_57.bmp,0,0,2
269,1,60,NA,NA,NA,1,0.69028,NA,NA,O_Image_60.bmp,1,0,2
270,1,17,NA,NA,NA,1,0.4659,NA,NA,F_Lure_17.bmp,0,1,1
271,1,89,NA,NA,NA,1,0.61584,NA,NA,O_Lure_89.bmp,0,1,2
272,1,128,NA,NA,NA,1,0.35166,NA,NA,S_Image_128.bmp,1,1,3
273,1,20,NA,NA,NA,1,0.65441,NA,NA,F_Image_20.bmp,2,1,1
274,1,85,NA,NA,NA,1,0.92717,NA,NA,O_Image_85.bmp,1,1,2
275,1,44,NA,NA,NA,1,0.42751,NA,NA,F_Lure_44.bmp,0,0,1
276,1,62,NA,NA,NA,1,0.30541,NA,NA,O_Image_62.bmp,1,0,2
277,1,53,NA,NA,NA,1,0.31949,NA,NA,O_Lure_53.bmp,0,0,2
278,1,79,NA,NA,NA,1,0.33907,NA,NA,O_Image_79.bmp,1,1,2
279,1,129,NA,NA,NA,1,1.3024,NA,NA,S_Image_129.bmp,2,0,3
280,1,55,NA,NA,NA,1,0.35247,NA,NA,O_Lure_55.bmp,0,1,2
281,1,25,NA,NA,NA,1,0.33754,NA,NA,F_Image_25.bmp,2,1,1
282,1,107,NA,NA,NA,1,0.42033,NA,NA,S_Image_107.bmp,2,0,3
283,1,23,NA,NA,NA,1,0.47406,NA,NA,F_Image_23.bmp,2,1,1
284,1,90,NA,NA,NA,1,0.30507,NA,NA,O_Image_90.bmp,2,1,2
285,1,101,NA,NA,NA,1,0.09888,NA,NA,S_Lure_101.bmp,0,0,3
286,1,21,NA,NA,NA,1,0.49897,NA,NA,F_Lure_21.bmp,0,0,1
287,1,99,NA,NA,NA,2,0.39625,NA,NA,S_Lure_99.bmp,0,0,3
288,1,61,NA,NA,NA,1,0.37457,NA,NA,O_Lure_61.bmp,0,0,2
289,2,60,shell,1,1,1,1.3016,1,NA,O_Image_60.bmp-O_Lure_60.bmp,1,0,2
290,2,85,tube,1,1,1,0.7102,1,NA,O_Image_85.bmp-O_Lure_85.bmp,1,1,2
291,2,121,animal,1,2,2,1.0907,1,NA,S_Image_121.bmp-S_Lure_121.bmp,1,0,3
292,2,44,signal,1,2,2,1.0755,1,NA,F_Image_44.bmp-F_Lure_44.bmp,1,0,1
293,2,111,slope,1,1,1,1.8805,1,NA,S_Image_111.bmp-S_Lure_111.bmp,1,1,3
294,2,138,scar,1,2,2,0.73725,1,NA,S_Image_138.bmp-S_Lure_138.bmp,1,0,3
295,2,103,flood,1,2,2,0.62145,1,NA,S_Image_103.bmp-S_Lure_103.bmp,1,1,3
296,2,32,bubble,1,2,2,0.54414,1,NA,F_Image_32.bmp-F_Lure_32.bmp,1,1,1
297,2,36,costume,1,1,1,1.8199,1,NA,F_Image_36.bmp-F_Lure_36.bmp,1,0,1
298,2,73,spray,1,2,2,0.8138,1,NA,O_Image_73.bmp-O_Lure_73.bmp,1,1,2
299,2,59,corpse,1,2,2,0.9334,1,NA,O_Image_59.bmp-O_Lure_59.bmp,1,1,2
300,2,28,crumb,1,1,1,1.2777,1,NA,F_Image_28.bmp-F_Lure_28.bmp,1,1,1
301,2,4,sweat,1,2,2,1.2004,1,NA,F_Image_4.bmp-F_Lure_4.bmp,1,1,1
302,2,114,attack,1,1,1,1.5977,1,NA,S_Image_114.bmp-S_Lure_114.bmp,1,0,3
303,2,57,triangle,1,2,2,0.98576,1,NA,O_Image_57.bmp-O_Lure_57.bmp,1,0,2
304,2,120,orchestra,1,2,2,1.7702,1,NA,S_Image_120.bmp-S_Lure_120.bmp,1,0,3
305,2,139,corner,1,1,1,1.931,1,NA,S_Image_139.bmp-S_Lure_139.bmp,1,1,3
306,2,128,measles,1,1,1,1.3152,1,NA,S_Image_128.bmp-S_Lure_128.bmp,1,1,3
307,2,51,drizzle,1,2,2,0.78613,1,NA,O_Image_51.bmp-O_Lure_51.bmp,1,1,2
308,2,108,angel,1,1,1,0.85116,1,NA,S_Image_108.bmp-S_Lure_108.bmp,1,0,3
309,2,21,witch,1,1,1,0.96809,1,NA,F_Image_21.bmp-F_Lure_21.bmp,1,0,1
310,2,53,rock,1,2,2,0.78895,1,NA,O_Image_53.bmp-O_Lure_53.bmp,1,0,2
311,2,12,board,1,1,1,1.2633,1,NA,F_Image_12.bmp-F_Lure_12.bmp,1,0,1
312,2,69,antique,1,1,1,0.71507,1,NA,O_Image_69.bmp-O_Lure_69.bmp,1,0,2
313,3,111,slope,1,1,1,1.2142,1,NA,S_Image_111.bmp-S_Lure_111.bmp,1,1,3
314,3,103,flood,1,2,2,0.74595,1,NA,S_Image_103.bmp-S_Lure_103.bmp,1,1,3
315,3,36,costume,1,1,1,0.5838,1,NA,F_Image_36.bmp-F_Lure_36.bmp,1,0,1
316,3,12,board,1,2,2,1.3879,1,NA,F_Image_12.bmp-F_Lure_12.bmp,1,0,1
317,3,138,scar,1,1,1,0.91486,1,NA,S_Image_138.bmp-S_Lure_138.bmp,1,0,3
318,3,121,animal,1,2,2,0.87311,1,NA,S_Image_121.bmp-S_Lure_121.bmp,1,0,3
319,3,128,measles,1,1,1,1.0775,1,NA,S_Image_128.bmp-S_Lure_128.bmp,1,1,3
320,3,85,tube,1,1,1,0.52781,1,NA,O_Image_85.bmp-O_Lure_85.bmp,1,1,2
321,3,139,corner,1,1,1,0.71183,1,NA,S_Image_139.bmp-S_Lure_139.bmp,1,1,3
322,3,21,witch,1,2,2,0.68265,1,NA,F_Image_21.bmp-F_Lure_21.bmp,1,0,1
323,3,59,corpse,1,1,1,0.70674,1,NA,O_Image_59.bmp-O_Lure_59.bmp,1,1,2
324,3,57,triangle,1,1,1,1.0145,1,NA,O_Image_57.bmp-O_Lure_57.bmp,1,0,2
325,3,69,antique,1,1,1,0.65536,1,NA,O_Image_69.bmp-O_Lure_69.bmp,1,0,2
326,3,108,angel,1,2,2,0.62285,1,NA,S_Image_108.bmp-S_Lure_108.bmp,1,0,3
327,3,120,orchestra,1,2,2,1.1573,1,NA,S_Image_120.bmp-S_Lure_120.bmp,1,0,3
328,3,44,signal,1,2,2,1.0147,1,NA,F_Image_44.bmp-F_Lure_44.bmp,1,0,1
329,3,53,rock,1,2,2,0.89588,1,NA,O_Image_53.bmp-O_Lure_53.bmp,1,0,2
330,3,73,spray,1,1,1,0.90324,1,NA,O_Image_73.bmp-O_Lure_73.bmp,1,1,2
331,3,32,bubble,1,2,2,1.075,1,NA,F_Image_32.bmp-F_Lure_32.bmp,1,1,1
332,3,4,sweat,1,1,1,1.8553,1,NA,F_Image_4.bmp-F_Lure_4.bmp,1,1,1
333,3,28,crumb,1,2,2,1.6332,1,NA,F_Image_28.bmp-F_Lure_28.bmp,1,1,1
334,3,114,attack,1,1,1,1.0197,1,NA,S_Image_114.bmp-S_Lure_114.bmp,1,0,3
335,3,51,drizzle,1,2,2,0.65828,1,NA,O_Image_51.bmp-O_Lure_51.bmp,1,1,2
336,3,60,shell,1,1,1,0.61895,1,NA,O_Image_60.bmp-O_Lure_60.bmp,1,0,2
337,2,82,menu,2,2,2,0.71437,1,NA,O_Image_82.bmp-O_Lure_82.bmp,1,0,2
338,2,47,spike,2,1,1,1.0165,1,NA,F_Image_47.bmp-F_Lure_47.bmp,1,0,1
339,2,105,sand,2,1,2,0.81806,0,NA,S_Image_105.bmp-S_Lure_105.bmp,1,0,3
340,2,66,laundry,2,1,1,1.0119,1,NA,O_Image_66.bmp-O_Lure_66.bmp,1,0,2
341,2,55,arch,2,2,2,0.68968,1,NA,O_Image_55.bmp-O_Lure_55.bmp,1,1,2
342,2,102,yellow,2,2,2,0.88305,1,NA,S_Image_102.bmp-S_Lure_102.bmp,1,1,3
343,2,16,money,2,1,1,0.84741,1,NA,F_Image_16.bmp-F_Lure_16.bmp,1,1,1
344,2,104,lever,2,2,2,0.70503,1,NA,S_Image_104.bmp-S_Lure_104.bmp,1,1,3
345,2,30,fire,2,2,2,0.69223,1,NA,F_Image_30.bmp-F_Lure_30.bmp,1,1,1
346,2,99,sunshine,2,1,1,0.9965,1,NA,S_Image_99.bmp-S_Lure_99.bmp,1,0,3
347,2,118,marble,2,1,1,0.7941,1,NA,S_Image_118.bmp-S_Lure_118.bmp,1,1,3
348,2,33,tear,2,1,1,0.65198,1,NA,F_Image_33.bmp-F_Lure_33.bmp,1,0,1
349,2,62,harem,2,1,1,1.069,1,NA,O_Image_62.bmp-O_Lure_62.bmp,1,0,2
350,2,58,asphalt,2,2,2,0.66998,1,NA,O_Image_58.bmp-O_Lure_58.bmp,1,0,2
351,2,109,kiss,2,2,2,0.99104,1,NA,S_Image_109.bmp-S_Lure_109.bmp,1,1,3
352,2,34,hostage,2,2,2,1.1689,1,NA,F_Image_34.bmp-F_Lure_34.bmp,1,1,1
353,2,2,seed,2,1,1,0.68992,1,NA,F_Image_2.bmp-F_Lure_2.bmp,1,0,1
354,2,7,quake,2,1,1,0.69406,1,NA,F_Image_7.bmp-F_Lure_7.bmp,1,0,1
355,2,78,honeymoon,2,1,1,0.72192,1,NA,O_Image_78.bmp-O_Lure_78.bmp,1,0,2
356,2,112,black,2,1,1,1.0951,1,NA,S_Image_112.bmp-S_Lure_112.bmp,1,0,3
357,2,77,giant,2,1,1,0.61264,1,NA,O_Image_77.bmp-O_Lure_77.bmp,1,0,2
358,2,132,snow,2,1,1,1.9312,1,NA,S_Image_132.bmp-S_Lure_132.bmp,1,0,3
359,2,75,breakfast,2,2,2,0.55531,1,NA,O_Image_75.bmp-O_Lure_75.bmp,1,1,2
360,2,48,stripe,2,1,1,1.4728,1,NA,F_Image_48.bmp-F_Lure_48.bmp,1,0,1
361,3,7,quake,2,1,1,0.60605,1,NA,F_Image_7.bmp-F_Lure_7.bmp,1,0,1
362,3,55,arch,2,1,1,0.59818,1,NA,O_Image_55.bmp-O_Lure_55.bmp,1,1,2
363,3,34,hostage,2,1,1,1.0255,1,NA,F_Image_34.bmp-F_Lure_34.bmp,1,1,1
364,3,48,stripe,2,1,1,0.69006,1,NA,F_Image_48.bmp-F_Lure_48.bmp,1,0,1
365,3,78,honeymoon,2,1,1,0.58697,1,NA,O_Image_78.bmp-O_Lure_78.bmp,1,0,2
366,3,2,seed,2,1,1,0.85766,1,NA,F_Image_2.bmp-F_Lure_2.bmp,1,0,1
367,3,82,menu,2,1,2,0.76498,0,NA,O_Image_82.bmp-O_Lure_82.bmp,1,0,2
368,3,102,yellow,2,2,2,0.90597,1,NA,S_Image_102.bmp-S_Lure_102.bmp,1,1,3
369,3,75,breakfast,2,2,2,0.6335,1,NA,O_Image_75.bmp-O_Lure_75.bmp,1,1,2
370,3,99,sunshine,2,2,2,1.3379,1,NA,S_Image_99.bmp-S_Lure_99.bmp,1,0,3
371,3,62,harem,2,1,1,0.77214,1,NA,O_Image_62.bmp-O_Lure_62.bmp,1,0,2
372,3,47,spike,2,2,2,0.8833,1,NA,F_Image_47.bmp-F_Lure_47.bmp,1,0,1
373,3,16,money,2,2,2,0.78691,1,NA,F_Image_16.bmp-F_Lure_16.bmp,1,1,1
374,3,58,asphalt,2,1,1,0.66151,1,NA,O_Image_58.bmp-O_Lure_58.bmp,1,0,2
375,3,77,giant,2,2,2,0.53261,1,NA,O_Image_77.bmp-O_Lure_77.bmp,1,0,2
376,3,104,lever,2,1,1,0.81655,1,NA,S_Image_104.bmp-S_Lure_104.bmp,1,1,3
377,3,109,kiss,2,2,2,0.85725,1,NA,S_Image_109.bmp-S_Lure_109.bmp,1,1,3
378,3,118,marble,2,2,2,0.79499,1,NA,S_Image_118.bmp-S_Lure_118.bmp,1,1,3
379,3,105,sand,2,1,1,0.89252,1,NA,S_Image_105.bmp-S_Lure_105.bmp,1,0,3
380,3,112,black,2,1,1,0.90166,1,NA,S_Image_112.bmp-S_Lure_112.bmp,1,0,3
381,3,30,fire,2,1,1,0.80775,1,NA,F_Image_30.bmp-F_Lure_30.bmp,1,1,1
382,3,33,tear,2,1,1,0.82558,1,NA,F_Image_33.bmp-F_Lure_33.bmp,1,0,1
383,3,66,laundry,2,1,1,0.54989,1,NA,O_Image_66.bmp-O_Lure_66.bmp,1,0,2
384,3,132,snow,2,1,1,0.67733,1,NA,S_Image_132.bmp-S_Lure_132.bmp,1,0,3
385,2,84,paper,3,1,1,0.7717,1,NA,O_Image_84.bmp-O_Lure_84.bmp,1,1,2
386,2,13,magnet,3,1,1,0.70283,1,NA,F_Image_13.bmp-F_Lure_13.bmp,1,0,1
387,2,126,steam,3,2,2,1.0709,1,NA,S_Image_126.bmp-S_Lure_126.bmp,1,0,3
388,2,17,poison,3,1,1,1.0217,1,NA,F_Image_17.bmp-F_Lure_17.bmp,1,1,1
389,2,89,vegetable,3,2,2,1.0648,1,NA,O_Image_89.bmp-O_Lure_89.bmp,1,1,2
390,2,29,fuel,3,1,1,0.65365,1,NA,F_Image_29.bmp-F_Lure_29.bmp,1,1,1
391,2,122,alcohol,3,1,1,1.4113,1,NA,S_Image_122.bmp-S_Lure_122.bmp,1,0,3
392,2,1,rust,3,2,2,1.1222,1,NA,F_Image_1.bmp-F_Lure_1.bmp,1,0,1
393,2,134,army,3,2,2,0.75302,1,NA,S_Image_134.bmp-S_Lure_134.bmp,1,1,3
394,2,83,tail,3,2,2,0.66066,1,NA,O_Image_83.bmp-O_Lure_83.bmp,1,1,2
395,2,110,wound,3,2,2,0.99417,1,NA,S_Image_110.bmp-S_Lure_110.bmp,1,1,3
396,2,81,alien,3,2,2,0.86911,1,NA,O_Image_81.bmp-O_Lure_81.bmp,1,0,2
397,2,43,hurricane,3,1,1,0.77996,1,NA,F_Image_43.bmp-F_Lure_43.bmp,1,1,1
398,2,79,wreck,3,1,1,0.68433,1,NA,O_Image_79.bmp-O_Lure_79.bmp,1,1,2
399,2,35,arrow,3,2,2,0.97905,1,NA,F_Image_35.bmp-F_Lure_35.bmp,1,0,1
400,2,56,cloud,3,2,2,0.70269,1,NA,O_Image_56.bmp-O_Lure_56.bmp,1,0,2
401,2,137,galaxy,3,2,2,1.6828,1,NA,S_Image_137.bmp-S_Lure_137.bmp,1,1,3
402,2,49,ghost,3,1,1,0.75815,1,NA,O_Image_49.bmp-O_Lure_49.bmp,1,1,2
403,2,5,wool,3,2,2,0.65233,1,NA,F_Image_5.bmp-F_Lure_5.bmp,1,1,1
404,2,115,water,3,2,2,1.3094,1,NA,S_Image_115.bmp-S_Lure_115.bmp,1,1,3
405,2,135,tourist,3,1,1,0.69646,1,NA,S_Image_135.bmp-S_Lure_135.bmp,1,1,3
406,2,40,shadow,3,1,1,0.76599,1,NA,F_Image_40.bmp-F_Lure_40.bmp,1,1,1
407,2,96,cone,3,2,2,0.99504,1,NA,O_Image_96.bmp-O_Lure_96.bmp,1,0,2
408,2,19,stem,3,2,2,1.2942,1,NA,F_Image_19.bmp-F_Lure_19.bmp,1,1,1
409,3,126,steam,3,1,1,1.0723,1,NA,S_Image_126.bmp-S_Lure_126.bmp,1,0,3
410,3,19,stem,3,1,1,1.0044,1,NA,F_Image_19.bmp-F_Lure_19.bmp,1,1,1
411,3,81,alien,3,2,2,0.44235,1,NA,O_Image_81.bmp-O_Lure_81.bmp,1,0,2
412,3,17,poison,3,2,2,1.5898,1,NA,F_Image_17.bmp-F_Lure_17.bmp,1,1,1
413,3,89,vegetable,3,2,2,0.62401,1,NA,O_Image_89.bmp-O_Lure_89.bmp,1,1,2
414,3,49,ghost,3,1,1,0.73456,1,NA,O_Image_49.bmp-O_Lure_49.bmp,1,1,2
415,3,110,wound,3,1,1,0.72072,1,NA,S_Image_110.bmp-S_Lure_110.bmp,1,1,3
416,3,83,tail,3,2,2,0.54083,1,NA,O_Image_83.bmp-O_Lure_83.bmp,1,1,2
417,3,13,magnet,3,1,1,0.66451,1,NA,F_Image_13.bmp-F_Lure_13.bmp,1,0,1
418,3,96,cone,3,2,2,0.60531,1,NA,O_Image_96.bmp-O_Lure_96.bmp,1,0,2
419,3,43,hurricane,3,1,1,0.80263,1,NA,F_Image_43.bmp-F_Lure_43.bmp,1,1,1
420,3,115,water,3,1,1,1.7307,1,NA,S_Image_115.bmp-S_Lure_115.bmp,1,1,3
421,3,1,rust,3,1,1,0.6582,1,NA,F_Image_1.bmp-F_Lure_1.bmp,1,0,1
422,3,137,galaxy,3,2,2,0.81237,1,NA,S_Image_137.bmp-S_Lure_137.bmp,1,1,3
423,3,29,fuel,3,1,1,0.97618,1,NA,F_Image_29.bmp-F_Lure_29.bmp,1,1,1
424,3,135,tourist,3,2,2,0.87723,1,NA,S_Image_135.bmp-S_Lure_135.bmp,1,1,3
425,3,134,army,3,2,2,1.5218,1,NA,S_Image_134.bmp-S_Lure_134.bmp,1,1,3
426,3,122,alcohol,3,1,1,0.66236,1,NA,S_Image_122.bmp-S_Lure_122.bmp,1,0,3
427,3,40,shadow,3,1,1,0.70339,1,NA,F_Image_40.bmp-F_Lure_40.bmp,1,1,1
428,3,84,paper,3,2,2,0.98315,1,NA,O_Image_84.bmp-O_Lure_84.bmp,1,1,2
429,3,5,wool,3,1,1,0.87573,1,NA,F_Image_5.bmp-F_Lure_5.bmp,1,1,1
430,3,56,cloud,3,1,1,0.82536,1,NA,O_Image_56.bmp-O_Lure_56.bmp,1,0,2
431,3,35,arrow,3,2,2,0.69989,1,NA,F_Image_35.bmp-F_Lure_35.bmp,1,0,1
432,3,79,wreck,3,2,2,0.51676,1,NA,O_Image_79.bmp-O_Lure_79.bmp,1,1,2
433,4,123,spike,1,1,2,0.69415,0,NA,S_Image_123.bmp-S_Lure_123.bmp,2,0,3
434,4,41,harem,1,1,1,1.391,1,NA,F_Image_41.bmp-F_Lure_41.bmp,2,0,1
435,4,87,marble,1,2,2,0.56542,1,NA,O_Image_87.bmp-O_Lure_87.bmp,2,1,2
436,4,113,stem,1,1,1,1.0063,1,NA,S_Image_113.bmp-S_Lure_113.bmp,2,1,3
437,4,38,steam,1,1,1,0.65392,1,NA,F_Image_38.bmp-F_Lure_38.bmp,2,0,1
438,4,9,tourist,1,1,1,0.83256,1,NA,F_Image_9.bmp-F_Lure_9.bmp,2,1,1
439,4,140,board,1,1,1,1.6147,1,NA,S_Image_140.bmp-S_Lure_140.bmp,2,0,3
440,4,129,menu,1,1,1,0.60575,1,NA,S_Image_129.bmp-S_Lure_129.bmp,2,0,3
441,4,46,orchestra,1,1,1,0.68303,1,NA,F_Image_46.bmp-F_Lure_46.bmp,2,0,1
442,4,144,bubble,1,2,2,1.1173,1,NA,S_Image_144.bmp-S_Lure_144.bmp,2,1,3
443,4,95,snow,1,1,1,2.3484,1,NA,O_Image_95.bmp-O_Lure_95.bmp,2,0,2
444,4,24,vegetable,1,2,2,0.80599,1,NA,F_Image_24.bmp-F_Lure_24.bmp,2,1,1
445,4,101,magnet,1,1,1,0.63347,1,NA,S_Image_101.bmp-S_Lure_101.bmp,2,0,3
446,4,67,scar,1,2,2,1.1076,1,NA,O_Image_67.bmp-O_Lure_67.bmp,2,0,2
447,4,100,hostage,1,1,1,1.1991,1,NA,S_Image_100.bmp-S_Lure_100.bmp,2,1,3
448,4,3,honeymoon,1,2,2,1.7366,1,NA,F_Image_3.bmp-F_Lure_3.bmp,2,0,1
449,4,68,wound,1,2,2,0.56113,1,NA,O_Image_68.bmp-O_Lure_68.bmp,2,1,2
450,4,61,alcohol,1,2,1,0.98175,0,NA,O_Image_61.bmp-O_Lure_61.bmp,2,0,2
451,4,93,arrow,1,2,2,0.61576,1,NA,O_Image_93.bmp-O_Lure_93.bmp,2,0,2
452,4,37,cloud,1,2,2,1.1669,1,NA,F_Image_37.bmp-F_Lure_37.bmp,2,0,1
453,4,130,fuel,1,2,2,0.99753,1,NA,S_Image_130.bmp-S_Lure_130.bmp,2,1,3
454,4,131,drizzle,1,1,1,1.5152,1,NA,S_Image_131.bmp-S_Lure_131.bmp,2,1,3
455,4,142,seed,1,1,0,3.4998,0,NA,S_Image_142.bmp-S_Lure_142.bmp,2,0,3
456,4,65,shadow,1,1,1,1.1441,1,NA,O_Image_65.bmp-O_Lure_65.bmp,2,1,2
457,4,119,cone,2,2,2,2.9597,1,NA,S_Image_119.bmp-S_Lure_119.bmp,2,0,3
458,4,70,sunshine,2,1,1,0.56125,1,NA,O_Image_70.bmp-O_Lure_70.bmp,2,0,2
459,4,97,corpse,2,2,2,0.5925,1,NA,S_Image_97.bmp-S_Lure_97.bmp,2,1,3
460,4,11,breakfast,2,1,1,0.59989,1,NA,F_Image_11.bmp-F_Lure_11.bmp,2,1,1
461,4,63,poison,2,1,1,0.75728,1,NA,O_Image_63.bmp-O_Lure_63.bmp,2,1,2
462,4,80,black,2,2,2,0.70524,1,NA,O_Image_80.bmp-O_Lure_80.bmp,2,0,2
463,4,125,witch,2,2,2,1.4625,1,NA,S_Image_125.bmp-S_Lure_125.bmp,2,0,3
464,4,52,money,2,1,1,0.70702,1,NA,O_Image_52.bmp-O_Lure_52.bmp,2,1,2
465,4,50,measles,2,1,1,0.83272,1,NA,O_Image_50.bmp-O_Lure_50.bmp,2,1,2
466,4,88,signal,2,2,2,1.0952,1,NA,O_Image_88.bmp-O_Lure_88.bmp,2,0,2
467,4,26,sand,2,1,1,1.2324,1,NA,F_Image_26.bmp-F_Lure_26.bmp,2,0,1
468,4,136,shell,2,2,2,0.84097,1,NA,S_Image_136.bmp-S_Lure_136.bmp,2,0,3
469,4,18,paper,2,1,0,3.4998,0,NA,F_Image_18.bmp-F_Lure_18.bmp,2,1,1
470,4,64,tear,2,2,2,0.71797,1,NA,O_Image_64.bmp-O_Lure_64.bmp,2,0,2
471,4,117,stripe,2,2,2,0.64923,1,NA,S_Image_117.bmp-S_Lure_117.bmp,2,0,3
472,4,127,wool,2,1,1,0.86696,1,NA,S_Image_127.bmp-S_Lure_127.bmp,2,1,3
473,4,42,alien,2,1,1,0.70731,1,NA,F_Image_42.bmp-F_Lure_42.bmp,2,0,1
474,4,14,lever,2,2,2,0.82843,1,NA,F_Image_14.bmp-F_Lure_14.bmp,2,1,1
475,4,141,tube,2,1,1,1.1549,1,NA,S_Image_141.bmp-S_Lure_141.bmp,2,1,3
476,4,124,sweat,2,2,2,1.5203,1,NA,S_Image_124.bmp-S_Lure_124.bmp,2,1,3
477,4,31,army,2,2,2,0.68098,1,NA,F_Image_31.bmp-F_Lure_31.bmp,2,1,1
478,4,90,hurricane,2,1,1,0.77557,1,NA,O_Image_90.bmp-O_Lure_90.bmp,2,1,2
479,4,91,crumb,2,2,2,0.45961,1,NA,O_Image_91.bmp-O_Lure_91.bmp,2,1,2
480,4,6,arch,2,2,2,0.51291,1,NA,F_Image_6.bmp-F_Lure_6.bmp,2,1,1
481,4,8,spray,3,2,2,0.89063,1,NA,F_Image_8.bmp-F_Lure_8.bmp,2,1,1
482,4,133,wreck,3,1,1,0.97199,1,NA,S_Image_133.bmp-S_Lure_133.bmp,2,1,3
483,4,143,rust,3,1,1,0.79312,1,NA,S_Image_143.bmp-S_Lure_143.bmp,2,0,3
484,4,10,asphalt,3,2,2,0.61066,1,NA,F_Image_10.bmp-F_Lure_10.bmp,2,0,1
485,4,22,antique,3,1,1,1.2917,1,NA,F_Image_22.bmp-F_Lure_22.bmp,2,0,1
486,4,74,galaxy,3,1,1,0.78598,1,NA,O_Image_74.bmp-O_Lure_74.bmp,2,1,2
487,4,94,angel,3,2,2,0.63024,1,NA,O_Image_94.bmp-O_Lure_94.bmp,2,0,2
488,4,20,ghost,3,1,1,1.274,1,NA,F_Image_20.bmp-F_Lure_20.bmp,2,1,1
489,4,76,corner,3,2,2,0.67844,1,NA,O_Image_76.bmp-O_Lure_76.bmp,2,1,2
490,4,98,triangle,3,1,1,0.72514,1,NA,S_Image_98.bmp-S_Lure_98.bmp,2,0,3
491,4,92,kiss,3,1,1,0.72379,1,NA,O_Image_92.bmp-O_Lure_92.bmp,2,1,2
492,4,86,yellow,3,2,2,0.7542,1,NA,O_Image_86.bmp-O_Lure_86.bmp,2,1,2
493,4,72,quake,3,2,2,0.53528,1,NA,O_Image_72.bmp-O_Lure_72.bmp,2,0,2
494,4,27,rock,3,2,2,0.77984,1,NA,F_Image_27.bmp-F_Lure_27.bmp,2,0,1
495,4,25,flood,3,2,2,1.137,1,NA,F_Image_25.bmp-F_Lure_25.bmp,2,1,1
496,4,71,slope,3,2,2,0.59818,1,NA,O_Image_71.bmp-O_Lure_71.bmp,2,1,2
497,4,45,water,3,1,1,2.0058,1,NA,F_Image_45.bmp-F_Lure_45.bmp,2,1,1
498,4,116,fire,3,2,2,2.0137,1,NA,S_Image_116.bmp-S_Lure_116.bmp,2,1,3
499,4,39,giant,3,2,2,0.90594,1,NA,F_Image_39.bmp-F_Lure_39.bmp,2,0,1
500,4,54,attack,3,1,1,0.98412,1,NA,O_Image_54.bmp-O_Lure_54.bmp,2,0,2
501,4,107,costume,3,1,1,0.76911,1,NA,S_Image_107.bmp-S_Lure_107.bmp,2,0,3
502,4,106,laundry,3,2,2,1.4863,1,NA,S_Image_106.bmp-S_Lure_106.bmp,2,0,3
503,4,15,animal,3,2,2,1.0205,1,NA,F_Image_15.bmp-F_Lure_15.bmp,2,0,1
504,4,23,tail,3,2,2,1.2413,1,NA,F_Image_23.bmp-F_Lure_23.bmp,2,1,1
