Trial,Cond,ImageNum,Cue,Block,Correct,Response,RT,Accuracy,CueRep,fName,ImageType,Baseline,Category
1,1,113,NA,NA,NA,2,10.6425,NA,NA,S_Lure_113.bmp,0,0,3
2,1,43,NA,NA,NA,2,4.6672,NA,NA,F_Lure_43.bmp,0,1,1
3,1,68,NA,NA,NA,2,3.218,NA,NA,O_Image_68.bmp,2,0,2
4,1,76,NA,NA,NA,2,1.2508,NA,NA,O_Lure_76.bmp,0,0,2
5,1,80,NA,NA,NA,2,1.3969,NA,NA,O_Lure_80.bmp,0,1,2
6,1,12,NA,NA,NA,1,0.28098,NA,NA,F_Image_12.bmp,1,0,1
7,1,88,NA,NA,NA,2,1.0077,NA,NA,O_Lure_88.bmp,0,0,2
8,1,130,NA,NA,NA,1,6.9798,NA,NA,S_Lure_130.bmp,0,1,3
9,1,97,NA,NA,NA,1,7.4029,NA,NA,S_Lure_97.bmp,0,1,3
10,1,99,NA,NA,NA,1,5.9431,NA,NA,S_Image_99.bmp,2,1,3
11,1,114,NA,NA,NA,2,1.5633,NA,NA,S_Image_114.bmp,2,1,3
12,1,52,NA,NA,NA,2,4.208,NA,NA,O_Image_52.bmp,2,1,2
13,1,80,NA,NA,NA,2,2.4888,NA,NA,O_Image_80.bmp,1,1,2
14,1,20,NA,NA,NA,2,1.3822,NA,NA,F_Image_20.bmp,2,0,1
15,1,74,NA,NA,NA,2,1.2057,NA,NA,O_Lure_74.bmp,0,1,2
16,1,33,NA,NA,NA,1,3.6658,NA,NA,F_Image_33.bmp,2,0,1
17,1,138,NA,NA,NA,2,4.8031,NA,NA,S_Lure_138.bmp,0,1,3
18,1,68,NA,NA,NA,2,0.86116,NA,NA,O_Lure_68.bmp,0,0,2
19,1,123,NA,NA,NA,1,2.0237,NA,NA,S_Image_123.bmp,2,0,3
20,1,14,NA,NA,NA,2,0.252,NA,NA,F_Image_14.bmp,2,0,1
21,1,19,NA,NA,NA,1,0.82683,NA,NA,F_Image_19.bmp,1,1,1
22,1,65,NA,NA,NA,2,6.6351,NA,NA,O_Lure_65.bmp,0,0,2
23,1,89,NA,NA,NA,2,0.30641,NA,NA,O_Lure_89.bmp,0,0,2
24,1,101,NA,NA,NA,1,1.5626,NA,NA,S_Image_101.bmp,1,0,3
25,1,84,NA,NA,NA,2,1.625,NA,NA,O_Image_84.bmp,2,1,2
26,1,20,NA,NA,NA,2,0.83364,NA,NA,F_Lure_20.bmp,0,0,1
27,1,74,NA,NA,NA,2,3.9876,NA,NA,O_Image_74.bmp,1,1,2
28,1,106,NA,NA,NA,2,2.9044,NA,NA,S_Image_106.bmp,1,0,3
29,1,54,NA,NA,NA,2,1.0672,NA,NA,O_Image_54.bmp,1,0,2
30,1,116,NA,NA,NA,2,0.25526,NA,NA,S_Lure_116.bmp,0,0,3
31,1,84,NA,NA,NA,2,0.060667,NA,NA,O_Lure_84.bmp,0,1,2
32,1,40,NA,NA,NA,1,0.35209,NA,NA,F_Lure_40.bmp,0,1,1
33,1,134,NA,NA,NA,1,0.58692,NA,NA,S_Lure_134.bmp,0,1,3
34,1,142,NA,NA,NA,2,2.2642,NA,NA,S_Lure_142.bmp,0,0,3
35,1,59,NA,NA,NA,2,0.00012466,NA,NA,O_Lure_59.bmp,0,0,2
36,1,96,NA,NA,NA,2,2.0122,NA,NA,O_Image_96.bmp,2,1,2
37,1,87,NA,NA,NA,2,0.44446,NA,NA,O_Lure_87.bmp,0,0,2
38,1,116,NA,NA,NA,2,2.0551,NA,NA,S_Image_116.bmp,1,0,3
39,1,87,NA,NA,NA,2,1.3665,NA,NA,O_Image_87.bmp,1,0,2
40,1,86,NA,NA,NA,2,2.435,NA,NA,O_Image_86.bmp,1,1,2
41,1,111,NA,NA,NA,2,2.4585,NA,NA,S_Lure_111.bmp,0,1,3
42,1,47,NA,NA,NA,2,0.00013462,NA,NA,F_Lure_47.bmp,0,1,1
43,1,13,NA,NA,NA,1,0.98613,NA,NA,F_Image_13.bmp,1,0,1
44,1,15,NA,NA,NA,1,1.1175,NA,NA,F_Lure_15.bmp,0,1,1
45,1,94,NA,NA,NA,2,3.3959,NA,NA,O_Image_94.bmp,2,1,2
46,1,72,NA,NA,NA,2,3.8327,NA,NA,O_Image_72.bmp,2,0,2
47,1,90,NA,NA,NA,2,0.75356,NA,NA,O_Image_90.bmp,1,1,2
48,1,34,NA,NA,NA,2,0.6603,NA,NA,F_Lure_34.bmp,0,0,1
49,1,73,NA,NA,NA,2,0.4164,NA,NA,O_Image_73.bmp,1,0,2
50,1,22,NA,NA,NA,1,0.00012497,NA,NA,F_Lure_22.bmp,0,1,1
51,1,6,NA,NA,NA,2,1.6603,NA,NA,F_Lure_6.bmp,0,1,1
52,1,100,NA,NA,NA,1,1.2385,NA,NA,S_Image_100.bmp,1,0,3
53,1,92,NA,NA,NA,2,0.00012678,NA,NA,O_Image_92.bmp,2,1,2
54,1,23,NA,NA,NA,2,0.11392,NA,NA,F_Lure_23.bmp,0,1,1
55,1,71,NA,NA,NA,2,0.00012527,NA,NA,O_Image_71.bmp,1,0,2
56,1,108,NA,NA,NA,1,0.86871,NA,NA,S_Lure_108.bmp,0,1,3
57,1,122,NA,NA,NA,1,1.4359,NA,NA,S_Image_122.bmp,2,1,3
58,1,92,NA,NA,NA,2,3.3426,NA,NA,O_Lure_92.bmp,0,1,2
59,1,4,NA,NA,NA,2,3.628,NA,NA,F_Lure_4.bmp,0,0,1
60,1,46,NA,NA,NA,1,1.3922,NA,NA,F_Image_46.bmp,2,0,1
61,1,36,NA,NA,NA,1,0.72629,NA,NA,F_Lure_36.bmp,0,1,1
62,1,70,NA,NA,NA,2,0.82035,NA,NA,O_Lure_70.bmp,0,1,2
63,1,100,NA,NA,NA,1,2.9669,NA,NA,S_Lure_100.bmp,0,0,3
64,1,49,NA,NA,NA,2,0.85041,NA,NA,O_Lure_49.bmp,0,1,2
65,1,40,NA,NA,NA,2,1.6118,NA,NA,F_Image_40.bmp,2,1,1
66,1,41,NA,NA,NA,1,0.89982,NA,NA,F_Lure_41.bmp,0,0,1
67,1,135,NA,NA,NA,2,0.37925,NA,NA,S_Lure_135.bmp,0,1,3
68,1,33,NA,NA,NA,2,1.1139,NA,NA,F_Lure_33.bmp,0,0,1
69,1,61,NA,NA,NA,2,1.2373,NA,NA,O_Lure_61.bmp,0,0,2
70,1,96,NA,NA,NA,2,1.4287,NA,NA,O_Lure_96.bmp,0,1,2
71,1,46,NA,NA,NA,1,0.33213,NA,NA,F_Lure_46.bmp,0,0,1
72,1,44,NA,NA,NA,2,0.058134,NA,NA,F_Image_44.bmp,2,0,1
73,1,17,NA,NA,NA,2,0.6902,NA,NA,F_Lure_17.bmp,0,0,1
74,1,62,NA,NA,NA,2,2.3781,NA,NA,O_Image_62.bmp,2,1,2
75,1,126,NA,NA,NA,1,0.59762,NA,NA,S_Image_126.bmp,2,1,3
76,1,98,NA,NA,NA,1,2.531,NA,NA,S_Image_98.bmp,2,0,3
77,1,32,NA,NA,NA,1,0.64845,NA,NA,F_Image_32.bmp,2,0,1
78,1,43,NA,NA,NA,2,1.0884,NA,NA,F_Image_43.bmp,1,1,1
79,1,103,NA,NA,NA,2,1.1311,NA,NA,S_Image_103.bmp,2,0,3
80,1,115,NA,NA,NA,1,0.46031,NA,NA,S_Image_115.bmp,2,0,3
81,1,124,NA,NA,NA,1,1.5144,NA,NA,S_Lure_124.bmp,0,0,3
82,1,48,NA,NA,NA,2,0.0080923,NA,NA,F_Lure_48.bmp,0,0,1
83,1,31,NA,NA,NA,2,1.3026,NA,NA,F_Lure_31.bmp,0,0,1
84,1,114,NA,NA,NA,2,0.29555,NA,NA,S_Lure_114.bmp,0,1,3
85,1,50,NA,NA,NA,2,0.00012557,NA,NA,O_Image_50.bmp,1,1,2
86,1,39,NA,NA,NA,1,0.00012738,NA,NA,F_Lure_39.bmp,0,1,1
87,1,29,NA,NA,NA,2,1.8101,NA,NA,F_Image_29.bmp,1,0,1
88,1,24,NA,NA,NA,2,0.26958,NA,NA,F_Image_24.bmp,2,1,1
89,1,129,NA,NA,NA,1,0.018199,NA,NA,S_Image_129.bmp,2,1,3
90,1,139,NA,NA,NA,1,1.1862,NA,NA,S_Image_139.bmp,2,1,3
91,1,69,NA,NA,NA,2,0.52571,NA,NA,O_Image_69.bmp,1,1,2
92,1,121,NA,NA,NA,1,0.68252,NA,NA,S_Lure_121.bmp,0,1,3
93,1,133,NA,NA,NA,1,2.7644,NA,NA,S_Image_133.bmp,2,0,3
94,1,7,NA,NA,NA,2,1.7837,NA,NA,F_Image_7.bmp,1,0,1
95,1,25,NA,NA,NA,2,2.6039,NA,NA,F_Lure_25.bmp,0,1,1
96,1,113,NA,NA,NA,2,1.0546,NA,NA,S_Image_113.bmp,1,0,3
97,1,27,NA,NA,NA,2,1.1664,NA,NA,F_Lure_27.bmp,0,1,1
98,1,131,NA,NA,NA,1,0.89012,NA,NA,S_Image_131.bmp,1,0,3
99,1,112,NA,NA,NA,2,0.28945,NA,NA,S_Image_112.bmp,1,0,3
100,1,106,NA,NA,NA,2,0.56686,NA,NA,S_Lure_106.bmp,0,0,3
101,1,10,NA,NA,NA,2,0.00012738,NA,NA,F_Lure_10.bmp,0,1,1
102,1,48,NA,NA,NA,2,2.0622,NA,NA,F_Image_48.bmp,2,0,1
103,1,128,NA,NA,NA,1,7.952,NA,NA,S_Lure_128.bmp,0,0,3
104,1,105,NA,NA,NA,1,1.4559,NA,NA,S_Lure_105.bmp,0,1,3
105,1,6,NA,NA,NA,2,0.76915,NA,NA,F_Image_6.bmp,1,1,1
106,1,23,NA,NA,NA,2,1.0732,NA,NA,F_Image_23.bmp,2,1,1
107,1,58,NA,NA,NA,1,1.3999,NA,NA,O_Image_58.bmp,2,1,2
108,1,91,NA,NA,NA,2,1.9433,NA,NA,O_Image_91.bmp,2,0,2
109,1,93,NA,NA,NA,2,2.5919,NA,NA,O_Image_93.bmp,1,0,2
110,1,94,NA,NA,NA,2,0.98076,NA,NA,O_Lure_94.bmp,0,1,2
111,1,57,NA,NA,NA,2,1.2475,NA,NA,O_Image_57.bmp,2,0,2
112,1,27,NA,NA,NA,2,0.65485,NA,NA,F_Image_27.bmp,1,1,1
113,1,81,NA,NA,NA,2,0.11769,NA,NA,O_Image_81.bmp,2,0,2
114,1,37,NA,NA,NA,1,3.0254,NA,NA,F_Image_37.bmp,2,0,1
115,1,51,NA,NA,NA,2,0.00012738,NA,NA,O_Lure_51.bmp,0,1,2
116,1,21,NA,NA,NA,1,0.00012617,NA,NA,F_Image_21.bmp,2,0,1
117,1,3,NA,NA,NA,1,0.83386,NA,NA,F_Lure_3.bmp,0,0,1
118,1,53,NA,NA,NA,2,1.2172,NA,NA,O_Image_53.bmp,2,0,2
119,1,69,NA,NA,NA,2,0.41385,NA,NA,O_Lure_69.bmp,0,1,2
120,1,47,NA,NA,NA,2,1.0238,NA,NA,F_Image_47.bmp,1,1,1
121,1,35,NA,NA,NA,1,0.0053995,NA,NA,F_Lure_35.bmp,0,0,1
122,1,65,NA,NA,NA,2,0.90123,NA,NA,O_Image_65.bmp,1,0,2
123,1,28,NA,NA,NA,1,0.044176,NA,NA,F_Lure_28.bmp,0,1,1
124,1,95,NA,NA,NA,2,1.1301,NA,NA,O_Lure_95.bmp,0,1,2
125,1,108,NA,NA,NA,1,0.66493,NA,NA,S_Image_108.bmp,2,1,3
126,1,28,NA,NA,NA,1,0.00014851,NA,NA,F_Image_28.bmp,1,1,1
127,1,134,NA,NA,NA,1,0.22286,NA,NA,S_Image_134.bmp,2,1,3
128,1,1,NA,NA,NA,2,1.9037,NA,NA,F_Image_1.bmp,2,1,1
129,1,82,NA,NA,NA,2,0.72573,NA,NA,O_Image_82.bmp,2,0,2
130,1,139,NA,NA,NA,1,0.91556,NA,NA,S_Lure_139.bmp,0,1,3
131,1,12,NA,NA,NA,1,5.1015,NA,NA,F_Lure_12.bmp,0,0,1
132,1,79,NA,NA,NA,2,2.8757,NA,NA,O_Lure_79.bmp,0,0,2
133,1,78,NA,NA,NA,2,0.67521,NA,NA,O_Lure_78.bmp,0,1,2
134,1,127,NA,NA,NA,2,8.6497,NA,NA,S_Image_127.bmp,1,1,3
135,1,123,NA,NA,NA,1,0.00012587,NA,NA,S_Lure_123.bmp,0,0,3
136,1,143,NA,NA,NA,1,2.858,NA,NA,S_Image_143.bmp,1,1,3
137,1,8,NA,NA,NA,2,1.8495,NA,NA,F_Image_8.bmp,1,1,1
138,1,76,NA,NA,NA,2,0.83764,NA,NA,O_Image_76.bmp,2,0,2
139,1,75,NA,NA,NA,2,1.1822,NA,NA,O_Lure_75.bmp,0,1,2
140,1,41,NA,NA,NA,1,1.9543,NA,NA,F_Image_41.bmp,1,0,1
141,1,26,NA,NA,NA,1,0.98044,NA,NA,F_Image_26.bmp,2,1,1
142,1,9,NA,NA,NA,1,1.6239,NA,NA,F_Image_9.bmp,1,0,1
143,1,115,NA,NA,NA,1,1.2826,NA,NA,S_Lure_115.bmp,0,0,3
144,1,55,NA,NA,NA,2,0.56868,NA,NA,O_Image_55.bmp,1,0,2
145,1,34,NA,NA,NA,2,0.72594,NA,NA,F_Image_34.bmp,1,0,1
146,1,29,NA,NA,NA,2,0.56281,NA,NA,F_Lure_29.bmp,0,0,1
147,1,97,NA,NA,NA,1,1.058,NA,NA,S_Image_97.bmp,1,1,3
148,1,70,NA,NA,NA,2,0.82624,NA,NA,O_Image_70.bmp,1,1,2
149,1,1,NA,NA,NA,2,0.60814,NA,NA,F_Lure_1.bmp,0,1,1
150,1,141,NA,NA,NA,2,0.1715,NA,NA,S_Image_141.bmp,1,0,3
151,1,9,NA,NA,NA,1,0.086835,NA,NA,F_Lure_9.bmp,0,0,1
152,1,117,NA,NA,NA,1,0.8022,NA,NA,S_Image_117.bmp,2,1,3
153,1,133,NA,NA,NA,1,2.4276,NA,NA,S_Lure_133.bmp,0,0,3
154,1,36,NA,NA,NA,1,0.028424,NA,NA,F_Image_36.bmp,1,1,1
155,1,135,NA,NA,NA,2,0.86978,NA,NA,S_Image_135.bmp,2,1,3
156,1,117,NA,NA,NA,1,0.57519,NA,NA,S_Lure_117.bmp,0,1,3
157,1,58,NA,NA,NA,2,0.57994,NA,NA,O_Lure_58.bmp,0,1,2
158,1,18,NA,NA,NA,1,0.15393,NA,NA,F_Image_18.bmp,1,0,1
159,1,63,NA,NA,NA,2,3.3205,NA,NA,O_Lure_63.bmp,0,0,2
160,1,102,NA,NA,NA,1,2.5346,NA,NA,S_Image_102.bmp,1,1,3
161,1,50,NA,NA,NA,2,1.7387,NA,NA,O_Lure_50.bmp,0,1,2
162,1,54,NA,NA,NA,2,0.00012919,NA,NA,O_Lure_54.bmp,0,0,2
163,1,67,NA,NA,NA,2,0.50345,NA,NA,O_Lure_67.bmp,0,0,2
164,1,59,NA,NA,NA,2,0.044892,NA,NA,O_Image_59.bmp,2,0,2
165,1,11,NA,NA,NA,2,0.17499,NA,NA,F_Lure_11.bmp,0,1,1
166,1,99,NA,NA,NA,1,0.70149,NA,NA,S_Lure_99.bmp,0,1,3
167,1,18,NA,NA,NA,1,4.8769,NA,NA,F_Lure_18.bmp,0,0,1
168,1,5,NA,NA,NA,2,0.00012708,NA,NA,F_Image_5.bmp,1,0,1
169,1,104,NA,NA,NA,1,0.5771,NA,NA,S_Image_104.bmp,2,0,3
170,1,83,NA,NA,NA,2,0.00012889,NA,NA,O_Lure_83.bmp,0,0,2
171,1,126,NA,NA,NA,1,2.1257,NA,NA,S_Lure_126.bmp,0,1,3
172,1,88,NA,NA,NA,2,2.3799,NA,NA,O_Image_88.bmp,1,0,2
173,1,137,NA,NA,NA,2,1.1133,NA,NA,S_Image_137.bmp,1,1,3
174,1,143,NA,NA,NA,1,4.1519,NA,NA,S_Lure_143.bmp,0,1,3
175,1,26,NA,NA,NA,1,0.00012587,NA,NA,F_Lure_26.bmp,0,1,1
176,1,85,NA,NA,NA,2,3.7251,NA,NA,O_Image_85.bmp,1,0,2
177,1,5,NA,NA,NA,2,0.00012949,NA,NA,F_Lure_5.bmp,0,0,1
178,1,25,NA,NA,NA,2,0.64305,NA,NA,F_Image_25.bmp,2,1,1
179,1,15,NA,NA,NA,1,1.1571,NA,NA,F_Image_15.bmp,2,1,1
180,1,112,NA,NA,NA,1,0.4397,NA,NA,S_Lure_112.bmp,0,0,3
181,1,105,NA,NA,NA,1,0.00012134,NA,NA,S_Image_105.bmp,2,1,3
182,1,66,NA,NA,NA,2,2.5871,NA,NA,O_Lure_66.bmp,0,1,2
183,1,107,NA,NA,NA,2,2.1838,NA,NA,S_Image_107.bmp,1,0,3
184,1,119,NA,NA,NA,2,0.47406,NA,NA,S_Image_119.bmp,1,0,3
185,1,122,NA,NA,NA,1,2.0608,NA,NA,S_Lure_122.bmp,0,1,3
186,1,98,NA,NA,NA,1,13.5622,NA,NA,S_Lure_98.bmp,0,0,3
187,1,103,NA,NA,NA,2,0.78028,NA,NA,S_Lure_103.bmp,0,0,3
188,1,95,NA,NA,NA,2,0.85234,NA,NA,O_Image_95.bmp,2,1,2
189,1,73,NA,NA,NA,2,0.6177,NA,NA,O_Lure_73.bmp,0,0,2
190,1,11,NA,NA,NA,2,0.18313,NA,NA,F_Image_11.bmp,2,1,1
191,1,16,NA,NA,NA,2,0.047231,NA,NA,F_Lure_16.bmp,0,1,1
192,1,14,NA,NA,NA,2,0.41119,NA,NA,F_Lure_14.bmp,0,0,1
193,1,79,NA,NA,NA,2,0.00012768,NA,NA,O_Image_79.bmp,2,0,2
194,1,132,NA,NA,NA,1,0.98461,NA,NA,S_Lure_132.bmp,0,1,3
195,1,45,NA,NA,NA,1,1.6759,NA,NA,F_Image_45.bmp,2,0,1
196,1,118,NA,NA,NA,2,0.39881,NA,NA,S_Image_118.bmp,2,0,3
197,1,90,NA,NA,NA,2,1.122,NA,NA,O_Lure_90.bmp,0,1,2
198,1,30,NA,NA,NA,2,2.8395,NA,NA,F_Image_30.bmp,1,1,1
199,1,141,NA,NA,NA,2,0.00015938,NA,NA,S_Lure_141.bmp,0,0,3
200,1,31,NA,NA,NA,2,0.00012587,NA,NA,F_Image_31.bmp,2,0,1
201,1,77,NA,NA,NA,2,0.68048,NA,NA,O_Lure_77.bmp,0,1,2
202,1,8,NA,NA,NA,2,0.801,NA,NA,F_Lure_8.bmp,0,1,1
203,1,44,NA,NA,NA,2,1.4891,NA,NA,F_Lure_44.bmp,0,0,1
204,1,61,NA,NA,NA,2,0.37771,NA,NA,O_Image_61.bmp,1,0,2
205,1,86,NA,NA,NA,2,1.2059,NA,NA,O_Lure_86.bmp,0,1,2
206,1,81,NA,NA,NA,2,0.83203,NA,NA,O_Lure_81.bmp,0,0,2
207,1,137,NA,NA,NA,2,3.3692,NA,NA,S_Lure_137.bmp,0,1,3
208,1,42,NA,NA,NA,2,1.0894,NA,NA,F_Lure_42.bmp,0,1,1
209,1,45,NA,NA,NA,1,0.36492,NA,NA,F_Lure_45.bmp,0,0,1
210,1,101,NA,NA,NA,1,0.00012195,NA,NA,S_Lure_101.bmp,0,0,3
211,1,22,NA,NA,NA,1,4.456,NA,NA,F_Image_22.bmp,2,1,1
212,1,17,NA,NA,NA,1,1.6717,NA,NA,F_Image_17.bmp,2,0,1
213,1,57,NA,NA,NA,2,0.00014368,NA,NA,O_Lure_57.bmp,0,0,2
214,1,104,NA,NA,NA,1,2.2444,NA,NA,S_Lure_104.bmp,0,0,3
215,1,72,NA,NA,NA,2,0.74528,NA,NA,O_Lure_72.bmp,0,0,2
216,1,125,NA,NA,NA,2,0.90201,NA,NA,S_Lure_125.bmp,0,0,3
217,1,136,NA,NA,NA,1,3.4484,NA,NA,S_Image_136.bmp,1,1,3
218,1,60,NA,NA,NA,2,0.22063,NA,NA,O_Lure_60.bmp,0,0,2
219,1,67,NA,NA,NA,2,3.0394,NA,NA,O_Image_67.bmp,2,0,2
220,1,2,NA,NA,NA,2,1.0521,NA,NA,F_Lure_2.bmp,0,0,1
221,1,140,NA,NA,NA,2,2.4234,NA,NA,S_Image_140.bmp,1,1,3
222,1,55,NA,NA,NA,2,0.80296,NA,NA,O_Lure_55.bmp,0,0,2
223,1,30,NA,NA,NA,2,0.00012738,NA,NA,F_Lure_30.bmp,0,1,1
224,1,127,NA,NA,NA,2,0.11898,NA,NA,S_Lure_127.bmp,0,1,3
225,1,93,NA,NA,NA,2,0.20637,NA,NA,O_Lure_93.bmp,0,0,2
226,1,129,NA,NA,NA,1,0.29719,NA,NA,S_Lure_129.bmp,0,1,3
227,1,3,NA,NA,NA,1,0.83101,NA,NA,F_Image_3.bmp,1,0,1
228,1,35,NA,NA,NA,1,1.6411,NA,NA,F_Image_35.bmp,2,0,1
229,1,120,NA,NA,NA,1,5.385,NA,NA,S_Image_120.bmp,1,0,3
230,1,125,NA,NA,NA,2,2.5805,NA,NA,S_Image_125.bmp,2,0,3
231,1,60,NA,NA,NA,2,1.4041,NA,NA,O_Image_60.bmp,1,0,2
232,1,89,NA,NA,NA,2,2.0498,NA,NA,O_Image_89.bmp,2,0,2
233,1,83,NA,NA,NA,2,0.00012527,NA,NA,O_Image_83.bmp,2,0,2
234,1,13,NA,NA,NA,1,1.4375,NA,NA,F_Lure_13.bmp,0,0,1
235,1,66,NA,NA,NA,2,0.0001301,NA,NA,O_Image_66.bmp,1,1,2
236,1,53,NA,NA,NA,2,1.7829,NA,NA,O_Lure_53.bmp,0,0,2
237,1,10,NA,NA,NA,2,0.089735,NA,NA,F_Image_10.bmp,1,1,1
238,1,52,NA,NA,NA,2,1.0784,NA,NA,O_Lure_52.bmp,0,1,2
239,1,21,NA,NA,NA,1,0.00014459,NA,NA,F_Lure_21.bmp,0,0,1
240,1,49,NA,NA,NA,2,0.54243,NA,NA,O_Image_49.bmp,2,1,2
241,1,138,NA,NA,NA,2,0.18659,NA,NA,S_Image_138.bmp,1,1,3
242,1,85,NA,NA,NA,2,0.7899,NA,NA,O_Lure_85.bmp,0,0,2
243,1,37,NA,NA,NA,1,0.41711,NA,NA,F_Lure_37.bmp,0,0,1
244,1,56,NA,NA,NA,2,0.13077,NA,NA,O_Image_56.bmp,2,1,2
245,1,82,NA,NA,NA,2,0.1754,NA,NA,O_Lure_82.bmp,0,0,2
246,1,24,NA,NA,NA,2,0.35807,NA,NA,F_Lure_24.bmp,0,1,1
247,1,107,NA,NA,NA,2,0.2842,NA,NA,S_Lure_107.bmp,0,0,3
248,1,109,NA,NA,NA,2,0.064274,NA,NA,S_Lure_109.bmp,0,1,3
249,1,144,NA,NA,NA,2,1.2782,NA,NA,S_Lure_144.bmp,0,1,3
250,1,39,NA,NA,NA,1,1.1789,NA,NA,F_Image_39.bmp,1,1,1
251,1,120,NA,NA,NA,1,5.0549,NA,NA,S_Lure_120.bmp,0,0,3
252,1,38,NA,NA,NA,1,2.6631,NA,NA,F_Image_38.bmp,2,1,1
253,1,51,NA,NA,NA,2,0.23249,NA,NA,O_Image_51.bmp,1,1,2
254,1,38,NA,NA,NA,2,0.35183,NA,NA,F_Lure_38.bmp,0,1,1
255,1,62,NA,NA,NA,2,0.72159,NA,NA,O_Lure_62.bmp,0,1,2
256,1,7,NA,NA,NA,2,0.46665,NA,NA,F_Lure_7.bmp,0,0,1
257,1,118,NA,NA,NA,2,4.1012,NA,NA,S_Lure_118.bmp,0,0,3
258,1,121,NA,NA,NA,2,2.5556,NA,NA,S_Image_121.bmp,2,1,3
259,1,19,NA,NA,NA,1,0.63616,NA,NA,F_Lure_19.bmp,0,1,1
260,1,75,NA,NA,NA,2,1.7321,NA,NA,O_Image_75.bmp,1,1,2
261,1,119,NA,NA,NA,2,0.24689,NA,NA,S_Lure_119.bmp,0,0,3
262,1,91,NA,NA,NA,2,0.00012436,NA,NA,O_Lure_91.bmp,0,0,2
263,1,124,NA,NA,NA,1,1.2366,NA,NA,S_Image_124.bmp,1,0,3
264,1,16,NA,NA,NA,2,0.81386,NA,NA,F_Image_16.bmp,1,1,1
265,1,128,NA,NA,NA,1,2.4704,NA,NA,S_Image_128.bmp,1,0,3
266,1,110,NA,NA,NA,1,1.1193,NA,NA,S_Image_110.bmp,2,1,3
267,1,64,NA,NA,NA,2,0.00013644,NA,NA,O_Lure_64.bmp,0,1,2
268,1,71,NA,NA,NA,2,0.60729,NA,NA,O_Lure_71.bmp,0,0,2
269,1,136,NA,NA,NA,1,1.5186,NA,NA,S_Lure_136.bmp,0,1,3
270,1,42,NA,NA,NA,2,1.284,NA,NA,F_Image_42.bmp,1,1,1
271,1,64,NA,NA,NA,2,3.2722,NA,NA,O_Image_64.bmp,1,1,2
272,1,142,NA,NA,NA,2,2.0941,NA,NA,S_Image_142.bmp,2,0,3
273,1,111,NA,NA,NA,2,0.66364,NA,NA,S_Image_111.bmp,1,1,3
274,1,144,NA,NA,NA,2,2.1262,NA,NA,S_Image_144.bmp,2,1,3
275,1,130,NA,NA,NA,1,0.00012527,NA,NA,S_Image_130.bmp,2,1,3
276,1,56,NA,NA,NA,2,1.2256,NA,NA,O_Lure_56.bmp,0,1,2
277,1,109,NA,NA,NA,2,3.1869,NA,NA,S_Image_109.bmp,1,1,3
278,1,2,NA,NA,NA,2,0.48656,NA,NA,F_Image_2.bmp,1,0,1
279,1,132,NA,NA,NA,1,0.0001313,NA,NA,S_Image_132.bmp,1,1,3
280,1,140,NA,NA,NA,2,0.23927,NA,NA,S_Lure_140.bmp,0,1,3
281,1,110,NA,NA,NA,1,0.079729,NA,NA,S_Lure_110.bmp,0,1,3
282,1,131,NA,NA,NA,1,1.8133,NA,NA,S_Lure_131.bmp,0,0,3
283,1,78,NA,NA,NA,2,0.4601,NA,NA,O_Image_78.bmp,1,1,2
284,1,32,NA,NA,NA,1,0.00012587,NA,NA,F_Lure_32.bmp,0,0,1
285,1,102,NA,NA,NA,1,3.5527,NA,NA,S_Lure_102.bmp,0,1,3
286,1,63,NA,NA,NA,2,0.00012708,NA,NA,O_Image_63.bmp,1,0,2
287,1,77,NA,NA,NA,2,0.098345,NA,NA,O_Image_77.bmp,2,1,2
288,1,4,NA,NA,NA,2,0.00012889,NA,NA,F_Image_4.bmp,2,0,1
289,2,137,measles,1,1,0,3.5,0,NA,S_Image_137.bmp-S_Lure_137.bmp,1,1,3
290,2,120,black,1,2,2,1.3176,1,NA,S_Image_120.bmp-S_Lure_120.bmp,1,0,3
291,2,136,arrow,1,2,2,2.5352,1,NA,S_Image_136.bmp-S_Lure_136.bmp,1,1,3
292,2,19,lever,1,1,1,2.2067,1,NA,F_Image_19.bmp-F_Lure_19.bmp,1,1,1
293,2,2,antique,1,2,0,3.5,0,NA,F_Image_2.bmp-F_Lure_2.bmp,1,0,1
294,2,7,tear,1,2,2,2.6373,1,NA,F_Image_7.bmp-F_Lure_7.bmp,1,0,1
295,2,55,tube,1,2,2,1.1054,1,NA,O_Image_55.bmp-O_Lure_55.bmp,1,0,2
296,2,88,marble,1,2,2,0.9153,1,NA,O_Image_88.bmp-O_Lure_88.bmp,1,0,2
297,2,116,cone,1,1,1,2.3555,1,NA,S_Image_116.bmp-S_Lure_116.bmp,1,0,3
298,2,101,paper,1,2,1,3.1632,0,NA,S_Image_101.bmp-S_Lure_101.bmp,1,0,3
299,2,71,asphalt,1,1,1,1.7141,1,NA,O_Image_71.bmp-O_Lure_71.bmp,1,0,2
300,2,29,menu,1,2,0,3.5001,0,NA,F_Image_29.bmp-F_Lure_29.bmp,1,0,1
301,2,64,vegetable,1,2,1,2.1801,0,NA,O_Image_64.bmp-O_Lure_64.bmp,1,1,2
302,2,80,rock,1,1,1,0.77852,1,NA,O_Image_80.bmp-O_Lure_80.bmp,1,1,2
303,2,3,crumb,1,2,2,1.8884,1,NA,F_Image_3.bmp-F_Lure_3.bmp,1,0,1
304,2,100,kiss,1,2,2,1.8904,1,NA,S_Image_100.bmp-S_Lure_100.bmp,1,0,3
305,2,28,corpse,1,2,2,2.6843,1,NA,F_Image_28.bmp-F_Lure_28.bmp,1,1,1
306,2,86,fire,1,1,1,0.85497,1,NA,O_Image_86.bmp-O_Lure_86.bmp,1,1,2
307,2,9,scar,1,1,1,1.4593,1,NA,F_Image_9.bmp-F_Lure_9.bmp,1,0,1
308,2,27,animal,1,1,1,1.629,1,NA,F_Image_27.bmp-F_Lure_27.bmp,1,1,1
309,2,39,steam,1,2,0,3.4995,0,NA,F_Image_39.bmp-F_Lure_39.bmp,1,1,1
310,2,36,hostage,1,1,1,1.9068,1,NA,F_Image_36.bmp-F_Lure_36.bmp,1,1,1
311,2,42,sand,1,2,2,1.6999,1,NA,F_Image_42.bmp-F_Lure_42.bmp,1,1,1
312,2,111,seed,1,2,2,3.1492,1,NA,S_Image_111.bmp-S_Lure_111.bmp,1,1,3
313,3,3,crumb,1,2,0,3.5001,0,NA,F_Image_3.bmp-F_Lure_3.bmp,1,0,1
314,3,7,tear,1,2,2,1.6576,1,NA,F_Image_7.bmp-F_Lure_7.bmp,1,0,1
315,3,55,tube,1,1,1,1.0932,1,NA,O_Image_55.bmp-O_Lure_55.bmp,1,0,2
316,3,29,menu,1,2,2,1.5745,1,NA,F_Image_29.bmp-F_Lure_29.bmp,1,0,1
317,3,36,hostage,1,1,1,0.98938,1,NA,F_Image_36.bmp-F_Lure_36.bmp,1,1,1
318,3,27,animal,1,1,1,0.85127,1,NA,F_Image_27.bmp-F_Lure_27.bmp,1,1,1
319,3,111,seed,1,1,1,2.0065,1,NA,S_Image_111.bmp-S_Lure_111.bmp,1,1,3
320,3,9,scar,1,2,0,3.4998,0,NA,F_Image_9.bmp-F_Lure_9.bmp,1,0,1
321,3,101,paper,1,2,1,1.1498,0,NA,S_Image_101.bmp-S_Lure_101.bmp,1,0,3
322,3,19,lever,1,1,1,3.1396,1,NA,F_Image_19.bmp-F_Lure_19.bmp,1,1,1
323,3,86,fire,1,2,2,1.4841,1,NA,O_Image_86.bmp-O_Lure_86.bmp,1,1,2
324,3,80,rock,1,2,2,0.70176,1,NA,O_Image_80.bmp-O_Lure_80.bmp,1,1,2
325,3,88,marble,1,2,2,1.0313,1,NA,O_Image_88.bmp-O_Lure_88.bmp,1,0,2
326,3,42,sand,1,1,1,1.2917,1,NA,F_Image_42.bmp-F_Lure_42.bmp,1,1,1
327,3,120,black,1,2,2,0.89311,1,NA,S_Image_120.bmp-S_Lure_120.bmp,1,0,3
328,3,116,cone,1,1,1,0.94222,1,NA,S_Image_116.bmp-S_Lure_116.bmp,1,0,3
329,3,137,measles,1,1,1,1.454,1,NA,S_Image_137.bmp-S_Lure_137.bmp,1,1,3
330,3,71,asphalt,1,2,2,1.0251,1,NA,O_Image_71.bmp-O_Lure_71.bmp,1,0,2
331,3,28,corpse,1,2,2,1.1422,1,NA,F_Image_28.bmp-F_Lure_28.bmp,1,1,1
332,3,39,steam,1,1,1,2.3171,1,NA,F_Image_39.bmp-F_Lure_39.bmp,1,1,1
333,3,136,arrow,1,2,2,1.1504,1,NA,S_Image_136.bmp-S_Lure_136.bmp,1,1,3
334,3,2,antique,1,1,1,1.4699,1,NA,F_Image_2.bmp-F_Lure_2.bmp,1,0,1
335,3,100,kiss,1,2,2,1.7924,1,NA,S_Image_100.bmp-S_Lure_100.bmp,1,0,3
336,3,64,vegetable,1,1,2,0.9019,0,NA,O_Image_64.bmp-O_Lure_64.bmp,1,1,2
337,2,63,sunshine,2,1,1,1.5353,1,NA,O_Image_63.bmp-O_Lure_63.bmp,1,0,2
338,2,74,stripe,2,1,1,1.2957,1,NA,O_Image_74.bmp-O_Lure_74.bmp,1,1,2
339,2,113,flood,2,2,2,1.4332,1,NA,S_Image_113.bmp-S_Lure_113.bmp,1,0,3
340,2,41,corner,2,1,1,1.9891,1,NA,F_Image_41.bmp-F_Lure_41.bmp,1,0,1
341,2,112,honeymoon,2,2,2,1.3712,1,NA,S_Image_112.bmp-S_Lure_112.bmp,1,0,3
342,2,85,signal,2,1,1,1.05,1,NA,O_Image_85.bmp-O_Lure_85.bmp,1,0,2
343,2,75,army,2,2,2,1.1414,1,NA,O_Image_75.bmp-O_Lure_75.bmp,1,1,2
344,2,127,fuel,2,2,2,1.4456,1,NA,S_Image_127.bmp-S_Lure_127.bmp,1,1,3
345,2,66,slope,2,2,2,0.89683,1,NA,O_Image_66.bmp-O_Lure_66.bmp,1,1,2
346,2,5,money,2,2,2,1.0106,1,NA,F_Image_5.bmp-F_Lure_5.bmp,1,0,1
347,2,34,angel,2,1,1,1.6631,1,NA,F_Image_34.bmp-F_Lure_34.bmp,1,0,1
348,2,93,magnet,2,2,2,1.1296,1,NA,O_Image_93.bmp-O_Lure_93.bmp,1,0,2
349,2,50,poison,2,2,2,1.0098,1,NA,O_Image_50.bmp-O_Lure_50.bmp,1,1,2
350,2,119,alien,2,2,2,1.4068,1,NA,S_Image_119.bmp-S_Lure_119.bmp,1,0,3
351,2,90,quake,2,2,2,1.0842,1,NA,O_Image_90.bmp-O_Lure_90.bmp,1,1,2
352,2,78,snow,2,1,1,1.0785,1,NA,O_Image_78.bmp-O_Lure_78.bmp,1,1,2
353,2,109,wound,2,2,2,0.87269,1,NA,S_Image_109.bmp-S_Lure_109.bmp,1,1,3
354,2,18,laundry,2,2,2,1.9476,1,NA,F_Image_18.bmp-F_Lure_18.bmp,1,0,1
355,2,10,triangle,2,2,2,1.8265,1,NA,F_Image_10.bmp-F_Lure_10.bmp,1,1,1
356,2,65,harem,2,2,2,1.9107,1,NA,O_Image_65.bmp-O_Lure_65.bmp,1,0,2
357,2,138,witch,2,1,1,2.5193,1,NA,S_Image_138.bmp-S_Lure_138.bmp,1,1,3
358,2,124,bubble,2,1,1,1.1284,1,NA,S_Image_124.bmp-S_Lure_124.bmp,1,0,3
359,2,47,hurricane,2,1,1,1.1281,1,NA,F_Image_47.bmp-F_Lure_47.bmp,1,1,1
360,2,61,tourist,2,1,1,2.7842,1,NA,O_Image_61.bmp-O_Lure_61.bmp,1,0,2
361,3,119,alien,2,1,1,1.8098,1,NA,S_Image_119.bmp-S_Lure_119.bmp,1,0,3
362,3,10,triangle,2,1,1,1.0547,1,NA,F_Image_10.bmp-F_Lure_10.bmp,1,1,1
363,3,63,sunshine,2,2,2,0.91411,1,NA,O_Image_63.bmp-O_Lure_63.bmp,1,0,2
364,3,50,poison,2,1,1,1.2107,1,NA,O_Image_50.bmp-O_Lure_50.bmp,1,1,2
365,3,109,wound,2,1,1,0.99957,1,NA,S_Image_109.bmp-S_Lure_109.bmp,1,1,3
366,3,18,laundry,2,1,1,0.90121,1,NA,F_Image_18.bmp-F_Lure_18.bmp,1,0,1
367,3,47,hurricane,2,2,2,0.93431,1,NA,F_Image_47.bmp-F_Lure_47.bmp,1,1,1
368,3,85,signal,2,1,1,0.6307,1,NA,O_Image_85.bmp-O_Lure_85.bmp,1,0,2
369,3,78,snow,2,1,1,0.69847,1,NA,O_Image_78.bmp-O_Lure_78.bmp,1,1,2
370,3,41,corner,2,1,1,2.0681,1,NA,F_Image_41.bmp-F_Lure_41.bmp,1,0,1
371,3,138,witch,2,1,1,0.93511,1,NA,S_Image_138.bmp-S_Lure_138.bmp,1,1,3
372,3,90,quake,2,2,2,0.91101,1,NA,O_Image_90.bmp-O_Lure_90.bmp,1,1,2
373,3,65,harem,2,2,2,1.2475,1,NA,O_Image_65.bmp-O_Lure_65.bmp,1,0,2
374,3,93,magnet,2,2,2,0.7152,1,NA,O_Image_93.bmp-O_Lure_93.bmp,1,0,2
375,3,75,army,2,2,2,0.7002,1,NA,O_Image_75.bmp-O_Lure_75.bmp,1,1,2
376,3,124,bubble,2,1,1,0.66934,1,NA,S_Image_124.bmp-S_Lure_124.bmp,1,0,3
377,3,66,slope,2,2,2,0.58394,1,NA,O_Image_66.bmp-O_Lure_66.bmp,1,1,2
378,3,74,stripe,2,1,1,0.79025,1,NA,O_Image_74.bmp-O_Lure_74.bmp,1,1,2
379,3,61,tourist,2,2,1,1.0041,0,NA,O_Image_61.bmp-O_Lure_61.bmp,1,0,2
380,3,127,fuel,2,1,1,1.1455,1,NA,S_Image_127.bmp-S_Lure_127.bmp,1,1,3
381,3,112,honeymoon,2,1,1,0.76099,1,NA,S_Image_112.bmp-S_Lure_112.bmp,1,0,3
382,3,5,money,2,1,1,0.90373,1,NA,F_Image_5.bmp-F_Lure_5.bmp,1,0,1
383,3,113,flood,2,1,1,0.89754,1,NA,S_Image_113.bmp-S_Lure_113.bmp,1,0,3
384,3,34,angel,2,1,1,0.89114,1,NA,F_Image_34.bmp-F_Lure_34.bmp,1,0,1
385,2,70,drizzle,3,2,0,3.5,0,NA,O_Image_70.bmp-O_Lure_70.bmp,1,1,2
386,2,143,galaxy,3,1,1,1.2224,1,NA,S_Image_143.bmp-S_Lure_143.bmp,1,1,3
387,2,13,rust,3,1,1,1.2506,1,NA,F_Image_13.bmp-F_Lure_13.bmp,1,0,1
388,2,141,spray,3,2,2,2.8859,1,NA,S_Image_141.bmp-S_Lure_141.bmp,1,0,3
389,2,43,wreck,3,1,1,1.464,1,NA,F_Image_43.bmp-F_Lure_43.bmp,1,1,1
390,2,69,shadow,3,2,2,1.2667,1,NA,O_Image_69.bmp-O_Lure_69.bmp,1,1,2
391,2,107,wool,3,1,1,1.4137,1,NA,S_Image_107.bmp-S_Lure_107.bmp,1,0,3
392,2,106,giant,3,2,2,1.4506,1,NA,S_Image_106.bmp-S_Lure_106.bmp,1,0,3
393,2,97,sweat,3,2,2,1.4857,1,NA,S_Image_97.bmp-S_Lure_97.bmp,1,1,3
394,2,12,attack,3,1,1,3.3441,1,NA,F_Image_12.bmp-F_Lure_12.bmp,1,0,1
395,2,54,arch,3,2,2,1.5995,1,NA,O_Image_54.bmp-O_Lure_54.bmp,1,0,2
396,2,87,orchestra,3,1,1,1.2451,1,NA,O_Image_87.bmp-O_Lure_87.bmp,1,0,2
397,2,8,shell,3,1,1,1.4403,1,NA,F_Image_8.bmp-F_Lure_8.bmp,1,1,1
398,2,73,costume,3,2,2,1.5803,1,NA,O_Image_73.bmp-O_Lure_73.bmp,1,0,2
399,2,60,cloud,3,2,2,1.0107,1,NA,O_Image_60.bmp-O_Lure_60.bmp,1,0,2
400,2,30,yellow,3,2,2,0.9674,1,NA,F_Image_30.bmp-F_Lure_30.bmp,1,1,1
401,2,6,spike,3,2,0,3.4998,0,NA,F_Image_6.bmp-F_Lure_6.bmp,1,1,1
402,2,140,alcohol,3,1,1,2.287,1,NA,S_Image_140.bmp-S_Lure_140.bmp,1,1,3
403,2,132,water,3,1,1,3.4895,1,NA,S_Image_132.bmp-S_Lure_132.bmp,1,1,3
404,2,128,breakfast,3,2,2,1.8597,1,NA,S_Image_128.bmp-S_Lure_128.bmp,1,0,3
405,2,102,ghost,3,2,2,0.90235,1,NA,S_Image_102.bmp-S_Lure_102.bmp,1,1,3
406,2,131,tail,3,2,2,1.3037,1,NA,S_Image_131.bmp-S_Lure_131.bmp,1,0,3
407,2,16,board,3,2,2,2.4815,1,NA,F_Image_16.bmp-F_Lure_16.bmp,1,1,1
408,2,51,stem,3,2,2,0.81138,1,NA,O_Image_51.bmp-O_Lure_51.bmp,1,1,2
409,3,97,sweat,3,2,2,0.84358,1,NA,S_Image_97.bmp-S_Lure_97.bmp,1,1,3
410,3,107,wool,3,2,2,1.2712,1,NA,S_Image_107.bmp-S_Lure_107.bmp,1,0,3
411,3,141,spray,3,2,2,1.3936,1,NA,S_Image_141.bmp-S_Lure_141.bmp,1,0,3
412,3,69,shadow,3,1,1,0.72795,1,NA,O_Image_69.bmp-O_Lure_69.bmp,1,1,2
413,3,128,breakfast,3,1,1,2.3754,1,NA,S_Image_128.bmp-S_Lure_128.bmp,1,0,3
414,3,8,shell,3,1,1,0.97347,1,NA,F_Image_8.bmp-F_Lure_8.bmp,1,1,1
415,3,54,arch,3,1,1,1.028,1,NA,O_Image_54.bmp-O_Lure_54.bmp,1,0,2
416,3,60,cloud,3,1,1,0.68813,1,NA,O_Image_60.bmp-O_Lure_60.bmp,1,0,2
417,3,143,galaxy,3,1,1,0.89054,1,NA,S_Image_143.bmp-S_Lure_143.bmp,1,1,3
418,3,51,stem,3,2,2,0.65246,1,NA,O_Image_51.bmp-O_Lure_51.bmp,1,1,2
419,3,73,costume,3,2,2,0.65577,1,NA,O_Image_73.bmp-O_Lure_73.bmp,1,0,2
420,3,30,yellow,3,1,1,0.86748,1,NA,F_Image_30.bmp-F_Lure_30.bmp,1,1,1
421,3,106,giant,3,2,2,1.5578,1,NA,S_Image_106.bmp-S_Lure_106.bmp,1,0,3
422,3,102,ghost,3,1,1,1.0854,1,NA,S_Image_102.bmp-S_Lure_102.bmp,1,1,3
423,3,70,drizzle,3,1,1,1.1276,1,NA,O_Image_70.bmp-O_Lure_70.bmp,1,1,2
424,3,6,spike,3,2,1,1.6394,0,NA,F_Image_6.bmp-F_Lure_6.bmp,1,1,1
425,3,131,tail,3,2,2,0.87552,1,NA,S_Image_131.bmp-S_Lure_131.bmp,1,0,3
426,3,12,attack,3,1,1,1.9015,1,NA,F_Image_12.bmp-F_Lure_12.bmp,1,0,1
427,3,43,wreck,3,2,2,1.1995,1,NA,F_Image_43.bmp-F_Lure_43.bmp,1,1,1
428,3,13,rust,3,1,1,0.93257,1,NA,F_Image_13.bmp-F_Lure_13.bmp,1,0,1
429,3,132,water,3,1,1,1.6367,1,NA,S_Image_132.bmp-S_Lure_132.bmp,1,1,3
430,3,87,orchestra,3,1,1,0.7207,1,NA,O_Image_87.bmp-O_Lure_87.bmp,1,0,2
431,3,16,board,3,2,2,1.73,1,NA,F_Image_16.bmp-F_Lure_16.bmp,1,1,1
432,3,140,alcohol,3,1,1,1.1216,1,NA,S_Image_140.bmp-S_Lure_140.bmp,1,1,3
433,4,15,witch,1,2,2,1.2132,1,NA,F_Image_15.bmp-F_Lure_15.bmp,2,1,1
434,4,129,corpse,1,1,1,2.0577,1,NA,S_Image_129.bmp-S_Lure_129.bmp,2,1,3
435,4,76,angel,1,1,1,0.76489,1,NA,O_Image_76.bmp-O_Lure_76.bmp,2,0,2
436,4,98,sunshine,1,2,2,1.1002,1,NA,S_Image_98.bmp-S_Lure_98.bmp,2,0,3
437,4,14,tube,1,2,2,1.1738,1,NA,F_Image_14.bmp-F_Lure_14.bmp,2,0,1
438,4,53,money,1,2,2,0.93218,1,NA,O_Image_53.bmp-O_Lure_53.bmp,2,0,2
439,4,21,cone,1,1,1,1.428,1,NA,F_Image_21.bmp-F_Lure_21.bmp,2,0,1
440,4,103,laundry,1,1,1,2.488,1,NA,S_Image_103.bmp-S_Lure_103.bmp,2,0,3
441,4,95,ghost,1,1,1,0.77832,1,NA,O_Image_95.bmp-O_Lure_95.bmp,2,1,2
442,4,23,vegetable,1,1,1,0.89671,1,NA,F_Image_23.bmp-F_Lure_23.bmp,2,1,1
443,4,33,harem,1,1,1,1.1139,1,NA,F_Image_33.bmp-F_Lure_33.bmp,2,0,1
444,4,91,paper,1,2,2,1.0026,1,NA,O_Image_91.bmp-O_Lure_91.bmp,2,0,2
445,4,58,arrow,1,2,2,0.77621,1,NA,O_Image_58.bmp-O_Lure_58.bmp,2,1,2
446,4,79,crumb,1,2,2,0.62232,1,NA,O_Image_79.bmp-O_Lure_79.bmp,2,0,2
447,4,96,animal,1,1,1,1.8187,1,NA,O_Image_96.bmp-O_Lure_96.bmp,2,1,2
448,4,57,giant,1,2,2,2.1439,1,NA,O_Image_57.bmp-O_Lure_57.bmp,2,0,2
449,4,144,fire,1,1,1,0.96737,1,NA,S_Image_144.bmp-S_Lure_144.bmp,2,1,3
450,4,125,rust,1,1,1,1.2463,1,NA,S_Image_125.bmp-S_Lure_125.bmp,2,0,3
451,4,26,slope,1,2,2,1.3135,1,NA,F_Image_26.bmp-F_Lure_26.bmp,2,1,1
452,4,1,rock,1,1,1,2.0023,1,NA,F_Image_1.bmp-F_Lure_1.bmp,2,1,1
453,4,22,galaxy,1,1,1,1.5996,1,NA,F_Image_22.bmp-F_Lure_22.bmp,2,1,1
454,4,46,tourist,1,1,1,0.93292,1,NA,F_Image_46.bmp-F_Lure_46.bmp,2,0,1
455,4,72,honeymoon,1,1,1,0.97323,1,NA,O_Image_72.bmp-O_Lure_72.bmp,2,0,2
456,4,118,antique,1,2,2,1.4919,1,NA,S_Image_118.bmp-S_Lure_118.bmp,2,0,3
457,4,92,yellow,2,1,1,0.82942,1,NA,O_Image_92.bmp-O_Lure_92.bmp,2,1,2
458,4,134,drizzle,2,1,0,3.5,0,NA,S_Image_134.bmp-S_Lure_134.bmp,2,1,3
459,4,17,cloud,2,1,2,1.5228,0,NA,F_Image_17.bmp-F_Lure_17.bmp,2,0,1
460,4,48,bubble,2,1,1,0.90766,1,NA,F_Image_48.bmp-F_Lure_48.bmp,2,0,1
461,4,56,lever,2,2,2,0.84563,1,NA,O_Image_56.bmp-O_Lure_56.bmp,2,1,2
462,4,49,sand,2,1,1,2.0407,1,NA,O_Image_49.bmp-O_Lure_49.bmp,2,1,2
463,4,38,water,2,2,2,1.0447,1,NA,F_Image_38.bmp-F_Lure_38.bmp,2,1,1
464,4,52,sweat,2,1,1,0.97642,1,NA,O_Image_52.bmp-O_Lure_52.bmp,2,1,2
465,4,59,menu,2,2,2,1.2143,1,NA,O_Image_59.bmp-O_Lure_59.bmp,2,0,2
466,4,81,scar,2,1,1,0.73879,1,NA,O_Image_81.bmp-O_Lure_81.bmp,2,0,2
467,4,67,spray,2,2,2,1.5952,1,NA,O_Image_67.bmp-O_Lure_67.bmp,2,0,2
468,4,37,flood,2,2,2,3.0005,1,NA,F_Image_37.bmp-F_Lure_37.bmp,2,0,1
469,4,94,measles,2,2,2,0.79791,1,NA,O_Image_94.bmp-O_Lure_94.bmp,2,1,2
470,4,11,wound,2,1,1,1.5071,1,NA,F_Image_11.bmp-F_Lure_11.bmp,2,1,1
471,4,32,asphalt,2,1,1,0.82071,1,NA,F_Image_32.bmp-F_Lure_32.bmp,2,0,1
472,4,105,poison,2,2,2,1.4737,1,NA,S_Image_105.bmp-S_Lure_105.bmp,2,1,3
473,4,62,shell,2,2,2,0.62826,1,NA,O_Image_62.bmp-O_Lure_62.bmp,2,1,2
474,4,45,kiss,2,1,1,2.5203,1,NA,F_Image_45.bmp-F_Lure_45.bmp,2,0,1
475,4,117,stem,2,1,2,1.6811,0,NA,S_Image_117.bmp-S_Lure_117.bmp,2,1,3
476,4,139,hostage,2,2,2,1.0514,1,NA,S_Image_139.bmp-S_Lure_139.bmp,2,1,3
477,4,82,black,2,1,1,0.88665,1,NA,O_Image_82.bmp-O_Lure_82.bmp,2,0,2
478,4,104,orchestra,2,1,1,2.033,1,NA,S_Image_104.bmp-S_Lure_104.bmp,2,0,3
479,4,114,board,2,2,2,0.83679,1,NA,S_Image_114.bmp-S_Lure_114.bmp,2,1,3
480,4,84,triangle,2,1,1,1.281,1,NA,O_Image_84.bmp-O_Lure_84.bmp,2,1,2
481,4,20,magnet,3,1,1,0.77938,1,NA,F_Image_20.bmp-F_Lure_20.bmp,2,0,1
482,4,123,costume,3,2,2,1.2897,1,NA,S_Image_123.bmp-S_Lure_123.bmp,2,0,3
483,4,89,wool,3,1,1,1.0994,1,NA,O_Image_89.bmp-O_Lure_89.bmp,2,0,2
484,4,83,corner,3,2,2,0.69299,1,NA,O_Image_83.bmp-O_Lure_83.bmp,2,0,2
485,4,99,army,3,1,1,1.4624,1,NA,S_Image_99.bmp-S_Lure_99.bmp,2,1,3
486,4,40,seed,3,1,1,2.5373,1,NA,F_Image_40.bmp-F_Lure_40.bmp,2,1,1
487,4,35,breakfast,3,1,1,1.1052,1,NA,F_Image_35.bmp-F_Lure_35.bmp,2,0,1
488,4,110,snow,3,1,1,1.9385,1,NA,S_Image_110.bmp-S_Lure_110.bmp,2,1,3
489,4,77,steam,3,2,2,0.92269,1,NA,O_Image_77.bmp-O_Lure_77.bmp,2,1,2
490,4,135,spike,3,1,1,1.0755,1,NA,S_Image_135.bmp-S_Lure_135.bmp,2,1,3
491,4,68,tear,3,1,1,0.78962,1,NA,O_Image_68.bmp-O_Lure_68.bmp,2,0,2
492,4,130,shadow,3,2,2,2.5319,1,NA,S_Image_130.bmp-S_Lure_130.bmp,2,1,3
493,4,115,attack,3,2,2,2.2437,1,NA,S_Image_115.bmp-S_Lure_115.bmp,2,0,3
494,4,24,alcohol,3,2,2,1.4154,1,NA,F_Image_24.bmp-F_Lure_24.bmp,2,1,1
495,4,25,fuel,3,1,1,3.4842,1,NA,F_Image_25.bmp-F_Lure_25.bmp,2,1,1
496,4,31,signal,3,1,1,1.1902,1,NA,F_Image_31.bmp-F_Lure_31.bmp,2,0,1
497,4,44,tail,3,1,1,1.2205,1,NA,F_Image_44.bmp-F_Lure_44.bmp,2,0,1
498,4,121,hurricane,3,1,1,0.96908,1,NA,S_Image_121.bmp-S_Lure_121.bmp,2,1,3
499,4,126,wreck,3,1,1,1.3759,1,NA,S_Image_126.bmp-S_Lure_126.bmp,2,1,3
500,4,133,marble,3,2,2,1.742,1,NA,S_Image_133.bmp-S_Lure_133.bmp,2,0,3
501,4,122,stripe,3,2,2,1.2854,1,NA,S_Image_122.bmp-S_Lure_122.bmp,2,1,3
502,4,4,alien,3,1,1,1.7433,1,NA,F_Image_4.bmp-F_Lure_4.bmp,2,0,1
503,4,108,quake,3,2,2,1.2228,1,NA,S_Image_108.bmp-S_Lure_108.bmp,2,1,3
504,4,142,arch,3,1,1,1.1077,1,NA,S_Image_142.bmp-S_Lure_142.bmp,2,0,3
