Trial,Cond,ImageNum,Cue,Block,Correct,Response,RT,Accuracy,CueRep,fName,ImageType,Baseline,Category
1,1,15,NA,NA,NA,2,0.77215,NA,NA,F_Lure_15.bmp,0,0,1
2,1,50,NA,NA,NA,1,1.0052,NA,NA,O_Image_50.bmp,2,0,2
3,1,92,NA,NA,NA,1,0.35408,NA,NA,O_Lure_92.bmp,0,1,2
4,1,56,NA,NA,NA,1,0.20784,NA,NA,O_Image_56.bmp,1,1,2
5,1,130,NA,NA,NA,2,0.5719,NA,NA,S_Lure_130.bmp,0,1,3
6,1,84,NA,NA,NA,1,0.36776,NA,NA,O_Image_84.bmp,1,0,2
7,1,58,NA,NA,NA,1,0.24315,NA,NA,O_Image_58.bmp,1,1,2
8,1,114,NA,NA,NA,1,0.23666,NA,NA,S_Lure_114.bmp,0,1,3
9,1,10,NA,NA,NA,2,0.22459,NA,NA,F_Image_10.bmp,2,1,1
10,1,42,NA,NA,NA,1,0.2967,NA,NA,F_Image_42.bmp,1,0,1
11,1,118,NA,NA,NA,1,0.25834,NA,NA,S_Image_118.bmp,1,1,3
12,1,110,NA,NA,NA,1,0.00013372,NA,NA,S_Lure_110.bmp,0,1,3
13,1,13,NA,NA,NA,1,0.32952,NA,NA,F_Lure_13.bmp,0,0,1
14,1,132,NA,NA,NA,2,0.33705,NA,NA,S_Image_132.bmp,1,1,3
15,1,80,NA,NA,NA,1,0.20491,NA,NA,O_Lure_80.bmp,0,1,2
16,1,79,NA,NA,NA,1,0.24221,NA,NA,O_Lure_79.bmp,0,1,2
17,1,71,NA,NA,NA,1,0.0001298,NA,NA,O_Lure_71.bmp,0,0,2
18,1,39,NA,NA,NA,2,0.28066,NA,NA,F_Lure_39.bmp,0,1,1
19,1,16,NA,NA,NA,1,0.28904,NA,NA,F_Lure_16.bmp,0,1,1
20,1,21,NA,NA,NA,1,0.27326,NA,NA,F_Lure_21.bmp,0,1,1
21,1,12,NA,NA,NA,1,0.018445,NA,NA,F_Image_12.bmp,1,1,1
22,1,143,NA,NA,NA,1,0.76523,NA,NA,S_Image_143.bmp,2,1,3
23,1,24,NA,NA,NA,2,0.24992,NA,NA,F_Lure_24.bmp,0,0,1
24,1,123,NA,NA,NA,1,0.31553,NA,NA,S_Image_123.bmp,2,0,3
25,1,102,NA,NA,NA,2,0.51529,NA,NA,S_Image_102.bmp,1,0,3
26,1,135,NA,NA,NA,2,0.44268,NA,NA,S_Lure_135.bmp,0,1,3
27,1,4,NA,NA,NA,1,0.30867,NA,NA,F_Image_4.bmp,1,1,1
28,1,68,NA,NA,NA,1,0.1075,NA,NA,O_Lure_68.bmp,0,1,2
29,1,134,NA,NA,NA,2,0.37543,NA,NA,S_Lure_134.bmp,0,0,3
30,1,133,NA,NA,NA,2,0.32361,NA,NA,S_Image_133.bmp,1,1,3
31,1,48,NA,NA,NA,1,0.31349,NA,NA,F_Lure_48.bmp,0,0,1
32,1,9,NA,NA,NA,2,0.27242,NA,NA,F_Lure_9.bmp,0,0,1
33,1,20,NA,NA,NA,1,0.00012889,NA,NA,F_Image_20.bmp,1,0,1
34,1,113,NA,NA,NA,1,0.2357,NA,NA,S_Lure_113.bmp,0,1,3
35,1,88,NA,NA,NA,1,0.46373,NA,NA,O_Image_88.bmp,2,0,2
36,1,94,NA,NA,NA,1,0.28181,NA,NA,O_Image_94.bmp,2,1,2
37,1,40,NA,NA,NA,1,0.26584,NA,NA,F_Lure_40.bmp,0,1,1
38,1,117,NA,NA,NA,2,0.85912,NA,NA,S_Image_117.bmp,2,0,3
39,1,90,NA,NA,NA,1,1.3799,NA,NA,O_Lure_90.bmp,0,1,2
40,1,59,NA,NA,NA,1,0.24044,NA,NA,O_Lure_59.bmp,0,1,2
41,1,112,NA,NA,NA,1,0.00012859,NA,NA,S_Lure_112.bmp,0,1,3
42,1,125,NA,NA,NA,1,0.5152,NA,NA,S_Lure_125.bmp,0,1,3
43,1,72,NA,NA,NA,1,0.074674,NA,NA,O_Lure_72.bmp,0,1,2
44,1,54,NA,NA,NA,1,0.11544,NA,NA,O_Lure_54.bmp,0,0,2
45,1,17,NA,NA,NA,1,0.099224,NA,NA,F_Image_17.bmp,1,1,1
46,1,36,NA,NA,NA,1,0.26615,NA,NA,F_Image_36.bmp,2,1,1
47,1,56,NA,NA,NA,1,0.50883,NA,NA,O_Lure_56.bmp,0,1,2
48,1,66,NA,NA,NA,1,0.35684,NA,NA,O_Lure_66.bmp,0,1,2
49,1,108,NA,NA,NA,2,0.37153,NA,NA,S_Lure_108.bmp,0,1,3
50,1,83,NA,NA,NA,1,0.0001301,NA,NA,O_Lure_83.bmp,0,0,2
51,1,95,NA,NA,NA,1,0.2885,NA,NA,O_Lure_95.bmp,0,1,2
52,1,21,NA,NA,NA,1,0.32868,NA,NA,F_Image_21.bmp,1,1,1
53,1,75,NA,NA,NA,1,0.33568,NA,NA,O_Image_75.bmp,2,0,2
54,1,2,NA,NA,NA,1,0.32496,NA,NA,F_Image_2.bmp,2,0,1
55,1,1,NA,NA,NA,1,0.38852,NA,NA,F_Image_1.bmp,2,0,1
56,1,78,NA,NA,NA,1,0.40799,NA,NA,O_Lure_78.bmp,0,1,2
57,1,85,NA,NA,NA,1,0.13865,NA,NA,O_Image_85.bmp,1,1,2
58,1,19,NA,NA,NA,1,0.45113,NA,NA,F_Image_19.bmp,1,1,1
59,1,87,NA,NA,NA,1,0.00012979,NA,NA,O_Lure_87.bmp,0,0,2
60,1,44,NA,NA,NA,1,0.033834,NA,NA,F_Image_44.bmp,1,0,1
61,1,105,NA,NA,NA,2,0.00012587,NA,NA,S_Image_105.bmp,2,0,3
62,1,11,NA,NA,NA,1,0.50538,NA,NA,F_Lure_11.bmp,0,0,1
63,1,108,NA,NA,NA,2,0.28882,NA,NA,S_Image_108.bmp,1,1,3
64,1,122,NA,NA,NA,2,0.97968,NA,NA,S_Lure_122.bmp,0,0,3
65,1,18,NA,NA,NA,1,0.00013251,NA,NA,F_Image_18.bmp,1,0,1
66,1,126,NA,NA,NA,2,0.86903,NA,NA,S_Image_126.bmp,1,0,3
67,1,86,NA,NA,NA,1,0.00012829,NA,NA,O_Lure_86.bmp,0,0,2
68,1,80,NA,NA,NA,1,0.49162,NA,NA,O_Image_80.bmp,2,1,2
69,1,84,NA,NA,NA,1,0.00013945,NA,NA,O_Lure_84.bmp,0,0,2
70,1,22,NA,NA,NA,2,0.00012889,NA,NA,F_Lure_22.bmp,0,0,1
71,1,20,NA,NA,NA,1,0.06486,NA,NA,F_Lure_20.bmp,0,0,1
72,1,12,NA,NA,NA,1,0.92906,NA,NA,F_Lure_12.bmp,0,1,1
73,1,36,NA,NA,NA,1,0.19124,NA,NA,F_Lure_36.bmp,0,1,1
74,1,5,NA,NA,NA,1,0.00013251,NA,NA,F_Image_5.bmp,2,1,1
75,1,87,NA,NA,NA,1,0.27256,NA,NA,O_Image_87.bmp,1,0,2
76,1,45,NA,NA,NA,2,0.36197,NA,NA,F_Image_45.bmp,2,0,1
77,1,18,NA,NA,NA,1,0.26271,NA,NA,F_Lure_18.bmp,0,0,1
78,1,93,NA,NA,NA,1,0.42537,NA,NA,O_Image_93.bmp,1,1,2
79,1,34,NA,NA,NA,1,0.29215,NA,NA,F_Image_34.bmp,2,0,1
80,1,135,NA,NA,NA,1,0.33156,NA,NA,S_Image_135.bmp,1,1,3
81,1,86,NA,NA,NA,1,0.2742,NA,NA,O_Image_86.bmp,1,0,2
82,1,37,NA,NA,NA,2,0.28411,NA,NA,F_Lure_37.bmp,0,0,1
83,1,110,NA,NA,NA,1,0.2698,NA,NA,S_Image_110.bmp,2,1,3
84,1,64,NA,NA,NA,1,0.37571,NA,NA,O_Image_64.bmp,1,1,2
85,1,105,NA,NA,NA,1,0.27674,NA,NA,S_Lure_105.bmp,0,0,3
86,1,57,NA,NA,NA,1,0.43085,NA,NA,O_Image_57.bmp,2,1,2
87,1,38,NA,NA,NA,1,0.2346,NA,NA,F_Lure_38.bmp,0,1,1
88,1,5,NA,NA,NA,1,0.11972,NA,NA,F_Lure_5.bmp,0,1,1
89,1,144,NA,NA,NA,1,0.32979,NA,NA,S_Image_144.bmp,2,0,3
90,1,28,NA,NA,NA,2,0.17626,NA,NA,F_Image_28.bmp,2,0,1
91,1,73,NA,NA,NA,1,0.70843,NA,NA,O_Image_73.bmp,1,0,2
92,1,41,NA,NA,NA,1,0.0001304,NA,NA,F_Image_41.bmp,2,1,1
93,1,77,NA,NA,NA,1,0.40585,NA,NA,O_Image_77.bmp,2,0,2
94,1,37,NA,NA,NA,2,0.49885,NA,NA,F_Image_37.bmp,1,0,1
95,1,73,NA,NA,NA,1,0.21077,NA,NA,O_Lure_73.bmp,0,0,2
96,1,115,NA,NA,NA,2,0.46199,NA,NA,S_Lure_115.bmp,0,0,3
97,1,92,NA,NA,NA,1,0.43991,NA,NA,O_Image_92.bmp,2,1,2
98,1,23,NA,NA,NA,1,2.8556,NA,NA,F_Image_23.bmp,1,0,1
99,1,44,NA,NA,NA,1,0.43568,NA,NA,F_Lure_44.bmp,0,0,1
100,1,70,NA,NA,NA,1,0.30428,NA,NA,O_Image_70.bmp,1,0,2
101,1,121,NA,NA,NA,2,0.3445,NA,NA,S_Lure_121.bmp,0,1,3
102,1,41,NA,NA,NA,1,0.00012738,NA,NA,F_Lure_41.bmp,0,1,1
103,1,27,NA,NA,NA,1,6.2174,NA,NA,F_Image_27.bmp,2,0,1
104,1,130,NA,NA,NA,2,0.4611,NA,NA,S_Image_130.bmp,1,1,3
105,1,23,NA,NA,NA,1,0.62209,NA,NA,F_Lure_23.bmp,0,0,1
106,1,119,NA,NA,NA,1,0.65652,NA,NA,S_Image_119.bmp,2,1,3
107,1,29,NA,NA,NA,1,0.28134,NA,NA,F_Image_29.bmp,2,1,1
108,1,112,NA,NA,NA,1,0.81799,NA,NA,S_Image_112.bmp,1,1,3
109,1,89,NA,NA,NA,1,1.8373,NA,NA,O_Image_89.bmp,1,1,2
110,1,35,NA,NA,NA,2,0.29742,NA,NA,F_Lure_35.bmp,0,0,1
111,1,6,NA,NA,NA,1,0.22452,NA,NA,F_Lure_6.bmp,0,1,1
112,1,132,NA,NA,NA,2,0.76349,NA,NA,S_Lure_132.bmp,0,1,3
113,1,46,NA,NA,NA,2,0.37612,NA,NA,F_Lure_46.bmp,0,0,1
114,1,99,NA,NA,NA,2,0.24622,NA,NA,S_Lure_99.bmp,0,0,3
115,1,51,NA,NA,NA,1,0.93537,NA,NA,O_Image_51.bmp,1,1,2
116,1,22,NA,NA,NA,2,0.36681,NA,NA,F_Image_22.bmp,1,0,1
117,1,54,NA,NA,NA,1,1.0124,NA,NA,O_Image_54.bmp,1,0,2
118,1,52,NA,NA,NA,1,0.56057,NA,NA,O_Lure_52.bmp,0,0,2
119,1,91,NA,NA,NA,1,1.2046,NA,NA,O_Image_91.bmp,1,1,2
120,1,40,NA,NA,NA,1,0.49919,NA,NA,F_Image_40.bmp,2,1,1
121,1,32,NA,NA,NA,1,0.3625,NA,NA,F_Lure_32.bmp,0,0,1
122,1,30,NA,NA,NA,1,0.39748,NA,NA,F_Lure_30.bmp,0,1,1
123,1,45,NA,NA,NA,2,0.20922,NA,NA,F_Lure_45.bmp,0,0,1
124,1,116,NA,NA,NA,1,0.90613,NA,NA,S_Lure_116.bmp,0,0,3
125,1,39,NA,NA,NA,2,0.68736,NA,NA,F_Image_39.bmp,1,1,1
126,1,74,NA,NA,NA,1,0.46435,NA,NA,O_Lure_74.bmp,0,1,2
127,1,142,NA,NA,NA,2,0.81692,NA,NA,S_Image_142.bmp,2,0,3
128,1,121,NA,NA,NA,1,0.49832,NA,NA,S_Image_121.bmp,1,1,3
129,1,114,NA,NA,NA,1,0.79976,NA,NA,S_Image_114.bmp,2,1,3
130,1,2,NA,NA,NA,1,1.5555,NA,NA,F_Lure_2.bmp,0,0,1
131,1,67,NA,NA,NA,1,0.52902,NA,NA,O_Image_67.bmp,1,0,2
132,1,24,NA,NA,NA,2,0.29363,NA,NA,F_Image_24.bmp,1,0,1
133,1,98,NA,NA,NA,2,1.547,NA,NA,S_Lure_98.bmp,0,1,3
134,1,48,NA,NA,NA,1,0.067682,NA,NA,F_Image_48.bmp,2,0,1
135,1,140,NA,NA,NA,1,0.36252,NA,NA,S_Lure_140.bmp,0,0,3
136,1,122,NA,NA,NA,2,1.0279,NA,NA,S_Image_122.bmp,2,0,3
137,1,17,NA,NA,NA,1,0.54216,NA,NA,F_Lure_17.bmp,0,1,1
138,1,127,NA,NA,NA,1,0.76267,NA,NA,S_Image_127.bmp,2,0,3
139,1,90,NA,NA,NA,1,0.36801,NA,NA,O_Image_90.bmp,1,1,2
140,1,59,NA,NA,NA,1,0.76745,NA,NA,O_Image_59.bmp,2,1,2
141,1,124,NA,NA,NA,2,0.34232,NA,NA,S_Lure_124.bmp,0,1,3
142,1,142,NA,NA,NA,1,0.36176,NA,NA,S_Lure_142.bmp,0,0,3
143,1,101,NA,NA,NA,2,0.44694,NA,NA,S_Image_101.bmp,2,0,3
144,1,131,NA,NA,NA,2,0.6633,NA,NA,S_Lure_131.bmp,0,0,3
145,1,27,NA,NA,NA,1,0.17418,NA,NA,F_Lure_27.bmp,0,0,1
146,1,79,NA,NA,NA,2,0.048134,NA,NA,O_Image_79.bmp,2,1,2
147,1,25,NA,NA,NA,1,0.21031,NA,NA,F_Lure_25.bmp,0,1,1
148,1,139,NA,NA,NA,1,0.57394,NA,NA,S_Image_139.bmp,1,0,3
149,1,76,NA,NA,NA,1,0.13114,NA,NA,O_Lure_76.bmp,0,1,2
150,1,117,NA,NA,NA,2,0.68234,NA,NA,S_Lure_117.bmp,0,0,3
151,1,129,NA,NA,NA,2,0.26525,NA,NA,S_Image_129.bmp,2,0,3
152,1,53,NA,NA,NA,1,0.0001301,NA,NA,O_Image_53.bmp,2,1,2
153,1,111,NA,NA,NA,1,0.36378,NA,NA,S_Image_111.bmp,2,0,3
154,1,72,NA,NA,NA,1,0.57655,NA,NA,O_Image_72.bmp,1,1,2
155,1,58,NA,NA,NA,1,0.00012648,NA,NA,O_Lure_58.bmp,0,1,2
156,1,28,NA,NA,NA,2,0.0001304,NA,NA,F_Lure_28.bmp,0,0,1
157,1,6,NA,NA,NA,1,0.4209,NA,NA,F_Image_6.bmp,2,1,1
158,1,29,NA,NA,NA,1,0.37545,NA,NA,F_Lure_29.bmp,0,1,1
159,1,76,NA,NA,NA,1,0.29883,NA,NA,O_Image_76.bmp,1,1,2
160,1,61,NA,NA,NA,1,0.45826,NA,NA,O_Lure_61.bmp,0,0,2
161,1,63,NA,NA,NA,1,0.00012466,NA,NA,O_Lure_63.bmp,0,1,2
162,1,118,NA,NA,NA,1,0.25687,NA,NA,S_Lure_118.bmp,0,1,3
163,1,134,NA,NA,NA,2,0.37965,NA,NA,S_Image_134.bmp,1,0,3
164,1,128,NA,NA,NA,1,0.28772,NA,NA,S_Image_128.bmp,2,0,3
165,1,136,NA,NA,NA,1,0.00012708,NA,NA,S_Lure_136.bmp,0,0,3
166,1,8,NA,NA,NA,1,0.19902,NA,NA,F_Image_8.bmp,2,1,1
167,1,26,NA,NA,NA,1,0.30718,NA,NA,F_Lure_26.bmp,0,0,1
168,1,82,NA,NA,NA,1,0.090673,NA,NA,O_Image_82.bmp,1,1,2
169,1,75,NA,NA,NA,1,0.23348,NA,NA,O_Lure_75.bmp,0,0,2
170,1,95,NA,NA,NA,1,0.22863,NA,NA,O_Image_95.bmp,2,1,2
171,1,70,NA,NA,NA,1,0.032,NA,NA,O_Lure_70.bmp,0,0,2
172,1,113,NA,NA,NA,1,0.26754,NA,NA,S_Image_113.bmp,2,1,3
173,1,104,NA,NA,NA,1,0.022458,NA,NA,S_Image_104.bmp,1,1,3
174,1,100,NA,NA,NA,2,0.073405,NA,NA,S_Image_100.bmp,1,0,3
175,1,77,NA,NA,NA,1,0.15409,NA,NA,O_Lure_77.bmp,0,0,2
176,1,68,NA,NA,NA,1,0.00013281,NA,NA,O_Image_68.bmp,2,1,2
177,1,42,NA,NA,NA,1,0.70888,NA,NA,F_Lure_42.bmp,0,0,1
178,1,138,NA,NA,NA,1,2.6755,NA,NA,S_Image_138.bmp,1,1,3
179,1,7,NA,NA,NA,1,0.37092,NA,NA,F_Image_7.bmp,2,1,1
180,1,52,NA,NA,NA,1,0.52811,NA,NA,O_Image_52.bmp,1,0,2
181,1,133,NA,NA,NA,2,0.30998,NA,NA,S_Lure_133.bmp,0,1,3
182,1,53,NA,NA,NA,1,0.00012859,NA,NA,O_Lure_53.bmp,0,1,2
183,1,10,NA,NA,NA,2,1.5617,NA,NA,F_Lure_10.bmp,0,1,1
184,1,8,NA,NA,NA,1,0.28351,NA,NA,F_Lure_8.bmp,0,1,1
185,1,32,NA,NA,NA,1,0.30769,NA,NA,F_Image_32.bmp,1,0,1
186,1,124,NA,NA,NA,1,0.42597,NA,NA,S_Image_124.bmp,1,1,3
187,1,15,NA,NA,NA,1,0.2358,NA,NA,F_Image_15.bmp,1,0,1
188,1,100,NA,NA,NA,2,0.27097,NA,NA,S_Lure_100.bmp,0,0,3
189,1,60,NA,NA,NA,1,0.26072,NA,NA,O_Lure_60.bmp,0,0,2
190,1,98,NA,NA,NA,1,0.52633,NA,NA,S_Image_98.bmp,2,1,3
191,1,33,NA,NA,NA,1,0.26772,NA,NA,F_Lure_33.bmp,0,1,1
192,1,16,NA,NA,NA,1,0.37796,NA,NA,F_Image_16.bmp,1,1,1
193,1,101,NA,NA,NA,2,0.13577,NA,NA,S_Lure_101.bmp,0,0,3
194,1,60,NA,NA,NA,1,0.32413,NA,NA,O_Image_60.bmp,1,0,2
195,1,31,NA,NA,NA,1,0.082794,NA,NA,F_Lure_31.bmp,0,0,1
196,1,115,NA,NA,NA,2,0.86561,NA,NA,S_Image_115.bmp,1,0,3
197,1,103,NA,NA,NA,1,0.00012949,NA,NA,S_Image_103.bmp,1,0,3
198,1,111,NA,NA,NA,1,0.12772,NA,NA,S_Lure_111.bmp,0,0,3
199,1,67,NA,NA,NA,1,0.2557,NA,NA,O_Lure_67.bmp,0,0,2
200,1,141,NA,NA,NA,1,0.43189,NA,NA,S_Image_141.bmp,1,1,3
201,1,38,NA,NA,NA,1,0.46696,NA,NA,F_Image_38.bmp,2,1,1
202,1,69,NA,NA,NA,1,0.44183,NA,NA,O_Lure_69.bmp,0,1,2
203,1,83,NA,NA,NA,1,0.17255,NA,NA,O_Image_83.bmp,1,0,2
204,1,66,NA,NA,NA,1,0.00012708,NA,NA,O_Image_66.bmp,2,1,2
205,1,31,NA,NA,NA,1,1.1213,NA,NA,F_Image_31.bmp,2,0,1
206,1,14,NA,NA,NA,1,0.42539,NA,NA,F_Image_14.bmp,1,0,1
207,1,9,NA,NA,NA,1,0.37139,NA,NA,F_Image_9.bmp,1,0,1
208,1,116,NA,NA,NA,1,0.52737,NA,NA,S_Image_116.bmp,2,0,3
209,1,96,NA,NA,NA,1,1.1741,NA,NA,O_Lure_96.bmp,0,1,2
210,1,106,NA,NA,NA,2,0.2365,NA,NA,S_Lure_106.bmp,0,0,3
211,1,63,NA,NA,NA,1,0.4229,NA,NA,O_Image_63.bmp,2,1,2
212,1,129,NA,NA,NA,2,0.30495,NA,NA,S_Lure_129.bmp,0,0,3
213,1,93,NA,NA,NA,1,1.2382,NA,NA,O_Lure_93.bmp,0,1,2
214,1,119,NA,NA,NA,2,0.00012979,NA,NA,S_Lure_119.bmp,0,1,3
215,1,103,NA,NA,NA,1,0.53984,NA,NA,S_Lure_103.bmp,0,0,3
216,1,81,NA,NA,NA,1,0.58694,NA,NA,O_Image_81.bmp,2,1,2
217,1,82,NA,NA,NA,1,0.92516,NA,NA,O_Lure_82.bmp,0,1,2
218,1,99,NA,NA,NA,2,0.43337,NA,NA,S_Image_99.bmp,1,0,3
219,1,107,NA,NA,NA,1,0.33788,NA,NA,S_Lure_107.bmp,0,0,3
220,1,61,NA,NA,NA,1,0.43191,NA,NA,O_Image_61.bmp,2,0,2
221,1,127,NA,NA,NA,1,0.098732,NA,NA,S_Lure_127.bmp,0,0,3
222,1,43,NA,NA,NA,1,0.73741,NA,NA,F_Image_43.bmp,2,0,1
223,1,126,NA,NA,NA,2,0.11178,NA,NA,S_Lure_126.bmp,0,0,3
224,1,97,NA,NA,NA,2,0.509,NA,NA,S_Image_97.bmp,2,1,3
225,1,46,NA,NA,NA,2,0.79431,NA,NA,F_Image_46.bmp,1,0,1
226,1,26,NA,NA,NA,1,0.42075,NA,NA,F_Image_26.bmp,2,0,1
227,1,107,NA,NA,NA,1,0.54498,NA,NA,S_Image_107.bmp,2,0,3
228,1,13,NA,NA,NA,1,0.34294,NA,NA,F_Image_13.bmp,2,0,1
229,1,55,NA,NA,NA,1,0.56423,NA,NA,O_Lure_55.bmp,0,0,2
230,1,49,NA,NA,NA,1,1.1993,NA,NA,O_Image_49.bmp,2,0,2
231,1,47,NA,NA,NA,2,1.3625,NA,NA,F_Image_47.bmp,1,0,1
232,1,19,NA,NA,NA,1,0.56719,NA,NA,F_Lure_19.bmp,0,1,1
233,1,65,NA,NA,NA,1,0.35667,NA,NA,O_Image_65.bmp,2,0,2
234,1,120,NA,NA,NA,2,0.3141,NA,NA,S_Lure_120.bmp,0,1,3
235,1,128,NA,NA,NA,2,0.8633,NA,NA,S_Lure_128.bmp,0,0,3
236,1,65,NA,NA,NA,1,1.6072,NA,NA,O_Lure_65.bmp,0,0,2
237,1,106,NA,NA,NA,1,0.00012979,NA,NA,S_Image_106.bmp,1,0,3
238,1,30,NA,NA,NA,1,0.19874,NA,NA,F_Image_30.bmp,2,1,1
239,1,69,NA,NA,NA,1,0.2908,NA,NA,O_Image_69.bmp,2,1,2
240,1,137,NA,NA,NA,1,0.34754,NA,NA,S_Image_137.bmp,1,1,3
241,1,91,NA,NA,NA,1,0.27289,NA,NA,O_Lure_91.bmp,0,1,2
242,1,62,NA,NA,NA,1,0.68295,NA,NA,O_Lure_62.bmp,0,0,2
243,1,144,NA,NA,NA,1,0.64367,NA,NA,S_Lure_144.bmp,0,0,3
244,1,11,NA,NA,NA,1,0.71829,NA,NA,F_Image_11.bmp,2,0,1
245,1,55,NA,NA,NA,1,1.055,NA,NA,O_Image_55.bmp,1,0,2
246,1,123,NA,NA,NA,2,1.4963,NA,NA,S_Lure_123.bmp,0,0,3
247,1,141,NA,NA,NA,1,0.4471,NA,NA,S_Lure_141.bmp,0,1,3
248,1,139,NA,NA,NA,1,0.33722,NA,NA,S_Lure_139.bmp,0,0,3
249,1,43,NA,NA,NA,1,0.34601,NA,NA,F_Lure_43.bmp,0,0,1
250,1,4,NA,NA,NA,1,0.44856,NA,NA,F_Lure_4.bmp,0,1,1
251,1,120,NA,NA,NA,2,0.6272,NA,NA,S_Image_120.bmp,1,1,3
252,1,88,NA,NA,NA,2,0.39529,NA,NA,O_Lure_88.bmp,0,0,2
253,1,34,NA,NA,NA,1,0.44597,NA,NA,F_Lure_34.bmp,0,0,1
254,1,74,NA,NA,NA,1,0.52853,NA,NA,O_Image_74.bmp,2,1,2
255,1,49,NA,NA,NA,1,1.0074,NA,NA,O_Lure_49.bmp,0,0,2
256,1,89,NA,NA,NA,1,0.41079,NA,NA,O_Lure_89.bmp,0,1,2
257,1,57,NA,NA,NA,1,0.46346,NA,NA,O_Lure_57.bmp,0,1,2
258,1,51,NA,NA,NA,1,0.52009,NA,NA,O_Lure_51.bmp,0,1,2
259,1,81,NA,NA,NA,1,0.39165,NA,NA,O_Lure_81.bmp,0,1,2
260,1,143,NA,NA,NA,1,0.097687,NA,NA,S_Lure_143.bmp,0,1,3
261,1,7,NA,NA,NA,1,0.79969,NA,NA,F_Lure_7.bmp,0,1,1
262,1,85,NA,NA,NA,1,0.34781,NA,NA,O_Lure_85.bmp,0,1,2
263,1,71,NA,NA,NA,1,0.96109,NA,NA,O_Image_71.bmp,2,0,2
264,1,35,NA,NA,NA,2,0.2997,NA,NA,F_Image_35.bmp,1,0,1
265,1,138,NA,NA,NA,1,1.0511,NA,NA,S_Lure_138.bmp,0,1,3
266,1,96,NA,NA,NA,1,1.1535,NA,NA,O_Image_96.bmp,2,1,2
267,1,78,NA,NA,NA,1,0.5102,NA,NA,O_Image_78.bmp,1,1,2
268,1,3,NA,NA,NA,2,0.0001313,NA,NA,F_Lure_3.bmp,0,1,1
269,1,50,NA,NA,NA,1,0.12376,NA,NA,O_Lure_50.bmp,0,0,2
270,1,3,NA,NA,NA,2,0.3464,NA,NA,F_Image_3.bmp,1,1,1
271,1,94,NA,NA,NA,1,0.7354,NA,NA,O_Lure_94.bmp,0,1,2
272,1,47,NA,NA,NA,1,0.00013402,NA,NA,F_Lure_47.bmp,0,0,1
273,1,137,NA,NA,NA,1,0.89073,NA,NA,S_Lure_137.bmp,0,1,3
274,1,125,NA,NA,NA,1,0.3864,NA,NA,S_Image_125.bmp,2,1,3
275,1,14,NA,NA,NA,1,0.32698,NA,NA,F_Lure_14.bmp,0,0,1
276,1,64,NA,NA,NA,1,1.2277,NA,NA,O_Lure_64.bmp,0,1,2
277,1,109,NA,NA,NA,1,0.22864,NA,NA,S_Lure_109.bmp,0,1,3
278,1,131,NA,NA,NA,2,0.41659,NA,NA,S_Image_131.bmp,1,0,3
279,1,140,NA,NA,NA,2,1.13,NA,NA,S_Image_140.bmp,2,0,3
280,1,1,NA,NA,NA,1,1.0414,NA,NA,F_Lure_1.bmp,0,0,1
281,1,25,NA,NA,NA,1,0.73661,NA,NA,F_Image_25.bmp,2,1,1
282,1,62,NA,NA,NA,1,0.35908,NA,NA,O_Image_62.bmp,2,0,2
283,1,136,NA,NA,NA,1,0.00012829,NA,NA,S_Image_136.bmp,2,0,3
284,1,104,NA,NA,NA,2,0.27429,NA,NA,S_Lure_104.bmp,0,1,3
285,1,109,NA,NA,NA,1,0.023443,NA,NA,S_Image_109.bmp,2,1,3
286,1,33,NA,NA,NA,1,0.28012,NA,NA,F_Image_33.bmp,1,1,1
287,1,97,NA,NA,NA,2,0.00013191,NA,NA,S_Lure_97.bmp,0,1,3
288,1,102,NA,NA,NA,2,0.0001307,NA,NA,S_Lure_102.bmp,0,0,3
289,2,130,corner,1,2,0,3.4999,0,NA,S_Image_130.bmp-S_Lure_130.bmp,1,1,3
290,2,137,sweat,1,1,1,1.291,1,NA,S_Image_137.bmp-S_Lure_137.bmp,1,1,3
291,2,133,tube,1,1,1,1.2136,1,NA,S_Image_133.bmp-S_Lure_133.bmp,1,1,3
292,2,115,quake,1,1,1,1.538,1,NA,S_Image_115.bmp-S_Lure_115.bmp,1,0,3
293,2,4,galaxy,1,1,2,2.4177,0,NA,F_Image_4.bmp-F_Lure_4.bmp,1,1,1
294,2,58,cone,1,1,1,1.2469,1,NA,O_Image_58.bmp-O_Lure_58.bmp,1,1,2
295,2,78,bubble,1,2,2,2.0823,1,NA,O_Image_78.bmp-O_Lure_78.bmp,1,1,2
296,2,32,crumb,1,2,2,1.3963,1,NA,F_Image_32.bmp-F_Lure_32.bmp,1,0,1
297,2,83,corpse,1,1,1,1.1137,1,NA,O_Image_83.bmp-O_Lure_83.bmp,1,0,2
298,2,23,honeymoon,1,2,2,1.0907,1,NA,F_Image_23.bmp-F_Lure_23.bmp,1,0,1
299,2,39,shell,1,1,1,0.94056,1,NA,F_Image_39.bmp-F_Lure_39.bmp,1,1,1
300,2,24,tear,1,1,1,0.91579,1,NA,F_Image_24.bmp-F_Lure_24.bmp,1,0,1
301,2,44,steam,1,1,2,2.0767,0,NA,F_Image_44.bmp-F_Lure_44.bmp,1,0,1
302,2,70,lever,1,1,2,2.5666,0,NA,O_Image_70.bmp-O_Lure_70.bmp,1,0,2
303,2,112,triangle,1,1,1,1.2216,1,NA,S_Image_112.bmp-S_Lure_112.bmp,1,1,3
304,2,118,measles,1,2,2,1.9226,1,NA,S_Image_118.bmp-S_Lure_118.bmp,1,1,3
305,2,82,rust,1,1,1,1.2271,1,NA,O_Image_82.bmp-O_Lure_82.bmp,1,1,2
306,2,3,menu,1,2,2,1.1592,1,NA,F_Image_3.bmp-F_Lure_3.bmp,1,1,1
307,2,135,signal,1,1,1,2.9421,1,NA,S_Image_135.bmp-S_Lure_135.bmp,1,1,3
308,2,9,scar,1,1,1,3.3813,1,NA,F_Image_9.bmp-F_Lure_9.bmp,1,0,1
309,2,72,water,1,1,1,0.93944,1,NA,O_Image_72.bmp-O_Lure_72.bmp,1,1,2
310,2,134,arrow,1,2,2,2.0435,1,NA,S_Image_134.bmp-S_Lure_134.bmp,1,0,3
311,2,89,costume,1,1,1,1.159,1,NA,O_Image_89.bmp-O_Lure_89.bmp,1,1,2
312,2,16,stripe,1,2,1,0.62167,0,NA,F_Image_16.bmp-F_Lure_16.bmp,1,1,1
313,3,16,stripe,1,1,2,2.0299,0,NA,F_Image_16.bmp-F_Lure_16.bmp,1,1,1
314,3,58,cone,1,1,1,0.70596,1,NA,O_Image_58.bmp-O_Lure_58.bmp,1,1,2
315,3,118,measles,1,1,1,2.3237,1,NA,S_Image_118.bmp-S_Lure_118.bmp,1,1,3
316,3,82,rust,1,2,1,0.93162,0,NA,O_Image_82.bmp-O_Lure_82.bmp,1,1,2
317,3,9,scar,1,2,2,1.2836,1,NA,F_Image_9.bmp-F_Lure_9.bmp,1,0,1
318,3,135,signal,1,1,1,0.59785,1,NA,S_Image_135.bmp-S_Lure_135.bmp,1,1,3
319,3,39,shell,1,1,1,0.98733,1,NA,F_Image_39.bmp-F_Lure_39.bmp,1,1,1
320,3,115,quake,1,1,1,2.9931,1,NA,S_Image_115.bmp-S_Lure_115.bmp,1,0,3
321,3,70,lever,1,2,2,0.71076,1,NA,O_Image_70.bmp-O_Lure_70.bmp,1,0,2
322,3,44,steam,1,1,1,1.2794,1,NA,F_Image_44.bmp-F_Lure_44.bmp,1,0,1
323,3,134,arrow,1,2,2,2.4014,1,NA,S_Image_134.bmp-S_Lure_134.bmp,1,0,3
324,3,32,crumb,1,1,1,1.5034,1,NA,F_Image_32.bmp-F_Lure_32.bmp,1,0,1
325,3,130,corner,1,2,1,1.6084,0,NA,S_Image_130.bmp-S_Lure_130.bmp,1,1,3
326,3,24,tear,1,1,2,1.0859,0,NA,F_Image_24.bmp-F_Lure_24.bmp,1,0,1
327,3,112,triangle,1,2,2,1.9198,1,NA,S_Image_112.bmp-S_Lure_112.bmp,1,1,3
328,3,3,menu,1,1,1,1.1929,1,NA,F_Image_3.bmp-F_Lure_3.bmp,1,1,1
329,3,23,honeymoon,1,1,1,0.70259,1,NA,F_Image_23.bmp-F_Lure_23.bmp,1,0,1
330,3,78,bubble,1,2,2,0.74358,1,NA,O_Image_78.bmp-O_Lure_78.bmp,1,1,2
331,3,4,galaxy,1,1,2,2.5268,0,NA,F_Image_4.bmp-F_Lure_4.bmp,1,1,1
332,3,83,corpse,1,2,2,1.1511,1,NA,O_Image_83.bmp-O_Lure_83.bmp,1,0,2
333,3,137,sweat,1,2,2,2.3586,1,NA,S_Image_137.bmp-S_Lure_137.bmp,1,1,3
334,3,89,costume,1,2,2,0.8461,1,NA,O_Image_89.bmp-O_Lure_89.bmp,1,1,2
335,3,133,tube,1,2,2,1.1607,1,NA,S_Image_133.bmp-S_Lure_133.bmp,1,1,3
336,3,72,water,1,2,2,0.73584,1,NA,O_Image_72.bmp-O_Lure_72.bmp,1,1,2
337,2,35,drizzle,2,2,2,1.8878,1,NA,F_Image_35.bmp-F_Lure_35.bmp,1,0,1
338,2,14,attack,2,1,1,1.1942,1,NA,F_Image_14.bmp-F_Lure_14.bmp,1,0,1
339,2,15,wool,2,1,1,0.79152,1,NA,F_Image_15.bmp-F_Lure_15.bmp,1,0,1
340,2,102,alien,2,2,0,3.4997,0,NA,S_Image_102.bmp-S_Lure_102.bmp,1,0,3
341,2,17,army,2,1,1,1.1749,1,NA,F_Image_17.bmp-F_Lure_17.bmp,1,1,1
342,2,124,shadow,2,1,1,1.0531,1,NA,S_Image_124.bmp-S_Lure_124.bmp,1,1,3
343,2,22,seed,2,2,1,1.7769,0,NA,F_Image_22.bmp-F_Lure_22.bmp,1,0,1
344,2,104,wreck,2,2,2,1.3184,1,NA,S_Image_104.bmp-S_Lure_104.bmp,1,1,3
345,2,86,slope,2,2,1,0.9992,0,NA,O_Image_86.bmp-O_Lure_86.bmp,1,0,2
346,2,132,fuel,2,1,1,2.3889,1,NA,S_Image_132.bmp-S_Lure_132.bmp,1,1,3
347,2,120,spray,2,1,1,1.787,1,NA,S_Image_120.bmp-S_Lure_120.bmp,1,1,3
348,2,51,harem,2,2,2,1.1608,1,NA,O_Image_51.bmp-O_Lure_51.bmp,1,1,2
349,2,76,ghost,2,2,2,0.97564,1,NA,O_Image_76.bmp-O_Lure_76.bmp,1,1,2
350,2,84,antique,2,2,2,0.54959,1,NA,O_Image_84.bmp-O_Lure_84.bmp,1,0,2
351,2,126,flood,2,2,2,1.6377,1,NA,S_Image_126.bmp-S_Lure_126.bmp,1,0,3
352,2,21,wound,2,2,2,1.4417,1,NA,F_Image_21.bmp-F_Lure_21.bmp,1,1,1
353,2,121,alcohol,2,2,1,2.414,0,NA,S_Image_121.bmp-S_Lure_121.bmp,1,1,3
354,2,55,hostage,2,1,2,1.3861,0,NA,O_Image_55.bmp-O_Lure_55.bmp,1,0,2
355,2,60,tourist,2,1,1,1.8884,1,NA,O_Image_60.bmp-O_Lure_60.bmp,1,0,2
356,2,141,stem,2,2,2,1.0903,1,NA,S_Image_141.bmp-S_Lure_141.bmp,1,1,3
357,2,67,kiss,2,1,1,1.356,1,NA,O_Image_67.bmp-O_Lure_67.bmp,1,0,2
358,2,37,orchestra,2,1,1,1.8194,1,NA,F_Image_37.bmp-F_Lure_37.bmp,1,0,1
359,2,85,paper,2,2,2,0.85604,1,NA,O_Image_85.bmp-O_Lure_85.bmp,1,1,2
360,2,93,rock,2,2,2,1.2112,1,NA,O_Image_93.bmp-O_Lure_93.bmp,1,1,2
361,3,60,tourist,2,1,1,0.8034,1,NA,O_Image_60.bmp-O_Lure_60.bmp,1,0,2
362,3,15,wool,2,1,1,1.033,1,NA,F_Image_15.bmp-F_Lure_15.bmp,1,0,1
363,3,14,attack,2,2,2,1.2453,1,NA,F_Image_14.bmp-F_Lure_14.bmp,1,0,1
364,3,67,kiss,2,1,1,0.57663,1,NA,O_Image_67.bmp-O_Lure_67.bmp,1,0,2
365,3,132,fuel,2,2,1,2.207,0,NA,S_Image_132.bmp-S_Lure_132.bmp,1,1,3
366,3,86,slope,2,2,2,1.3798,1,NA,O_Image_86.bmp-O_Lure_86.bmp,1,0,2
367,3,21,wound,2,1,1,0.79417,1,NA,F_Image_21.bmp-F_Lure_21.bmp,1,1,1
368,3,141,stem,2,2,2,1.3112,1,NA,S_Image_141.bmp-S_Lure_141.bmp,1,1,3
369,3,37,orchestra,2,2,1,1.7764,0,NA,F_Image_37.bmp-F_Lure_37.bmp,1,0,1
370,3,126,flood,2,2,2,0.73427,1,NA,S_Image_126.bmp-S_Lure_126.bmp,1,0,3
371,3,84,antique,2,2,2,0.75039,1,NA,O_Image_84.bmp-O_Lure_84.bmp,1,0,2
372,3,124,shadow,2,1,1,0.59013,1,NA,S_Image_124.bmp-S_Lure_124.bmp,1,1,3
373,3,85,paper,2,1,1,0.51604,1,NA,O_Image_85.bmp-O_Lure_85.bmp,1,1,2
374,3,55,hostage,2,1,1,1.173,1,NA,O_Image_55.bmp-O_Lure_55.bmp,1,0,2
375,3,51,harem,2,2,2,1.3555,1,NA,O_Image_51.bmp-O_Lure_51.bmp,1,1,2
376,3,121,alcohol,2,2,2,0.8111,1,NA,S_Image_121.bmp-S_Lure_121.bmp,1,1,3
377,3,93,rock,2,1,1,0.75962,1,NA,O_Image_93.bmp-O_Lure_93.bmp,1,1,2
378,3,102,alien,2,2,1,2.6873,0,NA,S_Image_102.bmp-S_Lure_102.bmp,1,0,3
379,3,120,spray,2,2,2,3.2571,1,NA,S_Image_120.bmp-S_Lure_120.bmp,1,1,3
380,3,17,army,2,1,1,1.3725,1,NA,F_Image_17.bmp-F_Lure_17.bmp,1,1,1
381,3,22,seed,2,2,1,2.019,0,NA,F_Image_22.bmp-F_Lure_22.bmp,1,0,1
382,3,76,ghost,2,2,2,0.75144,1,NA,O_Image_76.bmp-O_Lure_76.bmp,1,1,2
383,3,104,wreck,2,2,2,1.311,1,NA,S_Image_104.bmp-S_Lure_104.bmp,1,1,3
384,3,35,drizzle,2,1,2,1.5844,0,NA,F_Image_35.bmp-F_Lure_35.bmp,1,0,1
385,2,19,vegetable,3,2,2,1.4219,1,NA,F_Image_19.bmp-F_Lure_19.bmp,1,1,1
386,2,73,witch,3,2,1,1.3226,0,NA,O_Image_73.bmp-O_Lure_73.bmp,1,0,2
387,2,18,animal,3,2,2,1.2837,1,NA,F_Image_18.bmp-F_Lure_18.bmp,1,0,1
388,2,56,fire,3,2,2,0.69419,1,NA,O_Image_56.bmp-O_Lure_56.bmp,1,1,2
389,2,52,angel,3,2,2,0.7275,1,NA,O_Image_52.bmp-O_Lure_52.bmp,1,0,2
390,2,33,poison,3,1,1,0.87141,1,NA,F_Image_33.bmp-F_Lure_33.bmp,1,1,1
391,2,12,giant,3,1,1,1.3864,1,NA,F_Image_12.bmp-F_Lure_12.bmp,1,1,1
392,2,103,marble,3,2,2,1.5358,1,NA,S_Image_103.bmp-S_Lure_103.bmp,1,0,3
393,2,64,sand,3,1,1,0.98425,1,NA,O_Image_64.bmp-O_Lure_64.bmp,1,1,2
394,2,106,spike,3,1,1,2.5664,1,NA,S_Image_106.bmp-S_Lure_106.bmp,1,0,3
395,2,99,arch,3,2,0,3.4998,0,NA,S_Image_99.bmp-S_Lure_99.bmp,1,0,3
396,2,90,cloud,3,2,2,1.6623,1,NA,O_Image_90.bmp-O_Lure_90.bmp,1,1,2
397,2,42,yellow,3,1,1,1.2653,1,NA,F_Image_42.bmp-F_Lure_42.bmp,1,0,1
398,2,139,sunshine,3,1,1,0.9481,1,NA,S_Image_139.bmp-S_Lure_139.bmp,1,0,3
399,2,138,magnet,3,2,2,2.2355,1,NA,S_Image_138.bmp-S_Lure_138.bmp,1,1,3
400,2,46,breakfast,3,1,1,1.0079,1,NA,F_Image_46.bmp-F_Lure_46.bmp,1,0,1
401,2,54,board,3,1,1,1.4931,1,NA,O_Image_54.bmp-O_Lure_54.bmp,1,0,2
402,2,91,asphalt,3,1,1,1.2782,1,NA,O_Image_91.bmp-O_Lure_91.bmp,1,1,2
403,2,87,hurricane,3,1,1,1.1364,1,NA,O_Image_87.bmp-O_Lure_87.bmp,1,0,2
404,2,100,black,3,2,2,0.91283,1,NA,S_Image_100.bmp-S_Lure_100.bmp,1,0,3
405,2,108,tail,3,2,2,1.4175,1,NA,S_Image_108.bmp-S_Lure_108.bmp,1,1,3
406,2,47,snow,3,1,1,0.81474,1,NA,F_Image_47.bmp-F_Lure_47.bmp,1,0,1
407,2,20,money,3,1,1,1.6668,1,NA,F_Image_20.bmp-F_Lure_20.bmp,1,0,1
408,2,131,laundry,3,1,1,1.5734,1,NA,S_Image_131.bmp-S_Lure_131.bmp,1,0,3
409,3,91,asphalt,3,2,2,0.99948,1,NA,O_Image_91.bmp-O_Lure_91.bmp,1,1,2
410,3,131,laundry,3,1,1,0.55695,1,NA,S_Image_131.bmp-S_Lure_131.bmp,1,0,3
411,3,52,angel,3,1,1,1.0206,1,NA,O_Image_52.bmp-O_Lure_52.bmp,1,0,2
412,3,18,animal,3,1,1,2.4498,1,NA,F_Image_18.bmp-F_Lure_18.bmp,1,0,1
413,3,103,marble,3,2,2,0.66082,1,NA,S_Image_103.bmp-S_Lure_103.bmp,1,0,3
414,3,106,spike,3,1,1,1.1676,1,NA,S_Image_106.bmp-S_Lure_106.bmp,1,0,3
415,3,87,hurricane,3,1,1,0.89429,1,NA,O_Image_87.bmp-O_Lure_87.bmp,1,0,2
416,3,42,yellow,3,1,1,0.80819,1,NA,F_Image_42.bmp-F_Lure_42.bmp,1,0,1
417,3,108,tail,3,2,2,0.68534,1,NA,S_Image_108.bmp-S_Lure_108.bmp,1,1,3
418,3,100,black,3,1,2,1.6551,0,NA,S_Image_100.bmp-S_Lure_100.bmp,1,0,3
419,3,20,money,3,2,2,1.2831,1,NA,F_Image_20.bmp-F_Lure_20.bmp,1,0,1
420,3,47,snow,3,1,1,1.1886,1,NA,F_Image_47.bmp-F_Lure_47.bmp,1,0,1
421,3,54,board,3,2,1,1.2989,0,NA,O_Image_54.bmp-O_Lure_54.bmp,1,0,2
422,3,64,sand,3,2,2,0.86034,1,NA,O_Image_64.bmp-O_Lure_64.bmp,1,1,2
423,3,139,sunshine,3,2,2,1.4792,1,NA,S_Image_139.bmp-S_Lure_139.bmp,1,0,3
424,3,33,poison,3,1,1,0.58515,1,NA,F_Image_33.bmp-F_Lure_33.bmp,1,1,1
425,3,12,giant,3,1,1,0.744,1,NA,F_Image_12.bmp-F_Lure_12.bmp,1,1,1
426,3,99,arch,3,1,1,1.5746,1,NA,S_Image_99.bmp-S_Lure_99.bmp,1,0,3
427,3,73,witch,3,2,2,2.0296,1,NA,O_Image_73.bmp-O_Lure_73.bmp,1,0,2
428,3,138,magnet,3,2,2,1.3935,1,NA,S_Image_138.bmp-S_Lure_138.bmp,1,1,3
429,3,90,cloud,3,1,1,0.8231,1,NA,O_Image_90.bmp-O_Lure_90.bmp,1,1,2
430,3,56,fire,3,2,2,0.85992,1,NA,O_Image_56.bmp-O_Lure_56.bmp,1,1,2
431,3,46,breakfast,3,1,2,2.0145,0,NA,F_Image_46.bmp-F_Lure_46.bmp,1,0,1
432,3,19,vegetable,3,2,2,1.0437,1,NA,F_Image_19.bmp-F_Lure_19.bmp,1,1,1
433,4,119,ghost,1,2,2,2.8134,1,NA,S_Image_119.bmp-S_Lure_119.bmp,2,1,3
434,4,30,paper,1,2,2,1.6179,1,NA,F_Image_30.bmp-F_Lure_30.bmp,2,1,1
435,4,98,giant,1,1,1,1.1349,1,NA,S_Image_98.bmp-S_Lure_98.bmp,2,1,3
436,4,1,corpse,1,1,1,0.89487,1,NA,F_Image_1.bmp-F_Lure_1.bmp,2,0,1
437,4,43,hostage,1,1,1,0.83235,1,NA,F_Image_43.bmp-F_Lure_43.bmp,2,0,1
438,4,31,black,1,1,1,0.94875,1,NA,F_Image_31.bmp-F_Lure_31.bmp,2,0,1
439,4,79,magnet,1,2,2,1.348,1,NA,O_Image_79.bmp-O_Lure_79.bmp,2,1,2
440,4,144,animal,1,1,1,1.6678,1,NA,S_Image_144.bmp-S_Lure_144.bmp,2,0,3
441,4,13,quake,1,2,2,1.0939,1,NA,F_Image_13.bmp-F_Lure_13.bmp,2,0,1
442,4,110,water,1,1,2,1.0313,0,NA,S_Image_110.bmp-S_Lure_110.bmp,2,1,3
443,4,94,wreck,1,1,1,1.2356,1,NA,O_Image_94.bmp-O_Lure_94.bmp,2,1,2
444,4,129,board,1,2,1,1.7597,0,NA,S_Image_129.bmp-S_Lure_129.bmp,2,0,3
445,4,77,orchestra,1,2,2,0.7747,1,NA,O_Image_77.bmp-O_Lure_77.bmp,2,0,2
446,4,66,shell,1,2,2,1.709,1,NA,O_Image_66.bmp-O_Lure_66.bmp,2,1,2
447,4,5,costume,1,1,1,1.2939,1,NA,F_Image_5.bmp-F_Lure_5.bmp,2,1,1
448,4,25,alcohol,1,2,2,1.6953,1,NA,F_Image_25.bmp-F_Lure_25.bmp,2,1,1
449,4,50,seed,1,2,2,0.79291,1,NA,O_Image_50.bmp-O_Lure_50.bmp,2,0,2
450,4,71,honeymoon,1,1,1,0.96632,1,NA,O_Image_71.bmp-O_Lure_71.bmp,2,0,2
451,4,97,asphalt,1,2,2,1.0532,1,NA,S_Image_97.bmp-S_Lure_97.bmp,2,1,3
452,4,11,marble,1,1,2,1.4002,0,NA,F_Image_11.bmp-F_Lure_11.bmp,2,0,1
453,4,128,antique,1,2,1,1.3979,0,NA,S_Image_128.bmp-S_Lure_128.bmp,2,0,3
454,4,88,alien,1,2,2,0.69127,1,NA,O_Image_88.bmp-O_Lure_88.bmp,2,0,2
455,4,65,yellow,1,1,1,1.0135,1,NA,O_Image_65.bmp-O_Lure_65.bmp,2,0,2
456,4,123,money,1,1,1,1.2505,1,NA,S_Image_123.bmp-S_Lure_123.bmp,2,0,3
457,4,26,spike,2,2,2,0.87766,1,NA,F_Image_26.bmp-F_Lure_26.bmp,2,0,1
458,4,125,poison,2,2,2,1.6477,1,NA,S_Image_125.bmp-S_Lure_125.bmp,2,1,3
459,4,95,sweat,2,2,2,1.1234,1,NA,O_Image_95.bmp-O_Lure_95.bmp,2,1,2
460,4,62,laundry,2,1,1,0.81203,1,NA,O_Image_62.bmp-O_Lure_62.bmp,2,0,2
461,4,111,hurricane,2,1,2,1.545,0,NA,S_Image_111.bmp-S_Lure_111.bmp,2,0,3
462,4,81,galaxy,2,1,1,1.0802,1,NA,O_Image_81.bmp-O_Lure_81.bmp,2,1,2
463,4,53,stripe,2,1,1,0.99424,1,NA,O_Image_53.bmp-O_Lure_53.bmp,2,1,2
464,4,45,kiss,2,1,1,0.99974,1,NA,F_Image_45.bmp-F_Lure_45.bmp,2,0,1
465,4,101,witch,2,1,1,1.1013,1,NA,S_Image_101.bmp-S_Lure_101.bmp,2,0,3
466,4,117,slope,2,2,2,1.0868,1,NA,S_Image_117.bmp-S_Lure_117.bmp,2,0,3
467,4,40,triangle,2,2,2,0.97683,1,NA,F_Image_40.bmp-F_Lure_40.bmp,2,1,1
468,4,140,steam,2,1,1,1.4713,1,NA,S_Image_140.bmp-S_Lure_140.bmp,2,0,3
469,4,28,angel,2,2,2,1.2977,1,NA,F_Image_28.bmp-F_Lure_28.bmp,2,0,1
470,4,92,tail,2,1,1,0.65106,1,NA,O_Image_92.bmp-O_Lure_92.bmp,2,1,2
471,4,57,signal,2,1,1,0.81439,1,NA,O_Image_57.bmp-O_Lure_57.bmp,2,1,2
472,4,143,army,2,1,1,0.98706,1,NA,S_Image_143.bmp-S_Lure_143.bmp,2,1,3
473,4,10,cloud,2,1,2,1.3693,0,NA,F_Image_10.bmp-F_Lure_10.bmp,2,1,1
474,4,136,breakfast,2,1,1,0.75993,1,NA,S_Image_136.bmp-S_Lure_136.bmp,2,0,3
475,4,96,spray,2,2,2,0.68671,1,NA,O_Image_96.bmp-O_Lure_96.bmp,2,1,2
476,4,127,crumb,2,2,0,3.4999,0,NA,S_Image_127.bmp-S_Lure_127.bmp,2,0,3
477,4,7,rock,2,1,1,1.1784,1,NA,F_Image_7.bmp-F_Lure_7.bmp,2,1,1
478,4,80,vegetable,2,2,2,1.3605,1,NA,O_Image_80.bmp-O_Lure_80.bmp,2,1,2
479,4,74,shadow,2,2,2,0.85511,1,NA,O_Image_74.bmp-O_Lure_74.bmp,2,1,2
480,4,29,cone,2,2,2,1.5308,1,NA,F_Image_29.bmp-F_Lure_29.bmp,2,1,1
481,4,142,tourist,3,2,2,1.219,1,NA,S_Image_142.bmp-S_Lure_142.bmp,2,0,3
482,4,68,menu,3,2,2,0.56765,1,NA,O_Image_68.bmp-O_Lure_68.bmp,2,1,2
483,4,116,lever,3,1,1,1.839,1,NA,S_Image_116.bmp-S_Lure_116.bmp,2,0,3
484,4,59,tube,3,2,1,1.1861,0,NA,O_Image_59.bmp-O_Lure_59.bmp,2,1,2
485,4,105,tear,3,1,2,1.1686,0,NA,S_Image_105.bmp-S_Lure_105.bmp,2,0,3
486,4,41,harem,3,1,1,2.1114,1,NA,F_Image_41.bmp-F_Lure_41.bmp,2,1,1
487,4,27,arrow,3,1,1,1.6644,1,NA,F_Image_27.bmp-F_Lure_27.bmp,2,0,1
488,4,34,arch,3,2,2,1.6507,1,NA,F_Image_34.bmp-F_Lure_34.bmp,2,0,1
489,4,6,bubble,3,1,1,1.0623,1,NA,F_Image_6.bmp-F_Lure_6.bmp,2,1,1
490,4,2,sunshine,3,1,1,0.77729,1,NA,F_Image_2.bmp-F_Lure_2.bmp,2,0,1
491,4,61,attack,3,2,2,0.83944,1,NA,O_Image_61.bmp-O_Lure_61.bmp,2,0,2
492,4,114,wound,3,2,2,1.0913,1,NA,S_Image_114.bmp-S_Lure_114.bmp,2,1,3
493,4,122,scar,3,1,1,1.1094,1,NA,S_Image_122.bmp-S_Lure_122.bmp,2,0,3
494,4,109,sand,3,1,1,1.166,1,NA,S_Image_109.bmp-S_Lure_109.bmp,2,1,3
495,4,8,stem,3,1,1,1.7968,1,NA,F_Image_8.bmp-F_Lure_8.bmp,2,1,1
496,4,69,fuel,3,1,1,0.68241,1,NA,O_Image_69.bmp-O_Lure_69.bmp,2,1,2
497,4,36,rust,3,2,1,0.98051,0,NA,F_Image_36.bmp-F_Lure_36.bmp,2,1,1
498,4,38,corner,3,2,2,1.9787,1,NA,F_Image_38.bmp-F_Lure_38.bmp,2,1,1
499,4,107,drizzle,3,2,2,0.94464,1,NA,S_Image_107.bmp-S_Lure_107.bmp,2,0,3
500,4,113,fire,3,1,2,2.6239,0,NA,S_Image_113.bmp-S_Lure_113.bmp,2,1,3
501,4,75,snow,3,2,2,0.81293,1,NA,O_Image_75.bmp-O_Lure_75.bmp,2,0,2
502,4,48,flood,3,1,1,1.2093,1,NA,F_Image_48.bmp-F_Lure_48.bmp,2,0,1
503,4,49,wool,3,2,1,0.91923,0,NA,O_Image_49.bmp-O_Lure_49.bmp,2,0,2
504,4,63,measles,3,1,1,1.3193,1,NA,O_Image_63.bmp-O_Lure_63.bmp,2,1,2
