Trial,Cond,ImageNum,Cue,Block,Correct,Response,RT,Accuracy,CueRep,fName,ImageType,Baseline,Category
1,5,124-69,flood,NA,3,0,2.5005,0,1,S_Image_124.bmp-O_Lure_69.bmp,NA,0,3.2
2,5,24-133,alien,NA,1,1,0.32394,1,1,F_Image_24.bmp-S_Lure_133.bmp,NA,0,1.3
3,5,136-61,sweat,NA,3,2,0.83304,0,1,S_Image_136.bmp-O_Lure_61.bmp,NA,0,3.2
4,5,136-61,sweat,NA,3,3,1.3686,1,2,S_Image_136.bmp-O_Lure_61.bmp,NA,0,3.2
5,5,63-144,sand,NA,2,2,0.40411,1,1,O_Image_63.bmp-S_Lure_144.bmp,NA,0,2.3
6,5,114-70,vegetable,NA,3,2,0.5156,0,1,S_Image_114.bmp-O_Lure_70.bmp,NA,0,3.2
7,5,52-19,marble,NA,2,1,0.64604,0,1,O_Image_52.bmp-F_Lure_19.bmp,NA,0,2.1
8,5,23-103,rock,NA,1,1,0.52749,1,1,F_Image_23.bmp-S_Lure_103.bmp,NA,0,1.3
9,5,127-72,army,NA,3,2,0.44406,0,1,S_Image_127.bmp-O_Lure_72.bmp,NA,0,3.2
10,5,141-13,alcohol,NA,3,3,1.587,1,1,S_Image_141.bmp-F_Lure_13.bmp,NA,0,3.1
11,5,80-128,drizzle,NA,2,2,0.46274,1,1,O_Image_80.bmp-S_Lure_128.bmp,NA,0,2.3
12,5,64-6,attack,NA,2,3,0.34465,0,1,O_Image_64.bmp-F_Lure_6.bmp,NA,0,2.1
13,5,11-115,money,NA,1,1,0.39074,1,1,F_Image_11.bmp-S_Lure_115.bmp,NA,0,1.3
14,5,102-54,sunshine,NA,3,3,0.35514,1,1,S_Image_102.bmp-O_Lure_54.bmp,NA,0,3.2
15,5,124-69,flood,NA,3,2,0.88961,0,2,S_Image_124.bmp-O_Lure_69.bmp,NA,0,3.2
16,5,95-22,magnet,NA,2,1,0.44438,0,1,O_Image_95.bmp-F_Lure_22.bmp,NA,0,2.1
17,5,81-100,tear,NA,2,3,0.82679,0,1,O_Image_81.bmp-S_Lure_100.bmp,NA,0,2.3
18,5,67-31,water,NA,2,2,1.2911,1,1,O_Image_67.bmp-F_Lure_31.bmp,NA,0,2.1
19,5,53-111,crumb,NA,2,1,0.79269,0,1,O_Image_53.bmp-S_Lure_111.bmp,NA,0,2.3
20,5,141-13,alcohol,NA,3,2,0.41575,0,2,S_Image_141.bmp-F_Lure_13.bmp,NA,0,3.1
21,5,124-69,flood,NA,3,1,0.41349,0,3,S_Image_124.bmp-O_Lure_69.bmp,NA,0,3.2
22,5,119-42,tube,NA,3,1,0.49663,0,1,S_Image_119.bmp-F_Lure_42.bmp,NA,0,3.1
23,5,79-125,tail,NA,2,2,0.37184,1,1,O_Image_79.bmp-S_Lure_125.bmp,NA,0,2.3
24,5,123-35,slope,NA,3,3,0.38291,1,1,S_Image_123.bmp-F_Lure_35.bmp,NA,0,3.1
25,5,62-106,measles,NA,2,2,0.38057,1,1,O_Image_62.bmp-S_Lure_106.bmp,NA,0,2.3
26,5,24-133,alien,NA,1,1,0.32194,1,2,F_Image_24.bmp-S_Lure_133.bmp,NA,0,1.3
27,5,121-18,scar,NA,3,2,0.36529,0,1,S_Image_121.bmp-F_Lure_18.bmp,NA,0,3.1
28,5,79-125,tail,NA,2,1,1.5635,0,2,O_Image_79.bmp-S_Lure_125.bmp,NA,0,2.3
29,5,123-35,slope,NA,3,2,0.41417,0,2,S_Image_123.bmp-F_Lure_35.bmp,NA,0,3.1
30,5,53-111,crumb,NA,2,1,0.33697,0,2,O_Image_53.bmp-S_Lure_111.bmp,NA,0,2.3
31,5,40-55,wreck,NA,1,1,1.5594,1,1,F_Image_40.bmp-O_Lure_55.bmp,NA,0,1.2
32,5,95-22,magnet,NA,2,3,0.33868,0,2,O_Image_95.bmp-F_Lure_22.bmp,NA,0,2.1
33,5,11-115,money,NA,1,1,0.33378,1,2,F_Image_11.bmp-S_Lure_115.bmp,NA,0,1.3
34,5,87-43,laundry,NA,2,2,1.0415,1,1,O_Image_87.bmp-F_Lure_43.bmp,NA,0,2.1
35,5,21-71,menu,NA,1,3,0.31544,0,1,F_Image_21.bmp-O_Lure_71.bmp,NA,0,1.2
36,5,52-19,marble,NA,2,2,0.88289,1,2,O_Image_52.bmp-F_Lure_19.bmp,NA,0,2.1
37,5,67-31,water,NA,2,2,0.32737,1,2,O_Image_67.bmp-F_Lure_31.bmp,NA,0,2.1
38,5,136-61,sweat,NA,3,3,0.71147,1,3,S_Image_136.bmp-O_Lure_61.bmp,NA,0,3.2
39,5,60-138,arrow,NA,2,2,0.38597,1,1,O_Image_60.bmp-S_Lure_138.bmp,NA,0,2.3
40,5,63-144,sand,NA,2,1,0.82477,0,2,O_Image_63.bmp-S_Lure_144.bmp,NA,0,2.3
41,5,99-89,corner,NA,3,3,0.7878,1,1,S_Image_99.bmp-O_Lure_89.bmp,NA,0,3.2
42,5,33-56,ghost,NA,1,2,0.34537,0,1,F_Image_33.bmp-O_Lure_56.bmp,NA,0,1.2
43,5,121-18,scar,NA,3,2,0.32805,0,2,S_Image_121.bmp-F_Lure_18.bmp,NA,0,3.1
44,5,33-56,ghost,NA,1,1,0.40266,1,2,F_Image_33.bmp-O_Lure_56.bmp,NA,0,1.2
45,5,60-138,arrow,NA,2,2,0.38031,1,2,O_Image_60.bmp-S_Lure_138.bmp,NA,0,2.3
46,5,23-103,rock,NA,1,1,0.2842,1,2,F_Image_23.bmp-S_Lure_103.bmp,NA,0,1.3
47,5,23-103,rock,NA,1,2,1.0516,0,3,F_Image_23.bmp-S_Lure_103.bmp,NA,0,1.3
48,5,110-38,poison,NA,3,3,0.34602,1,1,S_Image_110.bmp-F_Lure_38.bmp,NA,0,3.1
49,5,124-69,flood,NA,3,1,0.69785,0,4,S_Image_124.bmp-O_Lure_69.bmp,NA,0,3.2
50,5,80-128,drizzle,NA,2,2,0.28414,1,2,O_Image_80.bmp-S_Lure_128.bmp,NA,0,2.3
51,5,25-113,quake,NA,1,1,1.4999,1,1,F_Image_25.bmp-S_Lure_113.bmp,NA,0,1.3
52,5,23-103,rock,NA,1,1,0.33101,1,4,F_Image_23.bmp-S_Lure_103.bmp,NA,0,1.3
53,5,48-77,stripe,NA,1,2,0.40048,0,1,F_Image_48.bmp-O_Lure_77.bmp,NA,0,1.2
54,5,141-13,alcohol,NA,3,3,0.40106,1,3,S_Image_141.bmp-F_Lure_13.bmp,NA,0,3.1
55,5,11-115,money,NA,1,1,0.37898,1,3,F_Image_11.bmp-S_Lure_115.bmp,NA,0,1.3
56,5,95-22,magnet,NA,2,3,0.33305,0,3,O_Image_95.bmp-F_Lure_22.bmp,NA,0,2.1
57,5,80-128,drizzle,NA,2,3,0.32887,0,3,O_Image_80.bmp-S_Lure_128.bmp,NA,0,2.3
58,5,118-84,wound,NA,3,1,0.41116,0,1,S_Image_118.bmp-O_Lure_84.bmp,NA,0,3.2
59,5,7-82,stem,NA,1,1,0.37508,1,1,F_Image_7.bmp-O_Lure_82.bmp,NA,0,1.2
60,5,102-54,sunshine,NA,3,3,0.4346,1,2,S_Image_102.bmp-O_Lure_54.bmp,NA,0,3.2
61,5,81-100,tear,NA,2,2,0.30695,1,2,O_Image_81.bmp-S_Lure_100.bmp,NA,0,2.3
62,5,78-20,seed,NA,2,1,0.29482,0,1,O_Image_78.bmp-F_Lure_20.bmp,NA,0,2.1
63,5,137-76,signal,NA,3,2,1.2487,0,1,S_Image_137.bmp-O_Lure_76.bmp,NA,0,3.2
64,5,80-128,drizzle,NA,2,2,0.29306,1,4,O_Image_80.bmp-S_Lure_128.bmp,NA,0,2.3
65,5,67-31,water,NA,2,2,0.30756,1,3,O_Image_67.bmp-F_Lure_31.bmp,NA,0,2.1
66,5,121-18,scar,NA,3,1,0.43317,0,3,S_Image_121.bmp-F_Lure_18.bmp,NA,0,3.1
67,5,52-19,marble,NA,2,3,0.30934,0,3,O_Image_52.bmp-F_Lure_19.bmp,NA,0,2.1
68,5,87-43,laundry,NA,2,3,0.683,0,2,O_Image_87.bmp-F_Lure_43.bmp,NA,0,2.1
69,5,52-19,marble,NA,2,2,0.31888,1,4,O_Image_52.bmp-F_Lure_19.bmp,NA,0,2.1
70,5,62-106,measles,NA,2,2,0.33144,1,2,O_Image_62.bmp-S_Lure_106.bmp,NA,0,2.3
71,5,60-138,arrow,NA,2,2,0.28475,1,3,O_Image_60.bmp-S_Lure_138.bmp,NA,0,2.3
72,5,21-71,menu,NA,1,3,0.35221,0,2,F_Image_21.bmp-O_Lure_71.bmp,NA,0,1.2
73,5,62-106,measles,NA,2,2,0.32972,1,3,O_Image_62.bmp-S_Lure_106.bmp,NA,0,2.3
74,5,21-71,menu,NA,1,3,0.34113,0,3,F_Image_21.bmp-O_Lure_71.bmp,NA,0,1.2
75,5,98-44,angel,NA,3,3,0.35836,1,1,S_Image_98.bmp-F_Lure_44.bmp,NA,0,3.1
76,5,119-42,tube,NA,3,2,0.29229,0,2,S_Image_119.bmp-F_Lure_42.bmp,NA,0,3.1
77,5,102-54,sunshine,NA,3,3,0.37688,1,3,S_Image_102.bmp-O_Lure_54.bmp,NA,0,3.2
78,5,141-13,alcohol,NA,3,3,0.36099,1,4,S_Image_141.bmp-F_Lure_13.bmp,NA,0,3.1
79,5,87-43,laundry,NA,2,2,0.57518,1,3,O_Image_87.bmp-F_Lure_43.bmp,NA,0,2.1
80,5,99-89,corner,NA,3,2,0.37897,0,2,S_Image_99.bmp-O_Lure_89.bmp,NA,0,3.2
81,5,123-35,slope,NA,3,3,0.51713,1,3,S_Image_123.bmp-F_Lure_35.bmp,NA,0,3.1
82,5,110-38,poison,NA,3,3,0.70477,1,2,S_Image_110.bmp-F_Lure_38.bmp,NA,0,3.1
83,5,81-100,tear,NA,2,2,0.33053,1,3,O_Image_81.bmp-S_Lure_100.bmp,NA,0,2.3
84,5,114-70,vegetable,NA,3,3,0.33643,1,2,S_Image_114.bmp-O_Lure_70.bmp,NA,0,3.2
85,5,25-113,quake,NA,1,1,0.29411,1,2,F_Image_25.bmp-S_Lure_113.bmp,NA,0,1.3
86,5,81-100,tear,NA,2,3,0.37735,0,4,O_Image_81.bmp-S_Lure_100.bmp,NA,0,2.3
87,5,11-115,money,NA,1,1,0.34209,1,4,F_Image_11.bmp-S_Lure_115.bmp,NA,0,1.3
88,5,64-6,attack,NA,2,3,0.32658,0,2,O_Image_64.bmp-F_Lure_6.bmp,NA,0,2.1
89,5,114-70,vegetable,NA,3,3,0.58029,1,3,S_Image_114.bmp-O_Lure_70.bmp,NA,0,3.2
90,5,95-22,magnet,NA,2,3,0.34503,0,4,O_Image_95.bmp-F_Lure_22.bmp,NA,0,2.1
91,5,64-6,attack,NA,2,2,0.30629,1,3,O_Image_64.bmp-F_Lure_6.bmp,NA,0,2.1
92,5,98-44,angel,NA,3,3,0.38012,1,2,S_Image_98.bmp-F_Lure_44.bmp,NA,0,3.1
93,5,137-76,signal,NA,3,2,0.25436,0,2,S_Image_137.bmp-O_Lure_76.bmp,NA,0,3.2
94,5,67-31,water,NA,2,2,0.32148,1,4,O_Image_67.bmp-F_Lure_31.bmp,NA,0,2.1
95,5,64-6,attack,NA,2,3,0.90948,0,4,O_Image_64.bmp-F_Lure_6.bmp,NA,0,2.1
96,5,24-133,alien,NA,1,2,0.96058,0,3,F_Image_24.bmp-S_Lure_133.bmp,NA,0,1.3
97,5,78-20,seed,NA,2,1,0.27715,0,2,O_Image_78.bmp-F_Lure_20.bmp,NA,0,2.1
98,5,7-82,stem,NA,1,3,1.1606,0,2,F_Image_7.bmp-O_Lure_82.bmp,NA,0,1.2
99,5,79-125,tail,NA,2,2,0.31509,1,3,O_Image_79.bmp-S_Lure_125.bmp,NA,0,2.3
100,5,25-113,quake,NA,1,1,0.32234,1,3,F_Image_25.bmp-S_Lure_113.bmp,NA,0,1.3
101,5,127-72,army,NA,3,2,0.34668,0,2,S_Image_127.bmp-O_Lure_72.bmp,NA,0,3.2
102,5,33-56,ghost,NA,1,3,0.43897,0,3,F_Image_33.bmp-O_Lure_56.bmp,NA,0,1.2
103,5,48-77,stripe,NA,1,2,0.30834,0,2,F_Image_48.bmp-O_Lure_77.bmp,NA,0,1.2
104,5,78-20,seed,NA,2,1,0.3426,0,3,O_Image_78.bmp-F_Lure_20.bmp,NA,0,2.1
105,5,63-144,sand,NA,2,3,0.42654,0,3,O_Image_63.bmp-S_Lure_144.bmp,NA,0,2.3
106,5,123-35,slope,NA,3,2,0.3707,0,4,S_Image_123.bmp-F_Lure_35.bmp,NA,0,3.1
107,5,127-72,army,NA,3,3,1.1486,1,3,S_Image_127.bmp-O_Lure_72.bmp,NA,0,3.2
108,5,21-71,menu,NA,1,3,0.32236,0,4,F_Image_21.bmp-O_Lure_71.bmp,NA,0,1.2
109,5,63-144,sand,NA,2,2,0.2669,1,4,O_Image_63.bmp-S_Lure_144.bmp,NA,0,2.3
110,5,114-70,vegetable,NA,3,3,0.32108,1,4,S_Image_114.bmp-O_Lure_70.bmp,NA,0,3.2
111,5,7-82,stem,NA,1,1,0.50832,1,3,F_Image_7.bmp-O_Lure_82.bmp,NA,0,1.2
112,5,137-76,signal,NA,3,3,1.5006,1,3,S_Image_137.bmp-O_Lure_76.bmp,NA,0,3.2
113,5,79-125,tail,NA,2,3,0.33372,0,4,O_Image_79.bmp-S_Lure_125.bmp,NA,0,2.3
114,5,53-111,crumb,NA,2,3,0.47582,0,3,O_Image_53.bmp-S_Lure_111.bmp,NA,0,2.3
115,5,53-111,crumb,NA,2,1,0.42212,0,4,O_Image_53.bmp-S_Lure_111.bmp,NA,0,2.3
116,5,48-77,stripe,NA,1,1,0.36616,1,3,F_Image_48.bmp-O_Lure_77.bmp,NA,0,1.2
117,5,118-84,wound,NA,3,2,0.72025,0,2,S_Image_118.bmp-O_Lure_84.bmp,NA,0,3.2
118,5,33-56,ghost,NA,1,2,0.8463,0,4,F_Image_33.bmp-O_Lure_56.bmp,NA,0,1.2
119,5,121-18,scar,NA,3,3,0.3786,1,4,S_Image_121.bmp-F_Lure_18.bmp,NA,0,3.1
120,5,110-38,poison,NA,3,2,0.46642,0,3,S_Image_110.bmp-F_Lure_38.bmp,NA,0,3.1
121,5,25-113,quake,NA,1,2,0.35061,0,4,F_Image_25.bmp-S_Lure_113.bmp,NA,0,1.3
122,5,98-44,angel,NA,3,3,0.33475,1,3,S_Image_98.bmp-F_Lure_44.bmp,NA,0,3.1
123,5,119-42,tube,NA,3,2,0.40274,0,3,S_Image_119.bmp-F_Lure_42.bmp,NA,0,3.1
124,5,62-106,measles,NA,2,2,0.35418,1,4,O_Image_62.bmp-S_Lure_106.bmp,NA,0,2.3
125,5,78-20,seed,NA,2,1,1.3834,0,4,O_Image_78.bmp-F_Lure_20.bmp,NA,0,2.1
126,5,118-84,wound,NA,3,3,0.81793,1,3,S_Image_118.bmp-O_Lure_84.bmp,NA,0,3.2
127,5,137-76,signal,NA,3,2,0.5958,0,4,S_Image_137.bmp-O_Lure_76.bmp,NA,0,3.2
128,5,98-44,angel,NA,3,3,0.36384,1,4,S_Image_98.bmp-F_Lure_44.bmp,NA,0,3.1
129,5,7-82,stem,NA,1,2,0.31072,0,4,F_Image_7.bmp-O_Lure_82.bmp,NA,0,1.2
130,5,87-43,laundry,NA,2,2,0.47396,1,4,O_Image_87.bmp-F_Lure_43.bmp,NA,0,2.1
131,5,127-72,army,NA,3,3,0.32838,1,4,S_Image_127.bmp-O_Lure_72.bmp,NA,0,3.2
132,5,99-89,corner,NA,3,2,0.2228,0,3,S_Image_99.bmp-O_Lure_89.bmp,NA,0,3.2
133,5,119-42,tube,NA,3,1,0.29679,0,4,S_Image_119.bmp-F_Lure_42.bmp,NA,0,3.1
134,5,40-55,wreck,NA,1,3,0.38146,0,2,F_Image_40.bmp-O_Lure_55.bmp,NA,0,1.2
135,5,118-84,wound,NA,3,3,0.28865,1,4,S_Image_118.bmp-O_Lure_84.bmp,NA,0,3.2
136,5,110-38,poison,NA,3,2,0.15613,0,4,S_Image_110.bmp-F_Lure_38.bmp,NA,0,3.1
137,5,48-77,stripe,NA,1,3,0.34509,0,4,F_Image_48.bmp-O_Lure_77.bmp,NA,0,1.2
138,5,136-61,sweat,NA,3,3,0.91407,1,4,S_Image_136.bmp-O_Lure_61.bmp,NA,0,3.2
139,5,99-89,corner,NA,3,2,0.98203,0,4,S_Image_99.bmp-O_Lure_89.bmp,NA,0,3.2
140,5,40-55,wreck,NA,1,1,0.55601,1,3,F_Image_40.bmp-O_Lure_55.bmp,NA,0,1.2
141,5,40-55,wreck,NA,1,2,0.77944,0,4,F_Image_40.bmp-O_Lure_55.bmp,NA,0,1.2
142,5,102-54,sunshine,NA,3,3,0.45468,1,4,S_Image_102.bmp-O_Lure_54.bmp,NA,0,3.2
143,5,24-133,alien,NA,1,1,0.50226,1,4,F_Image_24.bmp-S_Lure_133.bmp,NA,0,1.3
144,5,60-138,arrow,NA,2,2,0.33969,1,4,O_Image_60.bmp-S_Lure_138.bmp,NA,0,2.3
145,6,131,lever,NA,1,1,2.485,1,NA,S_Image_131.bmp-S_Lure_131.bmp,2,1,3
146,6,126,steam,NA,1,1,1.1522,1,NA,S_Image_126.bmp-S_Lure_126.bmp,2,1,3
147,6,52,marble,NA,2,2,1.0739,1,NA,O_Image_52.bmp-O_Lure_52.bmp,1,0,2
148,6,86,arch,NA,2,2,1.225,1,NA,O_Image_86.bmp-O_Lure_86.bmp,1,1,2
149,6,37,galaxy,NA,1,1,0.91473,1,NA,F_Image_37.bmp-F_Lure_37.bmp,1,1,1
150,6,123,slope,NA,1,2,1.4718,0,NA,S_Image_123.bmp-S_Lure_123.bmp,1,0,3
151,6,134,board,NA,2,2,1.2902,1,NA,S_Image_134.bmp-S_Lure_134.bmp,1,1,3
152,6,89,corner,NA,2,2,1.0854,1,NA,O_Image_89.bmp-O_Lure_89.bmp,2,0,2
153,6,132,giant,NA,1,1,1.263,1,NA,S_Image_132.bmp-S_Lure_132.bmp,2,1,3
154,6,65,antique,NA,1,1,0.76277,1,NA,O_Image_65.bmp-O_Lure_65.bmp,2,1,2
155,6,133,alien,NA,1,1,0.79951,1,NA,S_Image_133.bmp-S_Lure_133.bmp,2,0,3
156,6,143,witch,NA,2,2,0.83266,1,NA,S_Image_143.bmp-S_Lure_143.bmp,2,1,3
157,6,72,army,NA,2,2,0.75054,1,NA,O_Image_72.bmp-O_Lure_72.bmp,2,0,2
158,6,32,wool,NA,1,2,1.1137,0,NA,F_Image_32.bmp-F_Lure_32.bmp,1,1,1
159,6,71,menu,NA,2,2,0.61013,1,NA,O_Image_71.bmp-O_Lure_71.bmp,2,0,2
160,6,100,tear,NA,1,1,1.1279,1,NA,S_Image_100.bmp-S_Lure_100.bmp,2,0,3
161,6,99,corner,NA,2,2,0.97707,1,NA,S_Image_99.bmp-S_Lure_99.bmp,1,0,3
162,6,83,triangle,NA,1,1,0.9079,1,NA,O_Image_83.bmp-O_Lure_83.bmp,1,1,2
163,6,139,asphalt,NA,1,1,0.93476,1,NA,S_Image_139.bmp-S_Lure_139.bmp,1,1,3
164,6,128,drizzle,NA,2,2,1.109,1,NA,S_Image_128.bmp-S_Lure_128.bmp,2,0,3
165,6,68,fire,NA,1,1,0.70595,1,NA,O_Image_68.bmp-O_Lure_68.bmp,2,1,2
166,6,34,triangle,NA,2,1,1.5042,0,NA,F_Image_34.bmp-F_Lure_34.bmp,2,1,1
167,6,41,animal,NA,2,1,1.2564,0,NA,F_Image_41.bmp-F_Lure_41.bmp,2,1,1
168,6,78,seed,NA,2,2,0.79334,1,NA,O_Image_78.bmp-O_Lure_78.bmp,1,0,2
169,6,1,asphalt,NA,1,1,1.1708,1,NA,F_Image_1.bmp-F_Lure_1.bmp,2,1,1
170,6,50,hurricane,NA,1,1,0.76033,1,NA,O_Image_50.bmp-O_Lure_50.bmp,1,1,2
171,6,79,tail,NA,1,1,0.95734,1,NA,O_Image_79.bmp-O_Lure_79.bmp,1,0,2
172,6,2,shell,NA,1,1,0.90458,1,NA,F_Image_2.bmp-F_Lure_2.bmp,2,1,1
173,6,54,sunshine,NA,2,2,0.75447,1,NA,O_Image_54.bmp-O_Lure_54.bmp,2,0,2
174,6,22,magnet,NA,1,1,0.85144,1,NA,F_Image_22.bmp-F_Lure_22.bmp,2,0,1
175,6,30,paper,NA,1,1,0.90158,1,NA,F_Image_30.bmp-F_Lure_30.bmp,1,1,1
176,6,102,sunshine,NA,1,1,0.85221,1,NA,S_Image_102.bmp-S_Lure_102.bmp,1,0,3
177,6,44,angel,NA,2,2,1.3721,1,NA,F_Image_44.bmp-F_Lure_44.bmp,2,0,1
178,6,3,costume,NA,1,1,0.98919,1,NA,F_Image_3.bmp-F_Lure_3.bmp,2,1,1
179,6,14,steam,NA,1,1,0.97611,1,NA,F_Image_14.bmp-F_Lure_14.bmp,1,1,1
180,6,39,corpse,NA,2,1,1.0732,0,NA,F_Image_39.bmp-F_Lure_39.bmp,1,1,1
181,6,61,sweat,NA,1,1,0.6932,1,NA,O_Image_61.bmp-O_Lure_61.bmp,2,0,2
182,6,95,magnet,NA,1,1,1.0073,1,NA,O_Image_95.bmp-O_Lure_95.bmp,1,0,2
183,6,24,alien,NA,1,1,0.84741,1,NA,F_Image_24.bmp-F_Lure_24.bmp,1,0,1
184,6,140,cloud,NA,1,1,1.2675,1,NA,S_Image_140.bmp-S_Lure_140.bmp,2,1,3
185,6,31,water,NA,1,1,1.0514,1,NA,F_Image_31.bmp-F_Lure_31.bmp,2,0,1
186,6,120,bubble,NA,1,1,1.1512,1,NA,S_Image_120.bmp-S_Lure_120.bmp,1,1,3
187,6,6,attack,NA,2,2,1.146,1,NA,F_Image_6.bmp-F_Lure_6.bmp,2,0,1
188,6,81,tear,NA,1,1,1.0918,1,NA,O_Image_81.bmp-O_Lure_81.bmp,1,0,2
189,6,93,corpse,NA,1,1,0.95204,1,NA,O_Image_93.bmp-O_Lure_93.bmp,2,1,2
190,6,4,orchestra,NA,1,1,0.86355,1,NA,F_Image_4.bmp-F_Lure_4.bmp,1,1,1
191,6,62,measles,NA,1,1,0.68951,1,NA,O_Image_62.bmp-O_Lure_62.bmp,1,0,2
192,6,18,scar,NA,1,1,0.8197,1,NA,F_Image_18.bmp-F_Lure_18.bmp,2,0,1
193,6,12,kiss,NA,2,1,1.0732,0,NA,F_Image_12.bmp-F_Lure_12.bmp,1,1,1
194,6,107,spray,NA,2,1,0.89425,0,NA,S_Image_107.bmp-S_Lure_107.bmp,2,1,3
195,6,73,hostage,NA,2,1,1.0872,0,NA,O_Image_73.bmp-O_Lure_73.bmp,2,1,2
196,6,109,shadow,NA,1,1,1.1247,1,NA,S_Image_109.bmp-S_Lure_109.bmp,2,1,3
197,6,48,stripe,NA,2,2,0.88747,1,NA,F_Image_48.bmp-F_Lure_48.bmp,1,0,1
198,6,84,wound,NA,1,1,0.82486,1,NA,O_Image_84.bmp-O_Lure_84.bmp,2,0,2
199,6,13,alcohol,NA,2,2,0.90467,1,NA,F_Image_13.bmp-F_Lure_13.bmp,2,0,1
200,6,130,costume,NA,2,1,1.2234,0,NA,S_Image_130.bmp-S_Lure_130.bmp,1,1,3
201,6,112,kiss,NA,2,2,1.2024,1,NA,S_Image_112.bmp-S_Lure_112.bmp,2,1,3
202,6,74,animal,NA,2,2,0.89214,1,NA,O_Image_74.bmp-O_Lure_74.bmp,1,1,2
203,6,69,flood,NA,2,2,0.83331,1,NA,O_Image_69.bmp-O_Lure_69.bmp,2,0,2
204,6,42,tube,NA,2,2,1.2865,1,NA,F_Image_42.bmp-F_Lure_42.bmp,2,0,1
205,6,129,hurricane,NA,2,2,1.3104,1,NA,S_Image_129.bmp-S_Lure_129.bmp,2,1,3
206,6,85,fuel,NA,2,2,0.76377,1,NA,O_Image_85.bmp-O_Lure_85.bmp,1,1,2
207,6,59,shadow,NA,1,1,1.0504,1,NA,O_Image_59.bmp-O_Lure_59.bmp,1,1,2
208,6,137,signal,NA,2,2,1.0704,1,NA,S_Image_137.bmp-S_Lure_137.bmp,1,0,3
209,6,60,arrow,NA,1,1,0.80773,1,NA,O_Image_60.bmp-O_Lure_60.bmp,1,0,2
210,6,70,vegetable,NA,1,1,0.85477,1,NA,O_Image_70.bmp-O_Lure_70.bmp,2,0,2
211,6,111,crumb,NA,1,1,1.198,1,NA,S_Image_111.bmp-S_Lure_111.bmp,2,0,3
212,6,56,ghost,NA,2,2,1.5881,1,NA,O_Image_56.bmp-O_Lure_56.bmp,2,0,2
213,6,116,shell,NA,1,1,1.2252,1,NA,S_Image_116.bmp-S_Lure_116.bmp,1,1,3
214,6,26,fire,NA,2,2,1.4261,1,NA,F_Image_26.bmp-F_Lure_26.bmp,1,1,1
215,6,94,rust,NA,2,2,0.86226,1,NA,O_Image_94.bmp-O_Lure_94.bmp,2,1,2
216,6,101,arch,NA,2,2,1.2899,1,NA,S_Image_101.bmp-S_Lure_101.bmp,2,1,3
217,6,141,alcohol,NA,2,1,1.3363,0,NA,S_Image_141.bmp-S_Lure_141.bmp,1,0,3
218,6,21,menu,NA,1,1,1.0038,1,NA,F_Image_21.bmp-F_Lure_21.bmp,1,0,1
219,6,49,galaxy,NA,2,2,0.82751,1,NA,O_Image_49.bmp-O_Lure_49.bmp,2,1,2
220,6,82,stem,NA,1,1,0.90745,1,NA,O_Image_82.bmp-O_Lure_82.bmp,2,0,2
221,6,7,stem,NA,2,2,1.0013,1,NA,F_Image_7.bmp-F_Lure_7.bmp,1,0,1
222,6,29,spike,NA,2,2,1.1515,1,NA,F_Image_29.bmp-F_Lure_29.bmp,2,1,1
223,6,66,tourist,NA,2,2,0.96156,1,NA,O_Image_66.bmp-O_Lure_66.bmp,2,1,2
224,6,27,lever,NA,2,1,1.1384,0,NA,F_Image_27.bmp-F_Lure_27.bmp,1,1,1
225,6,106,measles,NA,1,1,0.97248,1,NA,S_Image_106.bmp-S_Lure_106.bmp,2,0,3
226,6,104,yellow,NA,2,2,1.009,1,NA,S_Image_104.bmp-S_Lure_104.bmp,1,1,3
227,6,53,crumb,NA,2,2,1.0263,1,NA,O_Image_53.bmp-O_Lure_53.bmp,1,0,2
228,6,23,rock,NA,2,2,1.118,1,NA,F_Image_23.bmp-F_Lure_23.bmp,1,0,1
229,6,87,laundry,NA,1,1,0.88023,1,NA,O_Image_87.bmp-O_Lure_87.bmp,1,0,2
230,6,75,honeymoon,NA,2,2,0.86716,1,NA,O_Image_75.bmp-O_Lure_75.bmp,2,1,2
231,6,45,board,NA,1,1,1.0714,1,NA,F_Image_45.bmp-F_Lure_45.bmp,2,1,1
232,6,5,yellow,NA,1,1,0.91718,1,NA,F_Image_5.bmp-F_Lure_5.bmp,2,1,1
233,6,67,water,NA,2,2,1.0812,1,NA,O_Image_67.bmp-O_Lure_67.bmp,1,0,2
234,6,117,snow,NA,1,1,1.0477,1,NA,S_Image_117.bmp-S_Lure_117.bmp,1,1,3
235,6,122,black,NA,1,1,1.0683,1,NA,S_Image_122.bmp-S_Lure_122.bmp,1,1,3
236,6,40,wreck,NA,2,2,1.2718,1,NA,F_Image_40.bmp-F_Lure_40.bmp,1,0,1
237,6,138,arrow,NA,1,1,0.89886,1,NA,S_Image_138.bmp-S_Lure_138.bmp,2,0,3
238,6,114,vegetable,NA,1,1,0.83825,1,NA,S_Image_114.bmp-S_Lure_114.bmp,1,0,3
239,6,136,sweat,NA,2,2,0.96144,1,NA,S_Image_136.bmp-S_Lure_136.bmp,1,0,3
240,6,108,paper,NA,1,1,0.89877,1,NA,S_Image_108.bmp-S_Lure_108.bmp,2,1,3
241,6,15,hostage,NA,1,1,1.0588,1,NA,F_Image_15.bmp-F_Lure_15.bmp,1,1,1
242,6,121,scar,NA,1,1,0.83225,1,NA,S_Image_121.bmp-S_Lure_121.bmp,1,0,3
243,6,98,angel,NA,2,2,1.3809,1,NA,S_Image_98.bmp-S_Lure_98.bmp,1,0,3
244,6,124,flood,NA,1,1,0.8462,1,NA,S_Image_124.bmp-S_Lure_124.bmp,1,0,3
245,6,9,witch,NA,2,1,1.1666,0,NA,F_Image_9.bmp-F_Lure_9.bmp,1,1,1
246,6,11,money,NA,2,2,1.0261,1,NA,F_Image_11.bmp-F_Lure_11.bmp,1,0,1
247,6,118,wound,NA,2,2,1.6103,1,NA,S_Image_118.bmp-S_Lure_118.bmp,1,0,3
248,6,55,wreck,NA,2,2,0.88444,1,NA,O_Image_55.bmp-O_Lure_55.bmp,2,0,2
249,6,115,money,NA,1,1,1.1043,1,NA,S_Image_115.bmp-S_Lure_115.bmp,2,0,3
250,6,33,ghost,NA,1,1,1.0347,1,NA,F_Image_33.bmp-F_Lure_33.bmp,1,0,1
251,6,47,fuel,NA,1,1,0.98644,1,NA,F_Image_47.bmp-F_Lure_47.bmp,2,1,1
252,6,88,bubble,NA,2,2,0.97863,1,NA,O_Image_88.bmp-O_Lure_88.bmp,2,1,2
253,6,90,spike,NA,1,2,1.259,0,NA,O_Image_90.bmp-O_Lure_90.bmp,1,1,2
254,6,125,tail,NA,2,2,1.3392,1,NA,S_Image_125.bmp-S_Lure_125.bmp,2,0,3
255,6,36,snow,NA,1,1,1.8493,1,NA,F_Image_36.bmp-F_Lure_36.bmp,2,1,1
256,6,38,poison,NA,1,1,1.1099,1,NA,F_Image_38.bmp-F_Lure_38.bmp,2,0,1
257,6,17,black,NA,2,1,1.4837,0,NA,F_Image_17.bmp-F_Lure_17.bmp,2,1,1
258,6,8,cloud,NA,2,2,0.85034,1,NA,F_Image_8.bmp-F_Lure_8.bmp,1,1,1
259,6,46,rust,NA,2,2,1.1439,1,NA,F_Image_46.bmp-F_Lure_46.bmp,1,1,1
260,6,77,stripe,NA,2,2,1.2975,1,NA,O_Image_77.bmp-O_Lure_77.bmp,2,0,2
261,6,20,seed,NA,2,2,1.1582,1,NA,F_Image_20.bmp-F_Lure_20.bmp,2,0,1
262,6,64,attack,NA,1,1,0.65168,1,NA,O_Image_64.bmp-O_Lure_64.bmp,1,0,2
263,6,127,army,NA,2,1,1.1223,0,NA,S_Image_127.bmp-S_Lure_127.bmp,1,0,3
264,6,91,wool,NA,1,1,0.74243,1,NA,O_Image_91.bmp-O_Lure_91.bmp,2,1,2
265,6,80,drizzle,NA,1,1,0.93607,1,NA,O_Image_80.bmp-O_Lure_80.bmp,1,0,2
266,6,10,antique,NA,2,2,1.0715,1,NA,F_Image_10.bmp-F_Lure_10.bmp,1,1,1
267,6,103,rock,NA,1,1,0.90918,1,NA,S_Image_103.bmp-S_Lure_103.bmp,2,0,3
268,6,119,tube,NA,1,1,0.90666,1,NA,S_Image_119.bmp-S_Lure_119.bmp,1,0,3
269,6,25,quake,NA,2,2,1.2734,1,NA,F_Image_25.bmp-F_Lure_25.bmp,1,0,1
270,6,110,poison,NA,2,1,1.2441,0,NA,S_Image_110.bmp-S_Lure_110.bmp,1,0,3
271,6,144,sand,NA,1,1,1.3476,1,NA,S_Image_144.bmp-S_Lure_144.bmp,2,0,3
272,6,97,harem,NA,2,2,0.97743,1,NA,S_Image_97.bmp-S_Lure_97.bmp,2,1,3
273,6,16,tourist,NA,2,2,0.88451,1,NA,F_Image_16.bmp-F_Lure_16.bmp,1,1,1
274,6,35,slope,NA,2,1,1.8315,0,NA,F_Image_35.bmp-F_Lure_35.bmp,2,0,1
275,6,51,giant,NA,1,1,0.60198,1,NA,O_Image_51.bmp-O_Lure_51.bmp,1,1,2
276,6,28,cone,NA,2,2,1.6088,1,NA,F_Image_28.bmp-F_Lure_28.bmp,2,1,1
277,6,58,harem,NA,2,2,0.645,1,NA,O_Image_58.bmp-O_Lure_58.bmp,1,1,2
278,6,57,breakfast,NA,2,2,0.76996,1,NA,O_Image_57.bmp-O_Lure_57.bmp,1,1,2
279,6,105,honeymoon,NA,1,2,1.7131,0,NA,S_Image_105.bmp-S_Lure_105.bmp,1,1,3
280,6,19,marble,NA,2,2,1.2309,1,NA,F_Image_19.bmp-F_Lure_19.bmp,2,0,1
281,6,142,cone,NA,2,2,1.7106,1,NA,S_Image_142.bmp-S_Lure_142.bmp,1,1,3
282,6,76,signal,NA,2,2,1.1644,1,NA,O_Image_76.bmp-O_Lure_76.bmp,2,0,2
283,6,96,spray,NA,2,1,1.0214,0,NA,O_Image_96.bmp-O_Lure_96.bmp,1,1,2
284,6,92,orchestra,NA,1,1,0.76475,1,NA,O_Image_92.bmp-O_Lure_92.bmp,2,1,2
285,6,135,breakfast,NA,2,2,0.79085,1,NA,S_Image_135.bmp-S_Lure_135.bmp,2,1,3
286,6,63,sand,NA,2,2,0.86513,1,NA,O_Image_63.bmp-O_Lure_63.bmp,1,0,2
287,6,43,laundry,NA,2,2,1.0623,1,NA,F_Image_43.bmp-F_Lure_43.bmp,2,0,1
288,6,113,quake,NA,1,1,1.3992,1,NA,S_Image_113.bmp-S_Lure_113.bmp,2,0,3
