Trial,Cond,ImageNum,Cue,Block,Correct,Response,RT,Accuracy,CueRep,fName,ImageType,Baseline,Category
1,5,121.75,laundry,NA,3,2,1.1002,0,1,S_Image_121.bmp-O_Lure_75.bmp,NA,0,3.2
2,5,62.07,money,NA,2,0,2.5004,0,1,O_Image_62.bmp-F_Lure_7.bmp,NA,0,2.1
3,5,24.88,yellow,NA,1,1,1.8073,1,1,F_Image_24.bmp-O_Lure_88.bmp,NA,0,1.2
4,5,116.43,kiss,NA,3,3,0.79162,1,1,S_Image_116.bmp-F_Lure_43.bmp,NA,0,3.1
5,5,87.41,antique,NA,2,2,0.41695,1,1,O_Image_87.bmp-F_Lure_41.bmp,NA,0,2.1
6,5,57.28,corpse,NA,2,2,0.41028,1,1,O_Image_56.bmp-S_Lure_128.bmp,NA,0,2.3
7,5,67.09,galaxy,NA,2,2,0.47045,1,1,O_Image_66.bmp-S_Lure_109.bmp,NA,0,2.3
8,5,35.27,sweat,NA,1,4,1.0048,0,1,F_Image_34.bmp-S_Lure_127.bmp,NA,0,1.3
9,5,138.71,bubble,NA,3,2,1.8263,0,1,S_Image_138.bmp-O_Lure_71.bmp,NA,0,3.2
10,5,136.93,magnet,NA,3,3,0.37776,1,1,S_Image_136.bmp-O_Lure_93.bmp,NA,0,3.2
11,5,62.07,money,NA,2,2,0.26518,1,2,O_Image_62.bmp-F_Lure_7.bmp,NA,0,2.1
12,5,130.91,signal,NA,3,3,0.38531,1,1,S_Image_130.bmp-O_Lure_91.bmp,NA,0,3.2
13,5,138.71,bubble,NA,3,2,0.31774,0,2,S_Image_138.bmp-O_Lure_71.bmp,NA,0,3.2
14,5,86.03,arrow,NA,2,2,0.42618,1,1,O_Image_85.bmp-S_Lure_103.bmp,NA,0,2.3
15,5,54.32,breakfast,NA,2,2,0.35962,1,1,O_Image_54.bmp-F_Lure_32.bmp,NA,0,2.1
16,5,82.04,scar,NA,2,1,0.36078,0,1,O_Image_82.bmp-F_Lure_4.bmp,NA,0,2.1
17,5,86.03,arrow,NA,2,2,0.22344,1,2,O_Image_85.bmp-S_Lure_103.bmp,NA,0,2.3
18,5,73.07,tear,NA,2,2,1.4221,1,1,O_Image_72.bmp-S_Lure_107.bmp,NA,0,2.3
19,5,144.47,fire,NA,3,3,0.34738,1,1,S_Image_144.bmp-F_Lure_47.bmp,NA,0,3.1
20,5,139.76,flood,NA,3,3,0.25925,1,1,S_Image_139.bmp-O_Lure_76.bmp,NA,0,3.2
21,5,115.1,animal,NA,3,1,0.33082,0,1,S_Image_115.bmp-F_Lure_10.bmp,NA,0,3.1
22,5,54.32,breakfast,NA,2,2,0.34799,1,2,O_Image_54.bmp-F_Lure_32.bmp,NA,0,2.1
23,5,123.19,snow,NA,3,1,1.1702,0,1,S_Image_123.bmp-F_Lure_19.bmp,NA,0,3.1
24,5,115.1,animal,NA,3,3,0.54458,1,2,S_Image_115.bmp-F_Lure_10.bmp,NA,0,3.1
25,5,133.95,attack,NA,3,2,0.34625,0,1,S_Image_133.bmp-O_Lure_95.bmp,NA,0,3.2
26,5,52.32,fuel,NA,2,2,0.44955,1,1,O_Image_51.bmp-S_Lure_132.bmp,NA,0,2.3
27,5,58.21,angel,NA,2,3,0.38795,0,1,O_Image_58.bmp-F_Lure_21.bmp,NA,0,2.1
28,5,86.03,arrow,NA,2,2,0.33533,1,3,O_Image_85.bmp-S_Lure_103.bmp,NA,0,2.3
29,5,5.81,crumb,NA,1,1,0.28782,1,1,F_Image_5.bmp-O_Lure_81.bmp,NA,0,1.2
30,5,31.42,wreck,NA,1,1,0.33137,1,1,F_Image_30.bmp-S_Lure_142.bmp,NA,0,1.3
31,5,99.01,witch,NA,3,3,0.91004,1,1,S_Image_99.bmp-F_Lure_1.bmp,NA,0,3.1
32,5,123.19,snow,NA,3,3,0.3536,1,2,S_Image_123.bmp-F_Lure_19.bmp,NA,0,3.1
33,5,58.21,angel,NA,2,3,0.32199,0,2,O_Image_58.bmp-F_Lure_21.bmp,NA,0,2.1
34,5,15.89,ghost,NA,1,1,0.3692,1,1,F_Image_15.bmp-O_Lure_89.bmp,NA,0,1.2
35,5,20.97,stem,NA,1,1,0.30043,1,1,F_Image_20.bmp-S_Lure_97.bmp,NA,0,1.3
36,5,111.31,lever,NA,3,3,0.3953,1,1,S_Image_111.bmp-F_Lure_31.bmp,NA,0,3.1
37,5,105.11,tube,NA,3,1,0.3279,0,1,S_Image_105.bmp-F_Lure_11.bmp,NA,0,3.1
38,5,136.93,magnet,NA,3,3,0.29019,1,2,S_Image_136.bmp-O_Lure_93.bmp,NA,0,3.2
39,5,114.42,paper,NA,3,1,0.47035,0,1,S_Image_114.bmp-F_Lure_42.bmp,NA,0,3.1
40,5,4.43,steam,NA,1,3,0.43297,0,1,F_Image_3.bmp-S_Lure_143.bmp,NA,0,1.3
41,5,20.97,stem,NA,1,4,0.43804,0,2,F_Image_20.bmp-S_Lure_97.bmp,NA,0,1.3
42,5,100.55,giant,NA,3,2,0.32031,0,1,S_Image_100.bmp-O_Lure_55.bmp,NA,0,3.2
43,5,58.21,angel,NA,2,4,0.33044,0,3,O_Image_58.bmp-F_Lure_21.bmp,NA,0,2.1
44,5,100.55,giant,NA,3,3,0.8265,1,2,S_Image_100.bmp-O_Lure_55.bmp,NA,0,3.2
45,5,114.42,paper,NA,3,3,2.333,1,2,S_Image_114.bmp-F_Lure_42.bmp,NA,0,3.1
46,5,111.31,lever,NA,3,3,0.42661,1,2,S_Image_111.bmp-F_Lure_31.bmp,NA,0,3.1
47,5,114.42,paper,NA,3,2,0.34687,0,3,S_Image_114.bmp-F_Lure_42.bmp,NA,0,3.1
48,5,15.89,ghost,NA,1,1,0.38595,1,2,F_Image_15.bmp-O_Lure_89.bmp,NA,0,1.2
49,5,82.04,scar,NA,2,2,0.41379,1,2,O_Image_82.bmp-F_Lure_4.bmp,NA,0,2.1
50,5,139.76,flood,NA,3,3,0.81585,1,2,S_Image_139.bmp-O_Lure_76.bmp,NA,0,3.2
51,5,15.89,ghost,NA,1,2,0.37915,0,3,F_Image_15.bmp-O_Lure_89.bmp,NA,0,1.2
52,5,139.76,flood,NA,3,3,0.42056,1,3,S_Image_139.bmp-O_Lure_76.bmp,NA,0,3.2
53,5,105.11,tube,NA,3,1,0.24623,0,2,S_Image_105.bmp-F_Lure_11.bmp,NA,0,3.1
54,5,62.07,money,NA,2,2,0.72795,1,3,O_Image_62.bmp-F_Lure_7.bmp,NA,0,2.1
55,5,53.37,rock,NA,2,2,0.30951,1,1,O_Image_52.bmp-S_Lure_137.bmp,NA,0,2.3
56,5,138.71,bubble,NA,3,2,0.36214,0,3,S_Image_138.bmp-O_Lure_71.bmp,NA,0,3.2
57,5,121.75,laundry,NA,3,3,0.25225,1,2,S_Image_121.bmp-O_Lure_75.bmp,NA,0,3.2
58,5,24.88,yellow,NA,1,1,0.30785,1,2,F_Image_24.bmp-O_Lure_88.bmp,NA,0,1.2
59,5,67.09,galaxy,NA,2,2,0.24922,1,2,O_Image_66.bmp-S_Lure_109.bmp,NA,0,2.3
60,5,83.29,cloud,NA,2,1,0.5339,0,1,O_Image_83.bmp-F_Lure_29.bmp,NA,0,2.1
61,5,144.47,fire,NA,3,3,0.33414,1,2,S_Image_144.bmp-F_Lure_47.bmp,NA,0,3.1
62,5,53.37,rock,NA,2,1,1.2925,0,2,O_Image_52.bmp-S_Lure_137.bmp,NA,0,2.3
63,5,82.04,scar,NA,2,2,0.31443,1,3,O_Image_82.bmp-F_Lure_4.bmp,NA,0,2.1
64,5,108.86,wound,NA,3,3,0.23135,1,1,S_Image_108.bmp-O_Lure_86.bmp,NA,0,3.2
65,5,31.42,wreck,NA,1,1,0.2793,1,2,F_Image_30.bmp-S_Lure_142.bmp,NA,0,1.3
66,5,67.09,galaxy,NA,2,2,0.35941,1,3,O_Image_66.bmp-S_Lure_109.bmp,NA,0,2.3
67,5,4.43,steam,NA,1,4,0.27036,0,2,F_Image_3.bmp-S_Lure_143.bmp,NA,0,1.3
68,5,83.29,cloud,NA,2,2,0.34346,1,2,O_Image_83.bmp-F_Lure_29.bmp,NA,0,2.1
69,5,123.19,snow,NA,3,3,0.27411,1,3,S_Image_123.bmp-F_Lure_19.bmp,NA,0,3.1
70,5,62.07,money,NA,2,2,0.35248,1,4,O_Image_62.bmp-F_Lure_7.bmp,NA,0,2.1
71,5,87.41,antique,NA,2,2,0.2537,1,2,O_Image_87.bmp-F_Lure_41.bmp,NA,0,2.1
72,5,73.07,tear,NA,2,2,0.55259,1,2,O_Image_72.bmp-S_Lure_107.bmp,NA,0,2.3
73,5,35.27,sweat,NA,1,3,0.28627,0,2,F_Image_34.bmp-S_Lure_127.bmp,NA,0,1.3
74,5,57.28,corpse,NA,2,2,0.39063,1,2,O_Image_56.bmp-S_Lure_128.bmp,NA,0,2.3
75,5,130.91,signal,NA,3,3,0.33776,1,2,S_Image_130.bmp-O_Lure_91.bmp,NA,0,3.2
76,5,100.55,giant,NA,3,2,0.32344,0,3,S_Image_100.bmp-O_Lure_55.bmp,NA,0,3.2
77,5,4.43,steam,NA,1,3,0.38387,0,3,F_Image_3.bmp-S_Lure_143.bmp,NA,0,1.3
78,5,79.16,costume,NA,2,1,0.29235,0,1,O_Image_79.bmp-F_Lure_16.bmp,NA,0,2.1
79,5,87.41,antique,NA,2,2,0.3654,1,3,O_Image_87.bmp-F_Lure_41.bmp,NA,0,2.1
80,5,15.89,ghost,NA,1,1,0.30124,1,4,F_Image_15.bmp-O_Lure_89.bmp,NA,0,1.2
81,5,57.28,corpse,NA,2,2,0.30346,1,3,O_Image_56.bmp-S_Lure_128.bmp,NA,0,2.3
82,5,138.71,bubble,NA,3,2,0.24075,0,4,S_Image_138.bmp-O_Lure_71.bmp,NA,0,3.2
83,5,52.32,fuel,NA,2,2,0.3662,1,2,O_Image_51.bmp-S_Lure_132.bmp,NA,0,2.3
84,5,5.81,crumb,NA,1,1,0.34481,1,2,F_Image_5.bmp-O_Lure_81.bmp,NA,0,1.2
85,5,133.95,attack,NA,3,0,2.5001,0,2,S_Image_133.bmp-O_Lure_95.bmp,NA,0,3.2
86,5,52.32,fuel,NA,2,2,0.50897,1,3,O_Image_51.bmp-S_Lure_132.bmp,NA,0,2.3
87,5,73.07,tear,NA,2,2,0.53482,1,3,O_Image_72.bmp-S_Lure_107.bmp,NA,0,2.3
88,5,114.42,paper,NA,3,1,0.35645,0,4,S_Image_114.bmp-F_Lure_42.bmp,NA,0,3.1
89,5,35.27,sweat,NA,1,1,0.67118,1,3,F_Image_34.bmp-S_Lure_127.bmp,NA,0,1.3
90,5,116.43,kiss,NA,3,3,0.33511,1,2,S_Image_116.bmp-F_Lure_43.bmp,NA,0,3.1
91,5,52.32,fuel,NA,2,2,0.27397,1,4,O_Image_51.bmp-S_Lure_132.bmp,NA,0,2.3
92,5,5.81,crumb,NA,1,1,0.34779,1,3,F_Image_5.bmp-O_Lure_81.bmp,NA,0,1.2
93,5,105.11,tube,NA,3,1,0.40291,0,3,S_Image_105.bmp-F_Lure_11.bmp,NA,0,3.1
94,5,99.01,witch,NA,3,4,0.29092,0,2,S_Image_99.bmp-F_Lure_1.bmp,NA,0,3.1
95,5,24.88,yellow,NA,1,1,0.38416,1,3,F_Image_24.bmp-O_Lure_88.bmp,NA,0,1.2
96,5,5.81,crumb,NA,1,1,0.29313,1,4,F_Image_5.bmp-O_Lure_81.bmp,NA,0,1.2
97,5,58.21,angel,NA,2,3,0.33134,0,4,O_Image_58.bmp-F_Lure_21.bmp,NA,0,2.1
98,5,121.75,laundry,NA,3,3,0.58668,1,3,S_Image_121.bmp-O_Lure_75.bmp,NA,0,3.2
99,5,20.97,stem,NA,1,1,0.41333,1,3,F_Image_20.bmp-S_Lure_97.bmp,NA,0,1.3
100,5,83.29,cloud,NA,2,2,0.35757,1,3,O_Image_83.bmp-F_Lure_29.bmp,NA,0,2.1
101,5,123.19,snow,NA,3,3,0.24764,1,4,S_Image_123.bmp-F_Lure_19.bmp,NA,0,3.1
102,5,136.93,magnet,NA,3,3,0.45914,1,3,S_Image_136.bmp-O_Lure_93.bmp,NA,0,3.2
103,5,82.04,scar,NA,2,2,0.46336,1,4,O_Image_82.bmp-F_Lure_4.bmp,NA,0,2.1
104,5,31.42,wreck,NA,1,1,0.35297,1,3,F_Image_30.bmp-S_Lure_142.bmp,NA,0,1.3
105,5,100.55,giant,NA,3,3,0.77905,1,4,S_Image_100.bmp-O_Lure_55.bmp,NA,0,3.2
106,5,121.75,laundry,NA,3,3,0.31838,1,4,S_Image_121.bmp-O_Lure_75.bmp,NA,0,3.2
107,5,108.86,wound,NA,3,3,0.51568,1,2,S_Image_108.bmp-O_Lure_86.bmp,NA,0,3.2
108,5,108.86,wound,NA,3,3,0.36046,1,3,S_Image_108.bmp-O_Lure_86.bmp,NA,0,3.2
109,5,130.91,signal,NA,3,3,0.25929,1,3,S_Image_130.bmp-O_Lure_91.bmp,NA,0,3.2
110,5,115.1,animal,NA,3,1,0.56894,0,3,S_Image_115.bmp-F_Lure_10.bmp,NA,0,3.1
111,5,86.03,arrow,NA,2,2,0.31945,1,4,O_Image_85.bmp-S_Lure_103.bmp,NA,0,2.3
112,5,111.31,lever,NA,3,3,0.37804,1,3,S_Image_111.bmp-F_Lure_31.bmp,NA,0,3.1
113,5,57.28,corpse,NA,2,2,0.23862,1,4,O_Image_56.bmp-S_Lure_128.bmp,NA,0,2.3
114,5,79.16,costume,NA,2,1,0.38856,0,2,O_Image_79.bmp-F_Lure_16.bmp,NA,0,2.1
115,5,54.32,breakfast,NA,2,2,0.8795,1,3,O_Image_54.bmp-F_Lure_32.bmp,NA,0,2.1
116,5,116.43,kiss,NA,3,3,0.36997,1,3,S_Image_116.bmp-F_Lure_43.bmp,NA,0,3.1
117,5,130.91,signal,NA,3,3,0.32126,1,4,S_Image_130.bmp-O_Lure_91.bmp,NA,0,3.2
118,5,31.42,wreck,NA,1,2,0.40099,0,4,F_Image_30.bmp-S_Lure_142.bmp,NA,0,1.3
119,5,139.76,flood,NA,3,3,0.36993,1,4,S_Image_139.bmp-O_Lure_76.bmp,NA,0,3.2
120,5,35.27,sweat,NA,1,1,0.34437,1,4,F_Image_34.bmp-S_Lure_127.bmp,NA,0,1.3
121,5,144.47,fire,NA,3,3,1.8046,1,3,S_Image_144.bmp-F_Lure_47.bmp,NA,0,3.1
122,5,116.43,kiss,NA,3,3,0.24793,1,4,S_Image_116.bmp-F_Lure_43.bmp,NA,0,3.1
123,5,115.1,animal,NA,3,3,0.56935,1,4,S_Image_115.bmp-F_Lure_10.bmp,NA,0,3.1
124,5,53.37,rock,NA,2,2,0.55549,1,3,O_Image_52.bmp-S_Lure_137.bmp,NA,0,2.3
125,5,4.43,steam,NA,1,3,0.31825,0,4,F_Image_3.bmp-S_Lure_143.bmp,NA,0,1.3
126,5,133.95,attack,NA,3,2,0.40655,0,3,S_Image_133.bmp-O_Lure_95.bmp,NA,0,3.2
127,5,54.32,breakfast,NA,2,2,0.52763,1,4,O_Image_54.bmp-F_Lure_32.bmp,NA,0,2.1
128,5,20.97,stem,NA,1,1,0.65082,1,4,F_Image_20.bmp-S_Lure_97.bmp,NA,0,1.3
129,5,136.93,magnet,NA,3,3,0.29229,1,4,S_Image_136.bmp-O_Lure_93.bmp,NA,0,3.2
130,5,79.16,costume,NA,2,4,0.36883,0,3,O_Image_79.bmp-F_Lure_16.bmp,NA,0,2.1
131,5,111.31,lever,NA,3,3,0.46068,1,4,S_Image_111.bmp-F_Lure_31.bmp,NA,0,3.1
132,5,73.07,tear,NA,2,2,1.0051,1,4,O_Image_72.bmp-S_Lure_107.bmp,NA,0,2.3
133,5,24.88,yellow,NA,1,1,0.32901,1,4,F_Image_24.bmp-O_Lure_88.bmp,NA,0,1.2
134,5,105.11,tube,NA,3,1,0.35938,0,4,S_Image_105.bmp-F_Lure_11.bmp,NA,0,3.1
135,5,108.86,wound,NA,3,3,0.23027,1,4,S_Image_108.bmp-O_Lure_86.bmp,NA,0,3.2
136,5,99.01,witch,NA,3,3,1.0377,1,3,S_Image_99.bmp-F_Lure_1.bmp,NA,0,3.1
137,5,67.09,galaxy,NA,2,2,0.27371,1,4,O_Image_66.bmp-S_Lure_109.bmp,NA,0,2.3
138,5,144.47,fire,NA,3,3,0.41878,1,4,S_Image_144.bmp-F_Lure_47.bmp,NA,0,3.1
139,5,83.29,cloud,NA,2,2,2.1442,1,4,O_Image_83.bmp-F_Lure_29.bmp,NA,0,2.1
140,5,87.41,antique,NA,2,2,0.34623,1,4,O_Image_87.bmp-F_Lure_41.bmp,NA,0,2.1
141,5,133.95,attack,NA,3,2,0.5229,0,4,S_Image_133.bmp-O_Lure_95.bmp,NA,0,3.2
142,5,99.01,witch,NA,3,3,0.4059,1,4,S_Image_99.bmp-F_Lure_1.bmp,NA,0,3.1
143,5,53.37,rock,NA,2,2,0.33395,1,4,O_Image_52.bmp-S_Lure_137.bmp,NA,0,2.3
144,5,79.16,costume,NA,2,0,2.5006,0,4,O_Image_79.bmp-F_Lure_16.bmp,NA,0,2.1
145,6,116,kiss,NA,1,1,0.58005,1,NA,S_Image_116.bmp-S_Lure_116.bmp,1,0,3
146,6,85,arrow,NA,1,1,0.47439,1,NA,O_Image_85.bmp-O_Lure_85.bmp,1,0,2
147,6,26,spray,NA,2,2,0.80607,1,NA,F_Image_26.bmp-F_Lure_26.bmp,1,1,1
148,6,94,sunshine,NA,1,1,0.70604,1,NA,O_Image_94.bmp-O_Lure_94.bmp,1,1,2
149,6,31,lever,NA,1,1,0.75181,1,NA,F_Image_31.bmp-F_Lure_31.bmp,1,0,1
150,6,87,antique,NA,1,1,0.61527,1,NA,O_Image_87.bmp-O_Lure_87.bmp,1,0,2
151,6,41,antique,NA,1,2,0.83628,0,NA,F_Image_41.bmp-F_Lure_41.bmp,1,0,1
152,6,70,vegetable,NA,1,2,0.72434,0,NA,O_Image_70.bmp-O_Lure_70.bmp,1,1,2
153,6,58,angel,NA,2,2,0.67489,1,NA,O_Image_58.bmp-O_Lure_58.bmp,1,0,2
154,6,27,stripe,NA,2,2,0.90197,1,NA,F_Image_27.bmp-F_Lure_27.bmp,1,1,1
155,6,86,wound,NA,2,2,1.0256,1,NA,O_Image_86.bmp-O_Lure_86.bmp,1,0,2
156,6,137,rock,NA,1,2,0.95798,0,NA,S_Image_137.bmp-S_Lure_137.bmp,1,0,3
157,6,98,quake,NA,2,1,1.089,0,NA,S_Image_98.bmp-S_Lure_98.bmp,1,1,3
158,6,117,honeymoon,NA,1,1,0.81084,1,NA,S_Image_117.bmp-S_Lure_117.bmp,1,1,3
159,6,124,menu,NA,1,2,1.386,0,NA,S_Image_124.bmp-S_Lure_124.bmp,1,1,3
160,6,34,sweat,NA,1,2,0.86199,0,NA,F_Image_34.bmp-F_Lure_34.bmp,1,0,1
161,6,38,army,NA,2,2,0.93821,1,NA,F_Image_38.bmp-F_Lure_38.bmp,1,1,1
162,6,59,slope,NA,2,2,0.66178,1,NA,O_Image_59.bmp-O_Lure_59.bmp,1,1,2
163,6,36,measles,NA,1,1,1.22,1,NA,F_Image_36.bmp-F_Lure_36.bmp,1,1,1
164,6,57,hostage,NA,1,1,0.59202,1,NA,O_Image_57.bmp-O_Lure_57.bmp,1,1,2
165,6,29,cloud,NA,1,1,0.90307,1,NA,F_Image_29.bmp-F_Lure_29.bmp,1,0,1
166,6,91,signal,NA,1,1,0.77534,1,NA,O_Image_91.bmp-O_Lure_91.bmp,1,0,2
167,6,21,angel,NA,1,1,0.75268,1,NA,F_Image_21.bmp-F_Lure_21.bmp,1,0,1
168,6,4,scar,NA,2,2,0.8237,1,NA,F_Image_4.bmp-F_Lure_4.bmp,1,0,1
169,6,6,water,NA,2,2,0.97422,1,NA,F_Image_6.bmp-F_Lure_6.bmp,1,1,1
170,6,2,arch,NA,1,1,0.72453,1,NA,F_Image_2.bmp-F_Lure_2.bmp,1,1,1
171,6,97,stem,NA,1,2,0.98763,0,NA,S_Image_97.bmp-S_Lure_97.bmp,1,0,3
172,6,20,stem,NA,2,2,0.64791,1,NA,F_Image_20.bmp-F_Lure_20.bmp,1,0,1
173,6,44,wool,NA,2,1,1.0626,0,NA,F_Image_44.bmp-F_Lure_44.bmp,1,1,1
174,6,63,alcohol,NA,1,1,0.91465,1,NA,O_Image_63.bmp-O_Lure_63.bmp,1,1,2
175,6,52,rock,NA,1,1,0.92444,1,NA,O_Image_52.bmp-O_Lure_52.bmp,1,0,2
176,6,19,snow,NA,1,1,0.94738,1,NA,F_Image_19.bmp-F_Lure_19.bmp,1,0,1
177,6,46,spike,NA,1,2,0.69158,0,NA,F_Image_46.bmp-F_Lure_46.bmp,1,1,1
178,6,107,tear,NA,1,1,1.0513,1,NA,S_Image_107.bmp-S_Lure_107.bmp,1,0,3
179,6,127,sweat,NA,2,2,0.77118,1,NA,S_Image_127.bmp-S_Lure_127.bmp,1,0,3
180,6,17,slope,NA,1,1,1.9126,1,NA,F_Image_17.bmp-F_Lure_17.bmp,1,1,1
181,6,103,arrow,NA,2,2,0.95492,1,NA,S_Image_103.bmp-S_Lure_103.bmp,1,0,3
182,6,129,alien,NA,2,1,1.313,0,NA,S_Image_129.bmp-S_Lure_129.bmp,1,1,3
183,6,24,yellow,NA,2,2,1.6121,1,NA,F_Image_24.bmp-F_Lure_24.bmp,1,0,1
184,6,135,water,NA,1,1,0.73569,1,NA,S_Image_135.bmp-S_Lure_135.bmp,1,1,3
185,6,33,tourist,NA,2,2,1.0828,1,NA,F_Image_33.bmp-F_Lure_33.bmp,1,1,1
186,6,64,orchestra,NA,2,2,0.98296,1,NA,O_Image_64.bmp-O_Lure_64.bmp,1,1,2
187,6,115,animal,NA,1,1,1.0728,1,NA,S_Image_115.bmp-S_Lure_115.bmp,1,0,3
188,6,62,money,NA,1,2,0.60497,0,NA,O_Image_62.bmp-O_Lure_62.bmp,1,0,2
189,6,106,tail,NA,1,2,1.0319,0,NA,S_Image_106.bmp-S_Lure_106.bmp,1,1,3
190,6,125,corner,NA,1,2,0.90017,0,NA,S_Image_125.bmp-S_Lure_125.bmp,1,1,3
191,6,123,snow,NA,1,1,1.1836,1,NA,S_Image_123.bmp-S_Lure_123.bmp,1,0,3
192,6,69,stripe,NA,1,1,0.80228,1,NA,O_Image_69.bmp-O_Lure_69.bmp,1,1,2
193,6,65,tourist,NA,1,2,0.63648,0,NA,O_Image_65.bmp-O_Lure_65.bmp,1,1,2
194,6,35,hurricane,NA,1,2,1.1165,0,NA,F_Image_35.bmp-F_Lure_35.bmp,1,1,1
195,6,56,corpse,NA,1,1,0.57791,1,NA,O_Image_56.bmp-O_Lure_56.bmp,1,0,2
196,6,66,galaxy,NA,2,1,0.60518,0,NA,O_Image_66.bmp-O_Lure_66.bmp,1,0,2
197,6,47,fire,NA,1,1,1.2836,1,NA,F_Image_47.bmp-F_Lure_47.bmp,1,0,1
198,6,118,orchestra,NA,2,1,1.4649,0,NA,S_Image_118.bmp-S_Lure_118.bmp,1,1,3
199,6,8,black,NA,1,1,0.97037,1,NA,F_Image_8.bmp-F_Lure_8.bmp,1,1,1
200,6,77,poison,NA,2,2,0.61061,1,NA,O_Image_77.bmp-O_Lure_77.bmp,1,1,2
201,6,101,army,NA,2,1,1.0913,0,NA,S_Image_101.bmp-S_Lure_101.bmp,1,1,3
202,6,82,scar,NA,2,2,0.63968,1,NA,O_Image_82.bmp-O_Lure_82.bmp,1,0,2
203,6,99,witch,NA,1,0,3.4996,0,NA,S_Image_99.bmp-S_Lure_99.bmp,1,0,3
204,6,39,alien,NA,2,2,0.74425,1,NA,F_Image_39.bmp-F_Lure_39.bmp,1,1,1
205,6,68,rust,NA,2,2,0.56756,1,NA,O_Image_68.bmp-O_Lure_68.bmp,1,1,2
206,6,112,rust,NA,2,2,0.81651,1,NA,S_Image_112.bmp-S_Lure_112.bmp,1,1,3
207,6,75,laundry,NA,2,2,1.0373,1,NA,O_Image_75.bmp-O_Lure_75.bmp,1,0,2
208,6,140,alcohol,NA,1,2,0.87402,0,NA,S_Image_140.bmp-S_Lure_140.bmp,1,1,3
209,6,142,wreck,NA,2,1,1.0365,0,NA,S_Image_142.bmp-S_Lure_142.bmp,1,0,3
210,6,80,seed,NA,1,2,0.58413,0,NA,O_Image_80.bmp-O_Lure_80.bmp,1,1,2
211,6,83,cloud,NA,2,1,0.6357,0,NA,O_Image_83.bmp-O_Lure_83.bmp,1,0,2
212,6,120,poison,NA,1,2,0.98645,0,NA,S_Image_120.bmp-S_Lure_120.bmp,1,1,3
213,6,139,flood,NA,2,2,0.99149,1,NA,S_Image_139.bmp-S_Lure_139.bmp,1,0,3
214,6,84,marble,NA,1,1,0.59547,1,NA,O_Image_84.bmp-O_Lure_84.bmp,1,1,2
215,6,90,cone,NA,2,1,0.9635,0,NA,O_Image_90.bmp-O_Lure_90.bmp,1,1,2
216,6,100,giant,NA,2,2,0.93217,1,NA,S_Image_100.bmp-S_Lure_100.bmp,1,0,3
217,6,14,board,NA,1,2,1.1918,0,NA,F_Image_14.bmp-F_Lure_14.bmp,1,1,1
218,6,128,corpse,NA,1,1,1.2197,1,NA,S_Image_128.bmp-S_Lure_128.bmp,1,0,3
219,6,18,marble,NA,1,1,1.025,1,NA,F_Image_18.bmp-F_Lure_18.bmp,1,1,1
220,6,136,magnet,NA,2,2,0.80777,1,NA,S_Image_136.bmp-S_Lure_136.bmp,1,0,3
221,6,51,fuel,NA,1,1,0.76734,1,NA,O_Image_51.bmp-O_Lure_51.bmp,1,0,2
222,6,11,tube,NA,1,2,0.78681,0,NA,F_Image_11.bmp-F_Lure_11.bmp,1,0,1
223,6,102,triangle,NA,2,1,0.92535,0,NA,S_Image_102.bmp-S_Lure_102.bmp,1,1,3
224,6,23,triangle,NA,2,2,0.87353,1,NA,F_Image_23.bmp-F_Lure_23.bmp,1,1,1
225,6,10,animal,NA,1,1,1.2159,1,NA,F_Image_10.bmp-F_Lure_10.bmp,1,0,1
226,6,15,ghost,NA,2,1,1.0183,0,NA,F_Image_15.bmp-F_Lure_15.bmp,1,0,1
227,6,13,seed,NA,2,2,0.9375,1,NA,F_Image_13.bmp-F_Lure_13.bmp,1,1,1
228,6,134,sand,NA,2,2,1.1534,1,NA,S_Image_134.bmp-S_Lure_134.bmp,1,1,3
229,6,28,asphalt,NA,2,2,0.95772,1,NA,F_Image_28.bmp-F_Lure_28.bmp,1,1,1
230,6,30,wreck,NA,1,1,0.88881,1,NA,F_Image_30.bmp-F_Lure_30.bmp,1,0,1
231,6,5,crumb,NA,2,1,1.082,0,NA,F_Image_5.bmp-F_Lure_5.bmp,1,0,1
232,6,73,wool,NA,1,1,1.0451,1,NA,O_Image_73.bmp-O_Lure_73.bmp,1,1,2
233,6,96,board,NA,2,2,0.56505,1,NA,O_Image_96.bmp-O_Lure_96.bmp,1,1,2
234,6,9,hostage,NA,2,2,1.0694,1,NA,F_Image_9.bmp-F_Lure_9.bmp,1,1,1
235,6,93,magnet,NA,1,1,0.86245,1,NA,O_Image_93.bmp-O_Lure_93.bmp,1,0,2
236,6,74,menu,NA,2,2,0.92352,1,NA,O_Image_74.bmp-O_Lure_74.bmp,1,1,2
237,6,25,shadow,NA,2,2,0.77528,1,NA,F_Image_25.bmp-F_Lure_25.bmp,1,1,1
238,6,130,signal,NA,2,2,0.96305,1,NA,S_Image_130.bmp-S_Lure_130.bmp,1,0,3
239,6,43,kiss,NA,2,1,0.81594,0,NA,F_Image_43.bmp-F_Lure_43.bmp,1,0,1
240,6,89,ghost,NA,2,2,1.4116,1,NA,O_Image_89.bmp-O_Lure_89.bmp,1,0,2
241,6,3,steam,NA,1,1,1.0199,1,NA,F_Image_3.bmp-F_Lure_3.bmp,1,0,1
242,6,81,crumb,NA,1,1,0.62988,1,NA,O_Image_81.bmp-O_Lure_81.bmp,1,0,2
243,6,138,bubble,NA,1,1,0.94518,1,NA,S_Image_138.bmp-S_Lure_138.bmp,1,0,3
244,6,49,drizzle,NA,1,1,0.86307,1,NA,O_Image_49.bmp-O_Lure_49.bmp,1,1,2
245,6,72,tear,NA,1,1,0.73142,1,NA,O_Image_72.bmp-O_Lure_72.bmp,1,0,2
246,6,78,sand,NA,1,1,0.78461,1,NA,O_Image_78.bmp-O_Lure_78.bmp,1,1,2
247,6,1,witch,NA,2,2,0.73074,1,NA,F_Image_1.bmp-F_Lure_1.bmp,1,0,1
248,6,108,wound,NA,1,1,0.90025,1,NA,S_Image_108.bmp-S_Lure_108.bmp,1,0,3
249,6,119,shell,NA,1,1,1.0162,1,NA,S_Image_119.bmp-S_Lure_119.bmp,1,1,3
250,6,132,fuel,NA,2,2,1.1025,1,NA,S_Image_132.bmp-S_Lure_132.bmp,1,0,3
251,6,144,fire,NA,1,1,1.0592,1,NA,S_Image_144.bmp-S_Lure_144.bmp,1,0,3
252,6,61,shadow,NA,2,2,0.57068,1,NA,O_Image_61.bmp-O_Lure_61.bmp,1,1,2
253,6,121,laundry,NA,2,2,0.78499,1,NA,S_Image_121.bmp-S_Lure_121.bmp,1,0,3
254,6,110,arch,NA,2,2,0.75792,1,NA,S_Image_110.bmp-S_Lure_110.bmp,1,1,3
255,6,111,lever,NA,2,2,1.1411,1,NA,S_Image_111.bmp-S_Lure_111.bmp,1,0,3
256,6,122,black,NA,2,2,1.0188,1,NA,S_Image_122.bmp-S_Lure_122.bmp,1,1,3
257,6,53,harem,NA,2,2,0.86973,1,NA,O_Image_53.bmp-O_Lure_53.bmp,1,1,2
258,6,55,giant,NA,2,2,0.78684,1,NA,O_Image_55.bmp-O_Lure_55.bmp,1,0,2
259,6,54,breakfast,NA,1,1,0.83625,1,NA,O_Image_54.bmp-O_Lure_54.bmp,1,0,2
260,6,109,galaxy,NA,1,1,0.88334,1,NA,S_Image_109.bmp-S_Lure_109.bmp,1,0,3
261,6,126,measles,NA,1,2,1.1167,0,NA,S_Image_126.bmp-S_Lure_126.bmp,1,1,3
262,6,133,attack,NA,2,1,1.2975,0,NA,S_Image_133.bmp-S_Lure_133.bmp,1,0,3
263,6,141,drizzle,NA,2,2,1.1513,1,NA,S_Image_141.bmp-S_Lure_141.bmp,1,1,3
264,6,92,spray,NA,2,2,0.73911,1,NA,O_Image_92.bmp-O_Lure_92.bmp,1,1,2
265,6,131,harem,NA,1,1,0.77043,1,NA,S_Image_131.bmp-S_Lure_131.bmp,1,1,3
266,6,50,shell,NA,1,1,0.95177,1,NA,O_Image_50.bmp-O_Lure_50.bmp,1,1,2
267,6,95,attack,NA,1,1,1.1208,1,NA,O_Image_95.bmp-O_Lure_95.bmp,1,0,2
268,6,114,paper,NA,1,1,0.77356,1,NA,S_Image_114.bmp-S_Lure_114.bmp,1,0,3
269,6,22,corner,NA,2,2,1.4018,1,NA,F_Image_22.bmp-F_Lure_22.bmp,1,1,1
270,6,7,money,NA,1,1,0.92429,1,NA,F_Image_7.bmp-F_Lure_7.bmp,1,0,1
271,6,12,vegetable,NA,2,2,0.89614,1,NA,F_Image_12.bmp-F_Lure_12.bmp,1,1,1
272,6,40,cone,NA,2,2,0.99598,1,NA,F_Image_40.bmp-F_Lure_40.bmp,1,1,1
273,6,88,yellow,NA,2,2,1.0639,1,NA,O_Image_88.bmp-O_Lure_88.bmp,1,0,2
274,6,16,costume,NA,2,2,1.2638,1,NA,F_Image_16.bmp-F_Lure_16.bmp,1,0,1
275,6,79,costume,NA,2,2,1.1766,1,NA,O_Image_79.bmp-O_Lure_79.bmp,1,0,2
276,6,76,flood,NA,1,1,0.79116,1,NA,O_Image_76.bmp-O_Lure_76.bmp,1,0,2
277,6,60,honeymoon,NA,2,2,0.97304,1,NA,O_Image_60.bmp-O_Lure_60.bmp,1,1,2
278,6,104,spike,NA,2,1,1.7311,0,NA,S_Image_104.bmp-S_Lure_104.bmp,1,1,3
279,6,71,bubble,NA,2,1,1.9272,0,NA,O_Image_71.bmp-O_Lure_71.bmp,1,0,2
280,6,37,sunshine,NA,2,2,1.3235,1,NA,F_Image_37.bmp-F_Lure_37.bmp,1,1,1
281,6,105,tube,NA,1,2,1.347,0,NA,S_Image_105.bmp-S_Lure_105.bmp,1,0,3
282,6,67,hurricane,NA,2,2,0.7151,1,NA,O_Image_67.bmp-O_Lure_67.bmp,1,1,2
283,6,32,breakfast,NA,2,1,1.0224,0,NA,F_Image_32.bmp-F_Lure_32.bmp,1,0,1
284,6,143,steam,NA,2,2,0.79489,1,NA,S_Image_143.bmp-S_Lure_143.bmp,1,0,3
285,6,48,tail,NA,2,2,0.81235,1,NA,F_Image_48.bmp-F_Lure_48.bmp,1,1,1
286,6,45,quake,NA,1,1,1.5637,1,NA,F_Image_45.bmp-F_Lure_45.bmp,1,1,1
287,6,113,asphalt,NA,1,1,1.5814,1,NA,S_Image_113.bmp-S_Lure_113.bmp,1,1,3
288,6,42,paper,NA,2,2,1.4491,1,NA,F_Image_42.bmp-F_Lure_42.bmp,1,0,1
