Trial,Cond,ImageNum,Cue,Block,Correct,Response,RT,Accuracy,CueRep,fName,ImageType,Baseline,Category
1,1,85,NA,NA,NA,1,0.76637,NA,NA,O_Image_85.bmp,2,1,2
2,1,78,NA,NA,NA,1,0.42338,NA,NA,O_Image_78.bmp,2,1,2
3,1,63,NA,NA,NA,1,0.31683,NA,NA,O_Image_63.bmp,2,1,2
4,1,37,NA,NA,NA,2,0.57951,NA,NA,F_Image_37.bmp,1,1,1
5,1,86,NA,NA,NA,1,0.33083,NA,NA,O_Image_86.bmp,2,0,2
6,1,102,NA,NA,NA,2,0.47814,NA,NA,S_Image_102.bmp,2,0,3
7,1,30,NA,NA,NA,1,0.3456,NA,NA,F_Lure_30.bmp,0,0,1
8,1,45,NA,NA,NA,2,0.44481,NA,NA,F_Lure_45.bmp,0,0,1
9,1,52,NA,NA,NA,1,0.44023,NA,NA,O_Image_52.bmp,1,1,2
10,1,102,NA,NA,NA,1,0.29886,NA,NA,S_Lure_102.bmp,0,0,3
11,1,21,NA,NA,NA,1,0.54656,NA,NA,F_Image_21.bmp,2,0,1
12,1,65,NA,NA,NA,1,0.3685,NA,NA,O_Lure_65.bmp,0,1,2
13,1,25,NA,NA,NA,1,0.49448,NA,NA,F_Image_25.bmp,2,1,1
14,1,66,NA,NA,NA,1,0.52979,NA,NA,O_Image_66.bmp,1,0,2
15,1,26,NA,NA,NA,1,0.24328,NA,NA,F_Image_26.bmp,1,0,1
16,1,26,NA,NA,NA,2,0.58203,NA,NA,F_Lure_26.bmp,0,0,1
17,1,116,NA,NA,NA,1,0.30248,NA,NA,S_Lure_116.bmp,0,1,3
18,1,2,NA,NA,NA,1,0.44508,NA,NA,F_Image_2.bmp,2,0,1
19,1,70,NA,NA,NA,1,0.32586,NA,NA,O_Image_70.bmp,2,0,2
20,1,4,NA,NA,NA,1,0.29623,NA,NA,F_Lure_4.bmp,0,1,1
21,1,61,NA,NA,NA,1,0.56637,NA,NA,O_Image_61.bmp,2,0,2
22,1,79,NA,NA,NA,1,0.43408,NA,NA,O_Image_79.bmp,1,0,2
23,1,121,NA,NA,NA,1,0.49125,NA,NA,S_Image_121.bmp,2,1,3
24,1,101,NA,NA,NA,2,0.52036,NA,NA,S_Lure_101.bmp,0,1,3
25,1,33,NA,NA,NA,1,0.43442,NA,NA,F_Image_33.bmp,2,0,1
26,1,99,NA,NA,NA,2,0.45119,NA,NA,S_Lure_99.bmp,0,0,3
27,1,105,NA,NA,NA,2,0.45717,NA,NA,S_Image_105.bmp,2,1,3
28,1,13,NA,NA,NA,1,0.33224,NA,NA,F_Lure_13.bmp,0,0,1
29,1,97,NA,NA,NA,2,0.34721,NA,NA,S_Lure_97.bmp,0,1,3
30,1,93,NA,NA,NA,1,0.33868,NA,NA,O_Lure_93.bmp,0,0,2
31,1,71,NA,NA,NA,1,0.38996,NA,NA,O_Image_71.bmp,1,1,2
32,1,10,NA,NA,NA,1,0.39556,NA,NA,F_Lure_10.bmp,0,1,1
33,1,99,NA,NA,NA,2,0.49406,NA,NA,S_Image_99.bmp,2,0,3
34,1,143,NA,NA,NA,2,0.60793,NA,NA,S_Image_143.bmp,1,0,3
35,1,139,NA,NA,NA,1,0.32266,NA,NA,S_Lure_139.bmp,0,1,3
36,1,30,NA,NA,NA,1,0.39578,NA,NA,F_Image_30.bmp,1,0,1
37,1,93,NA,NA,NA,1,0.28064,NA,NA,O_Image_93.bmp,2,0,2
38,1,101,NA,NA,NA,1,0.5241,NA,NA,S_Image_101.bmp,1,1,3
39,1,81,NA,NA,NA,1,0.40336,NA,NA,O_Lure_81.bmp,0,0,2
40,1,121,NA,NA,NA,1,0.36534,NA,NA,S_Lure_121.bmp,0,1,3
41,1,23,NA,NA,NA,2,0.48911,NA,NA,F_Lure_23.bmp,0,1,1
42,1,81,NA,NA,NA,1,0.39189,NA,NA,O_Image_81.bmp,2,0,2
43,1,103,NA,NA,NA,1,0.51946,NA,NA,S_Image_103.bmp,2,0,3
44,1,47,NA,NA,NA,1,0.30824,NA,NA,F_Image_47.bmp,2,0,1
45,1,49,NA,NA,NA,1,0.34867,NA,NA,O_Lure_49.bmp,0,0,2
46,1,71,NA,NA,NA,1,0.54036,NA,NA,O_Lure_71.bmp,0,1,2
47,1,47,NA,NA,NA,1,0.36207,NA,NA,F_Lure_47.bmp,0,0,1
48,1,111,NA,NA,NA,1,0.38316,NA,NA,S_Lure_111.bmp,0,1,3
49,1,61,NA,NA,NA,1,0.3332,NA,NA,O_Lure_61.bmp,0,0,2
50,1,125,NA,NA,NA,1,0.40325,NA,NA,S_Lure_125.bmp,0,1,3
51,1,63,NA,NA,NA,1,0.33077,NA,NA,O_Lure_63.bmp,0,1,2
52,1,110,NA,NA,NA,2,0.36865,NA,NA,S_Image_110.bmp,1,0,3
53,1,96,NA,NA,NA,1,0.50334,NA,NA,O_Lure_96.bmp,0,1,2
54,1,40,NA,NA,NA,2,0.31756,NA,NA,F_Image_40.bmp,1,0,1
55,1,133,NA,NA,NA,2,0.33408,NA,NA,S_Image_133.bmp,1,0,3
56,1,141,NA,NA,NA,1,0.71706,NA,NA,S_Lure_141.bmp,0,0,3
57,1,15,NA,NA,NA,2,0.31368,NA,NA,F_Lure_15.bmp,0,0,1
58,1,46,NA,NA,NA,2,0.39146,NA,NA,F_Image_46.bmp,1,0,1
59,1,19,NA,NA,NA,2,0.29602,NA,NA,F_Image_19.bmp,2,0,1
60,1,60,NA,NA,NA,1,0.3315,NA,NA,O_Image_60.bmp,1,0,2
61,1,5,NA,NA,NA,1,0.34759,NA,NA,F_Image_5.bmp,1,1,1
62,1,128,NA,NA,NA,2,0.36225,NA,NA,S_Image_128.bmp,1,0,3
63,1,2,NA,NA,NA,1,0.30721,NA,NA,F_Lure_2.bmp,0,0,1
64,1,34,NA,NA,NA,2,0.42741,NA,NA,F_Lure_34.bmp,0,1,1
65,1,107,NA,NA,NA,1,0.37053,NA,NA,S_Lure_107.bmp,0,1,3
66,1,91,NA,NA,NA,1,0.34455,NA,NA,O_Lure_91.bmp,0,0,2
67,1,67,NA,NA,NA,1,0.47123,NA,NA,O_Image_67.bmp,1,1,2
68,1,68,NA,NA,NA,1,0.29491,NA,NA,O_Lure_68.bmp,0,0,2
69,1,9,NA,NA,NA,1,0.33137,NA,NA,F_Lure_9.bmp,0,1,1
70,1,54,NA,NA,NA,1,0.44571,NA,NA,O_Lure_54.bmp,0,0,2
71,1,10,NA,NA,NA,1,0.36153,NA,NA,F_Image_10.bmp,2,1,1
72,1,51,NA,NA,NA,1,0.40447,NA,NA,O_Image_51.bmp,2,0,2
73,1,64,NA,NA,NA,1,0.38743,NA,NA,O_Lure_64.bmp,0,0,2
74,1,135,NA,NA,NA,2,0.30095,NA,NA,S_Image_135.bmp,1,1,3
75,1,113,NA,NA,NA,1,0.34004,NA,NA,S_Lure_113.bmp,0,1,3
76,1,39,NA,NA,NA,2,0.63359,NA,NA,F_Image_39.bmp,1,1,1
77,1,3,NA,NA,NA,2,0.65452,NA,NA,F_Lure_3.bmp,0,1,1
78,1,139,NA,NA,NA,1,0.37155,NA,NA,S_Image_139.bmp,1,1,3
79,1,119,NA,NA,NA,1,0.41619,NA,NA,S_Image_119.bmp,1,0,3
80,1,28,NA,NA,NA,2,0.43275,NA,NA,F_Lure_28.bmp,0,1,1
81,1,70,NA,NA,NA,1,0.39715,NA,NA,O_Lure_70.bmp,0,0,2
82,1,86,NA,NA,NA,1,0.3354,NA,NA,O_Lure_86.bmp,0,0,2
83,1,55,NA,NA,NA,1,0.34833,NA,NA,O_Lure_55.bmp,0,0,2
84,1,76,NA,NA,NA,1,0.31705,NA,NA,O_Lure_76.bmp,0,1,2
85,1,32,NA,NA,NA,2,0.28464,NA,NA,F_Image_32.bmp,1,0,1
86,1,105,NA,NA,NA,2,0.47949,NA,NA,S_Lure_105.bmp,0,1,3
87,1,6,NA,NA,NA,1,0.35293,NA,NA,F_Image_6.bmp,2,1,1
88,1,17,NA,NA,NA,1,0.2802,NA,NA,F_Image_17.bmp,1,1,1
89,1,132,NA,NA,NA,2,0.28967,NA,NA,S_Image_132.bmp,2,1,3
90,1,122,NA,NA,NA,2,0.27039,NA,NA,S_Image_122.bmp,1,0,3
91,1,118,NA,NA,NA,1,0.2571,NA,NA,S_Image_118.bmp,1,0,3
92,1,55,NA,NA,NA,1,0.27386,NA,NA,O_Image_55.bmp,2,0,2
93,1,48,NA,NA,NA,1,0.32235,NA,NA,F_Lure_48.bmp,0,1,1
94,1,140,NA,NA,NA,1,0.31462,NA,NA,S_Lure_140.bmp,0,0,3
95,1,79,NA,NA,NA,1,0.34282,NA,NA,O_Lure_79.bmp,0,0,2
96,1,125,NA,NA,NA,1,0.82339,NA,NA,S_Image_125.bmp,1,1,3
97,1,120,NA,NA,NA,2,0.36853,NA,NA,S_Lure_120.bmp,0,0,3
98,1,142,NA,NA,NA,2,0.50781,NA,NA,S_Image_142.bmp,2,0,3
99,1,111,NA,NA,NA,1,0.3924,NA,NA,S_Image_111.bmp,2,1,3
100,1,87,NA,NA,NA,1,0.27517,NA,NA,O_Lure_87.bmp,0,1,2
101,1,42,NA,NA,NA,2,0.39481,NA,NA,F_Image_42.bmp,2,1,1
102,1,68,NA,NA,NA,1,0.29672,NA,NA,O_Image_68.bmp,1,0,2
103,1,132,NA,NA,NA,2,0.29317,NA,NA,S_Lure_132.bmp,0,1,3
104,1,136,NA,NA,NA,2,0.33896,NA,NA,S_Lure_136.bmp,0,1,3
105,1,56,NA,NA,NA,1,0.27578,NA,NA,O_Image_56.bmp,2,0,2
106,1,144,NA,NA,NA,1,0.25214,NA,NA,S_Image_144.bmp,1,0,3
107,1,44,NA,NA,NA,1,0.26068,NA,NA,F_Image_44.bmp,1,0,1
108,1,20,NA,NA,NA,2,0.39188,NA,NA,F_Image_20.bmp,2,0,1
109,1,72,NA,NA,NA,1,0.61444,NA,NA,O_Lure_72.bmp,0,1,2
110,1,128,NA,NA,NA,2,0.33843,NA,NA,S_Lure_128.bmp,0,0,3
111,1,123,NA,NA,NA,2,0.33231,NA,NA,S_Lure_123.bmp,0,1,3
112,1,57,NA,NA,NA,1,0.3375,NA,NA,O_Image_57.bmp,2,0,2
113,1,95,NA,NA,NA,1,0.36269,NA,NA,O_Lure_95.bmp,0,0,2
114,1,52,NA,NA,NA,1,0.29914,NA,NA,O_Lure_52.bmp,0,1,2
115,1,138,NA,NA,NA,1,0.44207,NA,NA,S_Image_138.bmp,2,0,3
116,1,114,NA,NA,NA,1,0.28259,NA,NA,S_Image_114.bmp,1,1,3
117,1,76,NA,NA,NA,1,0.25715,NA,NA,O_Image_76.bmp,1,1,2
118,1,87,NA,NA,NA,1,0.30969,NA,NA,O_Image_87.bmp,1,1,2
119,1,59,NA,NA,NA,1,0.1676,NA,NA,O_Lure_59.bmp,0,0,2
120,1,72,NA,NA,NA,1,0.29949,NA,NA,O_Image_72.bmp,1,1,2
121,1,14,NA,NA,NA,1,0.339,NA,NA,F_Image_14.bmp,2,1,1
122,1,109,NA,NA,NA,1,0.39229,NA,NA,S_Image_109.bmp,2,1,3
123,1,94,NA,NA,NA,1,0.28288,NA,NA,O_Image_94.bmp,1,1,2
124,1,67,NA,NA,NA,1,0.28429,NA,NA,O_Lure_67.bmp,0,1,2
125,1,1,NA,NA,NA,1,0.30533,NA,NA,F_Lure_1.bmp,0,0,1
126,1,58,NA,NA,NA,1,0.5139,NA,NA,O_Image_58.bmp,1,0,2
127,1,138,NA,NA,NA,1,0.26338,NA,NA,S_Lure_138.bmp,0,0,3
128,1,8,NA,NA,NA,2,0.28041,NA,NA,F_Image_8.bmp,1,0,1
129,1,24,NA,NA,NA,1,0.30841,NA,NA,F_Image_24.bmp,1,0,1
130,1,75,NA,NA,NA,1,0.31727,NA,NA,O_Lure_75.bmp,0,0,2
131,1,136,NA,NA,NA,1,0.23583,NA,NA,S_Image_136.bmp,1,1,3
132,1,50,NA,NA,NA,2,0.33278,NA,NA,O_Lure_50.bmp,0,1,2
133,1,34,NA,NA,NA,1,0.32453,NA,NA,F_Image_34.bmp,2,1,1
134,1,5,NA,NA,NA,1,0.35606,NA,NA,F_Lure_5.bmp,0,1,1
135,1,91,NA,NA,NA,1,0.29831,NA,NA,O_Image_91.bmp,2,0,2
136,1,14,NA,NA,NA,1,0.26335,NA,NA,F_Lure_14.bmp,0,1,1
137,1,36,NA,NA,NA,2,0.30603,NA,NA,F_Lure_36.bmp,0,1,1
138,1,46,NA,NA,NA,2,0.41531,NA,NA,F_Lure_46.bmp,0,0,1
139,1,127,NA,NA,NA,1,0.36722,NA,NA,S_Image_127.bmp,2,0,3
140,1,127,NA,NA,NA,1,0.29402,NA,NA,S_Lure_127.bmp,0,0,3
141,1,38,NA,NA,NA,1,0.27828,NA,NA,F_Lure_38.bmp,0,0,1
142,1,31,NA,NA,NA,1,0.63527,NA,NA,F_Image_31.bmp,1,1,1
143,1,60,NA,NA,NA,1,0.36459,NA,NA,O_Lure_60.bmp,0,0,2
144,1,44,NA,NA,NA,1,0.28929,NA,NA,F_Lure_44.bmp,0,0,1
145,1,135,NA,NA,NA,1,0.37662,NA,NA,S_Lure_135.bmp,0,1,3
146,1,77,NA,NA,NA,1,0.25967,NA,NA,O_Image_77.bmp,1,1,2
147,1,89,NA,NA,NA,1,0.26456,NA,NA,O_Lure_89.bmp,0,1,2
148,1,4,NA,NA,NA,1,0.2875,NA,NA,F_Image_4.bmp,1,1,1
149,1,12,NA,NA,NA,2,0.23029,NA,NA,F_Lure_12.bmp,0,1,1
150,1,117,NA,NA,NA,2,0.42181,NA,NA,S_Image_117.bmp,2,0,3
151,1,95,NA,NA,NA,1,0.40474,NA,NA,O_Image_95.bmp,2,0,2
152,1,62,NA,NA,NA,1,0.30339,NA,NA,O_Lure_62.bmp,0,1,2
153,1,84,NA,NA,NA,1,0.31086,NA,NA,O_Lure_84.bmp,0,1,2
154,1,11,NA,NA,NA,1,0.27652,NA,NA,F_Lure_11.bmp,0,0,1
155,1,126,NA,NA,NA,2,0.50405,NA,NA,S_Image_126.bmp,1,1,3
156,1,22,NA,NA,NA,2,0.41403,NA,NA,F_Image_22.bmp,1,1,1
157,1,100,NA,NA,NA,2,0.56104,NA,NA,S_Image_100.bmp,1,1,3
158,1,122,NA,NA,NA,2,0.31811,NA,NA,S_Lure_122.bmp,0,0,3
159,1,133,NA,NA,NA,2,0.35933,NA,NA,S_Lure_133.bmp,0,0,3
160,1,64,NA,NA,NA,1,0.24144,NA,NA,O_Image_64.bmp,2,0,2
161,1,115,NA,NA,NA,2,0.55426,NA,NA,S_Image_115.bmp,2,0,3
162,1,36,NA,NA,NA,2,0.26046,NA,NA,F_Image_36.bmp,2,1,1
163,1,7,NA,NA,NA,1,0.28368,NA,NA,F_Image_7.bmp,1,0,1
164,1,35,NA,NA,NA,2,0.3346,NA,NA,F_Lure_35.bmp,0,0,1
165,1,120,NA,NA,NA,2,0.26543,NA,NA,S_Image_120.bmp,2,0,3
166,1,107,NA,NA,NA,1,0.27873,NA,NA,S_Image_107.bmp,2,1,3
167,1,42,NA,NA,NA,2,0.30538,NA,NA,F_Lure_42.bmp,0,1,1
168,1,92,NA,NA,NA,1,0.016765,NA,NA,O_Image_92.bmp,1,1,2
169,1,12,NA,NA,NA,1,0.33938,NA,NA,F_Image_12.bmp,2,1,1
170,1,90,NA,NA,NA,1,0.33056,NA,NA,O_Lure_90.bmp,0,1,2
171,1,96,NA,NA,NA,1,0.68668,NA,NA,O_Image_96.bmp,2,1,2
172,1,134,NA,NA,NA,2,0.44846,NA,NA,S_Lure_134.bmp,0,0,3
173,1,98,NA,NA,NA,2,0.26479,NA,NA,S_Image_98.bmp,2,0,3
174,1,109,NA,NA,NA,1,0.19295,NA,NA,S_Lure_109.bmp,0,1,3
175,1,114,NA,NA,NA,1,0.2577,NA,NA,S_Lure_114.bmp,0,1,3
176,1,54,NA,NA,NA,1,0.27644,NA,NA,O_Image_54.bmp,1,0,2
177,1,17,NA,NA,NA,1,0.24805,NA,NA,F_Lure_17.bmp,0,1,1
178,1,51,NA,NA,NA,1,0.52977,NA,NA,O_Lure_51.bmp,0,0,2
179,1,73,NA,NA,NA,1,0.42929,NA,NA,O_Lure_73.bmp,0,1,2
180,1,29,NA,NA,NA,1,0.23809,NA,NA,F_Lure_29.bmp,0,1,1
181,1,21,NA,NA,NA,1,0.2718,NA,NA,F_Lure_21.bmp,0,0,1
182,1,130,NA,NA,NA,2,0.35704,NA,NA,S_Image_130.bmp,1,1,3
183,1,48,NA,NA,NA,1,0.22795,NA,NA,F_Image_48.bmp,2,1,1
184,1,126,NA,NA,NA,2,0.22184,NA,NA,S_Lure_126.bmp,0,1,3
185,1,18,NA,NA,NA,1,0.2774,NA,NA,F_Image_18.bmp,1,0,1
186,1,7,NA,NA,NA,1,0.36631,NA,NA,F_Lure_7.bmp,0,0,1
187,1,130,NA,NA,NA,2,0.23206,NA,NA,S_Lure_130.bmp,0,1,3
188,1,39,NA,NA,NA,2,0.21782,NA,NA,F_Lure_39.bmp,0,1,1
189,1,31,NA,NA,NA,1,0.2585,NA,NA,F_Lure_31.bmp,0,1,1
190,1,32,NA,NA,NA,1,0.21796,NA,NA,F_Lure_32.bmp,0,0,1
191,1,37,NA,NA,NA,2,0.15918,NA,NA,F_Lure_37.bmp,0,1,1
192,1,103,NA,NA,NA,1,0.41965,NA,NA,S_Lure_103.bmp,0,0,3
193,1,15,NA,NA,NA,1,0.32491,NA,NA,F_Image_15.bmp,1,0,1
194,1,49,NA,NA,NA,1,0.24781,NA,NA,O_Image_49.bmp,1,0,2
195,1,69,NA,NA,NA,1,0.29348,NA,NA,O_Image_69.bmp,1,1,2
196,1,28,NA,NA,NA,2,0.20648,NA,NA,F_Image_28.bmp,1,1,1
197,1,98,NA,NA,NA,1,0.31736,NA,NA,S_Lure_98.bmp,0,0,3
198,1,117,NA,NA,NA,2,0.29574,NA,NA,S_Lure_117.bmp,0,0,3
199,1,144,NA,NA,NA,1,0.24805,NA,NA,S_Lure_144.bmp,0,0,3
200,1,66,NA,NA,NA,1,0.26781,NA,NA,O_Lure_66.bmp,0,0,2
201,1,65,NA,NA,NA,1,0.22816,NA,NA,O_Image_65.bmp,2,1,2
202,1,97,NA,NA,NA,2,0.25356,NA,NA,S_Image_97.bmp,2,1,3
203,1,80,NA,NA,NA,2,0.31167,NA,NA,O_Lure_80.bmp,0,0,2
204,1,118,NA,NA,NA,1,0.26302,NA,NA,S_Lure_118.bmp,0,0,3
205,1,43,NA,NA,NA,1,0.25808,NA,NA,F_Image_43.bmp,2,1,1
206,1,108,NA,NA,NA,1,0.30661,NA,NA,S_Image_108.bmp,1,0,3
207,1,41,NA,NA,NA,2,0.28422,NA,NA,F_Lure_41.bmp,0,1,1
208,1,100,NA,NA,NA,2,0.56118,NA,NA,S_Lure_100.bmp,0,1,3
209,1,94,NA,NA,NA,1,0.2709,NA,NA,O_Lure_94.bmp,0,1,2
210,1,106,NA,NA,NA,2,0.37266,NA,NA,S_Lure_106.bmp,0,1,3
211,1,6,NA,NA,NA,1,0.29587,NA,NA,F_Lure_6.bmp,0,1,1
212,1,119,NA,NA,NA,1,0.30198,NA,NA,S_Lure_119.bmp,0,0,3
213,1,78,NA,NA,NA,1,0.60408,NA,NA,O_Lure_78.bmp,0,1,2
214,1,134,NA,NA,NA,2,0.29397,NA,NA,S_Image_134.bmp,2,0,3
215,1,108,NA,NA,NA,1,0.40301,NA,NA,S_Lure_108.bmp,0,0,3
216,1,82,NA,NA,NA,1,0.254,NA,NA,O_Image_82.bmp,2,1,2
217,1,53,NA,NA,NA,1,0.16267,NA,NA,O_Image_53.bmp,1,1,2
218,1,77,NA,NA,NA,1,0.27947,NA,NA,O_Lure_77.bmp,0,1,2
219,1,129,NA,NA,NA,2,0.25206,NA,NA,S_Image_129.bmp,2,1,3
220,1,58,NA,NA,NA,1,0.25013,NA,NA,O_Lure_58.bmp,0,0,2
221,1,62,NA,NA,NA,1,0.25862,NA,NA,O_Image_62.bmp,1,1,2
222,1,129,NA,NA,NA,2,0.25936,NA,NA,S_Lure_129.bmp,0,1,3
223,1,88,NA,NA,NA,1,0.15054,NA,NA,O_Image_88.bmp,2,0,2
224,1,23,NA,NA,NA,2,0.25973,NA,NA,F_Image_23.bmp,2,1,1
225,1,56,NA,NA,NA,1,0.29599,NA,NA,O_Lure_56.bmp,0,0,2
226,1,92,NA,NA,NA,1,0.25787,NA,NA,O_Lure_92.bmp,0,1,2
227,1,19,NA,NA,NA,2,0.00018161,NA,NA,F_Lure_19.bmp,0,0,1
228,1,24,NA,NA,NA,1,0.33634,NA,NA,F_Lure_24.bmp,0,0,1
229,1,83,NA,NA,NA,1,0.69657,NA,NA,O_Lure_83.bmp,0,1,2
230,1,73,NA,NA,NA,1,0.45625,NA,NA,O_Image_73.bmp,1,1,2
231,1,59,NA,NA,NA,1,0.28731,NA,NA,O_Image_59.bmp,2,0,2
232,1,84,NA,NA,NA,1,0.25369,NA,NA,O_Image_84.bmp,1,1,2
233,1,18,NA,NA,NA,1,0.33957,NA,NA,F_Lure_18.bmp,0,0,1
234,1,57,NA,NA,NA,1,0.32417,NA,NA,O_Lure_57.bmp,0,0,2
235,1,82,NA,NA,NA,1,0.22637,NA,NA,O_Lure_82.bmp,0,1,2
236,1,40,NA,NA,NA,2,0.46845,NA,NA,F_Lure_40.bmp,0,0,1
237,1,137,NA,NA,NA,1,0.27106,NA,NA,S_Image_137.bmp,1,1,3
238,1,137,NA,NA,NA,1,1.4905,NA,NA,S_Lure_137.bmp,0,1,3
239,1,89,NA,NA,NA,1,0.32286,NA,NA,O_Image_89.bmp,1,1,2
240,1,142,NA,NA,NA,2,0.30556,NA,NA,S_Lure_142.bmp,0,0,3
241,1,29,NA,NA,NA,1,0.25007,NA,NA,F_Image_29.bmp,2,1,1
242,1,85,NA,NA,NA,1,0.297,NA,NA,O_Lure_85.bmp,0,1,2
243,1,80,NA,NA,NA,1,0.24964,NA,NA,O_Image_80.bmp,1,0,2
244,1,33,NA,NA,NA,1,0.22544,NA,NA,F_Lure_33.bmp,0,0,1
245,1,16,NA,NA,NA,1,0.24313,NA,NA,F_Lure_16.bmp,0,1,1
246,1,104,NA,NA,NA,2,0.27411,NA,NA,S_Image_104.bmp,1,1,3
247,1,115,NA,NA,NA,1,0.29378,NA,NA,S_Lure_115.bmp,0,0,3
248,1,9,NA,NA,NA,1,0.25819,NA,NA,F_Image_9.bmp,2,1,1
249,1,13,NA,NA,NA,1,0.22783,NA,NA,F_Image_13.bmp,1,0,1
250,1,41,NA,NA,NA,2,0.26056,NA,NA,F_Image_41.bmp,2,1,1
251,1,112,NA,NA,NA,1,0.27289,NA,NA,S_Lure_112.bmp,0,0,3
252,1,131,NA,NA,NA,1,0.30978,NA,NA,S_Lure_131.bmp,0,0,3
253,1,104,NA,NA,NA,1,0.22625,NA,NA,S_Lure_104.bmp,0,1,3
254,1,123,NA,NA,NA,1,0.2284,NA,NA,S_Image_123.bmp,2,1,3
255,1,113,NA,NA,NA,1,0.29578,NA,NA,S_Image_113.bmp,2,1,3
256,1,38,NA,NA,NA,1,0.26297,NA,NA,F_Image_38.bmp,1,0,1
257,1,20,NA,NA,NA,2,0.23802,NA,NA,F_Lure_20.bmp,0,0,1
258,1,143,NA,NA,NA,2,0.3517,NA,NA,S_Lure_143.bmp,0,0,3
259,1,74,NA,NA,NA,1,0.26125,NA,NA,O_Image_74.bmp,2,0,2
260,1,35,NA,NA,NA,2,0.32448,NA,NA,F_Image_35.bmp,2,0,1
261,1,124,NA,NA,NA,1,0.30178,NA,NA,S_Lure_124.bmp,0,1,3
262,1,75,NA,NA,NA,1,0.32374,NA,NA,O_Image_75.bmp,2,0,2
263,1,106,NA,NA,NA,1,0.25018,NA,NA,S_Image_106.bmp,1,1,3
264,1,90,NA,NA,NA,1,0.23129,NA,NA,O_Image_90.bmp,2,1,2
265,1,88,NA,NA,NA,1,0.25895,NA,NA,O_Lure_88.bmp,0,0,2
266,1,124,NA,NA,NA,1,0.28471,NA,NA,S_Image_124.bmp,2,1,3
267,1,27,NA,NA,NA,1,0.29015,NA,NA,F_Lure_27.bmp,0,0,1
268,1,8,NA,NA,NA,2,0.28015,NA,NA,F_Lure_8.bmp,0,0,1
269,1,141,NA,NA,NA,1,0.24254,NA,NA,S_Image_141.bmp,1,0,3
270,1,112,NA,NA,NA,1,0.26617,NA,NA,S_Image_112.bmp,1,0,3
271,1,50,NA,NA,NA,1,0.31409,NA,NA,O_Image_50.bmp,1,1,2
272,1,1,NA,NA,NA,1,0.24063,NA,NA,F_Image_1.bmp,1,0,1
273,1,3,NA,NA,NA,2,0.31373,NA,NA,F_Image_3.bmp,2,1,1
274,1,74,NA,NA,NA,1,0.28638,NA,NA,O_Lure_74.bmp,0,0,2
275,1,16,NA,NA,NA,1,0.2587,NA,NA,F_Image_16.bmp,2,1,1
276,1,110,NA,NA,NA,2,0.36482,NA,NA,S_Lure_110.bmp,0,0,3
277,1,45,NA,NA,NA,2,0.27019,NA,NA,F_Image_45.bmp,2,0,1
278,1,69,NA,NA,NA,1,0.31553,NA,NA,O_Lure_69.bmp,0,1,2
279,1,53,NA,NA,NA,1,0.16767,NA,NA,O_Lure_53.bmp,0,1,2
280,1,43,NA,NA,NA,1,0.27485,NA,NA,F_Lure_43.bmp,0,1,1
281,1,116,NA,NA,NA,1,0.23203,NA,NA,S_Image_116.bmp,2,1,3
282,1,25,NA,NA,NA,1,0.27961,NA,NA,F_Lure_25.bmp,0,1,1
283,1,22,NA,NA,NA,2,0.24955,NA,NA,F_Lure_22.bmp,0,1,1
284,1,131,NA,NA,NA,2,0.40898,NA,NA,S_Image_131.bmp,2,0,3
285,1,27,NA,NA,NA,1,0.24413,NA,NA,F_Image_27.bmp,1,0,1
286,1,140,NA,NA,NA,1,0.28671,NA,NA,S_Image_140.bmp,1,0,3
287,1,11,NA,NA,NA,1,0.28289,NA,NA,F_Image_11.bmp,1,0,1
288,1,83,NA,NA,NA,1,0.27667,NA,NA,O_Image_83.bmp,2,1,2
289,2,126,sweat,1,2,2,1.7252,1,NA,S_Image_126.bmp-S_Lure_126.bmp,1,1,3
290,2,89,witch,1,2,2,0.77127,1,NA,O_Image_89.bmp-O_Lure_89.bmp,1,1,2
291,2,130,galaxy,1,2,2,1.7038,1,NA,S_Image_130.bmp-S_Lure_130.bmp,1,1,3
292,2,11,army,1,1,1,0.80641,1,NA,F_Image_11.bmp-F_Lure_11.bmp,1,0,1
293,2,101,board,1,1,1,0.97422,1,NA,S_Image_101.bmp-S_Lure_101.bmp,1,1,3
294,2,118,drizzle,1,1,1,0.96154,1,NA,S_Image_118.bmp-S_Lure_118.bmp,1,0,3
295,2,76,rust,1,2,2,0.71789,1,NA,O_Image_76.bmp-O_Lure_76.bmp,1,1,2
296,2,7,slope,1,1,1,0.67421,1,NA,F_Image_7.bmp-F_Lure_7.bmp,1,0,1
297,2,84,angel,1,1,1,0.54782,1,NA,O_Image_84.bmp-O_Lure_84.bmp,1,1,2
298,2,108,fire,1,2,2,0.6666,1,NA,S_Image_108.bmp-S_Lure_108.bmp,1,0,3
299,2,143,triangle,1,2,2,0.61158,1,NA,S_Image_143.bmp-S_Lure_143.bmp,1,0,3
300,2,104,arch,1,1,1,0.71292,1,NA,S_Image_104.bmp-S_Lure_104.bmp,1,1,3
301,2,53,menu,1,2,2,1.0071,1,NA,O_Image_53.bmp-O_Lure_53.bmp,1,1,2
302,2,144,yellow,1,1,1,1.0572,1,NA,S_Image_144.bmp-S_Lure_144.bmp,1,0,3
303,2,30,sand,1,2,2,0.78094,1,NA,F_Image_30.bmp-F_Lure_30.bmp,1,0,1
304,2,17,lever,1,1,1,1.4009,1,NA,F_Image_17.bmp-F_Lure_17.bmp,1,1,1
305,2,100,laundry,1,1,1,0.77304,1,NA,S_Image_100.bmp-S_Lure_100.bmp,1,1,3
306,2,68,poison,1,1,1,0.536,1,NA,O_Image_68.bmp-O_Lure_68.bmp,1,0,2
307,2,62,fuel,1,1,1,0.89378,1,NA,O_Image_62.bmp-O_Lure_62.bmp,1,1,2
308,2,54,money,1,1,1,0.98063,1,NA,O_Image_54.bmp-O_Lure_54.bmp,1,0,2
309,2,140,vegetable,1,2,2,1.2335,1,NA,S_Image_140.bmp-S_Lure_140.bmp,1,0,3
310,2,125,alien,1,2,2,0.97529,1,NA,S_Image_125.bmp-S_Lure_125.bmp,1,1,3
311,2,73,stem,1,2,1,0.68592,0,NA,O_Image_73.bmp-O_Lure_73.bmp,1,1,2
312,2,133,ghost,1,2,2,0.65548,1,NA,S_Image_133.bmp-S_Lure_133.bmp,1,0,3
313,3,104,arch,1,1,1,0.62767,1,NA,S_Image_104.bmp-S_Lure_104.bmp,1,1,3
314,3,17,lever,1,1,1,0.82114,1,NA,F_Image_17.bmp-F_Lure_17.bmp,1,1,1
315,3,143,triangle,1,1,1,0.76816,1,NA,S_Image_143.bmp-S_Lure_143.bmp,1,0,3
316,3,133,ghost,1,2,2,0.59397,1,NA,S_Image_133.bmp-S_Lure_133.bmp,1,0,3
317,3,73,stem,1,2,1,0.56469,0,NA,O_Image_73.bmp-O_Lure_73.bmp,1,1,2
318,3,53,menu,1,2,2,0.97833,1,NA,O_Image_53.bmp-O_Lure_53.bmp,1,1,2
319,3,7,slope,1,2,2,0.60253,1,NA,F_Image_7.bmp-F_Lure_7.bmp,1,0,1
320,3,11,army,1,2,2,0.69226,1,NA,F_Image_11.bmp-F_Lure_11.bmp,1,0,1
321,3,125,alien,1,2,2,1.044,1,NA,S_Image_125.bmp-S_Lure_125.bmp,1,1,3
322,3,89,witch,1,2,2,0.96989,1,NA,O_Image_89.bmp-O_Lure_89.bmp,1,1,2
323,3,144,yellow,1,2,2,1.0848,1,NA,S_Image_144.bmp-S_Lure_144.bmp,1,0,3
324,3,76,rust,1,2,2,0.61092,1,NA,O_Image_76.bmp-O_Lure_76.bmp,1,1,2
325,3,84,angel,1,1,1,0.53464,1,NA,O_Image_84.bmp-O_Lure_84.bmp,1,1,2
326,3,130,galaxy,1,1,1,1.3924,1,NA,S_Image_130.bmp-S_Lure_130.bmp,1,1,3
327,3,140,vegetable,1,1,1,0.77767,1,NA,S_Image_140.bmp-S_Lure_140.bmp,1,0,3
328,3,126,sweat,1,2,2,0.62683,1,NA,S_Image_126.bmp-S_Lure_126.bmp,1,1,3
329,3,68,poison,1,1,1,0.51078,1,NA,O_Image_68.bmp-O_Lure_68.bmp,1,0,2
330,3,30,sand,1,2,2,0.53685,1,NA,F_Image_30.bmp-F_Lure_30.bmp,1,0,1
331,3,62,fuel,1,1,1,0.52213,1,NA,O_Image_62.bmp-O_Lure_62.bmp,1,1,2
332,3,100,laundry,1,2,2,0.80653,1,NA,S_Image_100.bmp-S_Lure_100.bmp,1,1,3
333,3,54,money,1,2,2,0.76011,1,NA,O_Image_54.bmp-O_Lure_54.bmp,1,0,2
334,3,118,drizzle,1,2,2,1.396,1,NA,S_Image_118.bmp-S_Lure_118.bmp,1,0,3
335,3,108,fire,1,2,2,0.63773,1,NA,S_Image_108.bmp-S_Lure_108.bmp,1,0,3
336,3,101,board,1,1,1,0.75414,1,NA,S_Image_101.bmp-S_Lure_101.bmp,1,1,3
337,2,110,spike,2,1,1,0.76035,1,NA,S_Image_110.bmp-S_Lure_110.bmp,1,0,3
338,2,50,marble,2,2,2,0.80194,1,NA,O_Image_50.bmp-O_Lure_50.bmp,1,1,2
339,2,15,rock,2,2,2,0.77516,1,NA,F_Image_15.bmp-F_Lure_15.bmp,1,0,1
340,2,112,corpse,2,1,1,0.7348,1,NA,S_Image_112.bmp-S_Lure_112.bmp,1,0,3
341,2,137,seed,2,1,1,0.83344,1,NA,S_Image_137.bmp-S_Lure_137.bmp,1,1,3
342,2,31,shell,2,2,2,0.9929,1,NA,F_Image_31.bmp-F_Lure_31.bmp,1,1,1
343,2,4,signal,2,1,1,0.64781,1,NA,F_Image_4.bmp-F_Lure_4.bmp,1,1,1
344,2,139,alcohol,2,2,2,0.80198,1,NA,S_Image_139.bmp-S_Lure_139.bmp,1,1,3
345,2,32,wreck,2,2,2,0.5773,1,NA,F_Image_32.bmp-F_Lure_32.bmp,1,0,1
346,2,122,quake,2,1,1,0.5883,1,NA,S_Image_122.bmp-S_Lure_122.bmp,1,0,3
347,2,8,steam,2,1,1,0.54669,1,NA,F_Image_8.bmp-F_Lure_8.bmp,1,0,1
348,2,71,water,2,1,1,0.98942,1,NA,O_Image_71.bmp-O_Lure_71.bmp,1,1,2
349,2,119,bubble,2,1,1,0.70425,1,NA,S_Image_119.bmp-S_Lure_119.bmp,1,0,3
350,2,58,tube,2,1,1,0.7166,1,NA,O_Image_58.bmp-O_Lure_58.bmp,1,0,2
351,2,28,hostage,2,2,2,0.5981,1,NA,F_Image_28.bmp-F_Lure_28.bmp,1,1,1
352,2,60,wool,2,2,2,0.657,1,NA,O_Image_60.bmp-O_Lure_60.bmp,1,0,2
353,2,87,crumb,2,2,2,0.67143,1,NA,O_Image_87.bmp-O_Lure_87.bmp,1,1,2
354,2,106,tail,2,1,1,0.74369,1,NA,S_Image_106.bmp-S_Lure_106.bmp,1,1,3
355,2,92,asphalt,2,1,1,0.5562,1,NA,O_Image_92.bmp-O_Lure_92.bmp,1,1,2
356,2,135,attack,2,1,1,0.57075,1,NA,S_Image_135.bmp-S_Lure_135.bmp,1,1,3
357,2,24,tear,2,1,1,0.85151,1,NA,F_Image_24.bmp-F_Lure_24.bmp,1,0,1
358,2,79,black,2,2,2,0.5153,1,NA,O_Image_79.bmp-O_Lure_79.bmp,1,0,2
359,2,13,sunshine,2,2,2,0.61356,1,NA,F_Image_13.bmp-F_Lure_13.bmp,1,0,1
360,2,22,breakfast,2,1,2,0.70704,0,NA,F_Image_22.bmp-F_Lure_22.bmp,1,1,1
361,3,13,sunshine,2,2,2,0.52044,1,NA,F_Image_13.bmp-F_Lure_13.bmp,1,0,1
362,3,119,bubble,2,1,1,0.62948,1,NA,S_Image_119.bmp-S_Lure_119.bmp,1,0,3
363,3,24,tear,2,1,1,0.59847,1,NA,F_Image_24.bmp-F_Lure_24.bmp,1,0,1
364,3,32,wreck,2,1,1,0.58114,1,NA,F_Image_32.bmp-F_Lure_32.bmp,1,0,1
365,3,137,seed,2,1,1,0.7026,1,NA,S_Image_137.bmp-S_Lure_137.bmp,1,1,3
366,3,135,attack,2,2,2,0.52248,1,NA,S_Image_135.bmp-S_Lure_135.bmp,1,1,3
367,3,122,quake,2,1,1,0.53733,1,NA,S_Image_122.bmp-S_Lure_122.bmp,1,0,3
368,3,110,spike,2,1,1,0.54956,1,NA,S_Image_110.bmp-S_Lure_110.bmp,1,0,3
369,3,79,black,2,1,1,0.50053,1,NA,O_Image_79.bmp-O_Lure_79.bmp,1,0,2
370,3,22,breakfast,2,1,2,0.60864,0,NA,F_Image_22.bmp-F_Lure_22.bmp,1,1,1
371,3,58,tube,2,2,2,0.96595,1,NA,O_Image_58.bmp-O_Lure_58.bmp,1,0,2
372,3,50,marble,2,1,1,0.75006,1,NA,O_Image_50.bmp-O_Lure_50.bmp,1,1,2
373,3,92,asphalt,2,2,2,0.51775,1,NA,O_Image_92.bmp-O_Lure_92.bmp,1,1,2
374,3,4,signal,2,1,1,0.73209,1,NA,F_Image_4.bmp-F_Lure_4.bmp,1,1,1
375,3,60,wool,2,2,2,0.54975,1,NA,O_Image_60.bmp-O_Lure_60.bmp,1,0,2
376,3,15,rock,2,2,2,0.79139,1,NA,F_Image_15.bmp-F_Lure_15.bmp,1,0,1
377,3,28,hostage,2,1,1,0.81586,1,NA,F_Image_28.bmp-F_Lure_28.bmp,1,1,1
378,3,139,alcohol,2,1,1,0.79579,1,NA,S_Image_139.bmp-S_Lure_139.bmp,1,1,3
379,3,112,corpse,2,1,1,0.59203,1,NA,S_Image_112.bmp-S_Lure_112.bmp,1,0,3
380,3,106,tail,2,2,2,0.94448,1,NA,S_Image_106.bmp-S_Lure_106.bmp,1,1,3
381,3,87,crumb,2,1,1,0.50311,1,NA,O_Image_87.bmp-O_Lure_87.bmp,1,1,2
382,3,71,water,2,2,2,0.64608,1,NA,O_Image_71.bmp-O_Lure_71.bmp,1,1,2
383,3,8,steam,2,2,2,0.55445,1,NA,F_Image_8.bmp-F_Lure_8.bmp,1,0,1
384,3,31,shell,2,1,1,0.83687,1,NA,F_Image_31.bmp-F_Lure_31.bmp,1,1,1
385,2,44,honeymoon,3,1,1,0.73926,1,NA,F_Image_44.bmp-F_Lure_44.bmp,1,0,1
386,2,136,snow,3,1,1,0.81791,1,NA,S_Image_136.bmp-S_Lure_136.bmp,1,1,3
387,2,39,giant,3,1,1,0.56211,1,NA,F_Image_39.bmp-F_Lure_39.bmp,1,1,1
388,2,67,animal,3,2,2,0.58433,1,NA,O_Image_67.bmp-O_Lure_67.bmp,1,1,2
389,2,66,cloud,3,1,1,0.51763,1,NA,O_Image_66.bmp-O_Lure_66.bmp,1,0,2
390,2,26,harem,3,2,2,0.71721,1,NA,F_Image_26.bmp-F_Lure_26.bmp,1,0,1
391,2,141,costume,3,2,2,0.63075,1,NA,S_Image_141.bmp-S_Lure_141.bmp,1,0,3
392,2,114,kiss,3,1,1,0.75534,1,NA,S_Image_114.bmp-S_Lure_114.bmp,1,1,3
393,2,77,corner,3,2,2,0.46375,1,NA,O_Image_77.bmp-O_Lure_77.bmp,1,1,2
394,2,37,wound,3,2,1,1.1451,0,NA,F_Image_37.bmp-F_Lure_37.bmp,1,1,1
395,2,38,orchestra,3,2,2,0.77269,1,NA,F_Image_38.bmp-F_Lure_38.bmp,1,0,1
396,2,72,magnet,3,2,2,0.49468,1,NA,O_Image_72.bmp-O_Lure_72.bmp,1,1,2
397,2,1,hurricane,3,2,2,0.7804,1,NA,F_Image_1.bmp-F_Lure_1.bmp,1,0,1
398,2,46,scar,3,2,1,1.5162,0,NA,F_Image_46.bmp-F_Lure_46.bmp,1,0,1
399,2,52,arrow,3,1,1,0.50683,1,NA,O_Image_52.bmp-O_Lure_52.bmp,1,1,2
400,2,18,cone,3,1,1,0.81932,1,NA,F_Image_18.bmp-F_Lure_18.bmp,1,0,1
401,2,49,shadow,3,2,2,0.58885,1,NA,O_Image_49.bmp-O_Lure_49.bmp,1,0,2
402,2,128,tourist,3,2,2,0.76564,1,NA,S_Image_128.bmp-S_Lure_128.bmp,1,0,3
403,2,5,stripe,3,2,2,0.57348,1,NA,F_Image_5.bmp-F_Lure_5.bmp,1,1,1
404,2,69,paper,3,2,1,0.76408,0,NA,O_Image_69.bmp-O_Lure_69.bmp,1,1,2
405,2,80,measles,3,1,1,0.60476,1,NA,O_Image_80.bmp-O_Lure_80.bmp,1,0,2
406,2,94,spray,3,2,2,0.82511,1,NA,O_Image_94.bmp-O_Lure_94.bmp,1,1,2
407,2,40,antique,3,2,2,0.60817,1,NA,F_Image_40.bmp-F_Lure_40.bmp,1,0,1
408,2,27,flood,3,2,2,0.6235,1,NA,F_Image_27.bmp-F_Lure_27.bmp,1,0,1
409,3,37,wound,3,2,2,0.75291,1,NA,F_Image_37.bmp-F_Lure_37.bmp,1,1,1
410,3,46,scar,3,2,2,0.81061,1,NA,F_Image_46.bmp-F_Lure_46.bmp,1,0,1
411,3,52,arrow,3,2,2,0.46153,1,NA,O_Image_52.bmp-O_Lure_52.bmp,1,1,2
412,3,67,animal,3,1,1,0.48741,1,NA,O_Image_67.bmp-O_Lure_67.bmp,1,1,2
413,3,26,harem,3,2,2,0.85248,1,NA,F_Image_26.bmp-F_Lure_26.bmp,1,0,1
414,3,94,spray,3,2,2,0.63941,1,NA,O_Image_94.bmp-O_Lure_94.bmp,1,1,2
415,3,128,tourist,3,1,1,0.64473,1,NA,S_Image_128.bmp-S_Lure_128.bmp,1,0,3
416,3,141,costume,3,1,1,0.7316,1,NA,S_Image_141.bmp-S_Lure_141.bmp,1,0,3
417,3,136,snow,3,1,1,0.86036,1,NA,S_Image_136.bmp-S_Lure_136.bmp,1,1,3
418,3,44,honeymoon,3,2,2,0.89413,1,NA,F_Image_44.bmp-F_Lure_44.bmp,1,0,1
419,3,38,orchestra,3,1,1,0.67086,1,NA,F_Image_38.bmp-F_Lure_38.bmp,1,0,1
420,3,5,stripe,3,2,2,0.57202,1,NA,F_Image_5.bmp-F_Lure_5.bmp,1,1,1
421,3,69,paper,3,1,1,0.92737,1,NA,O_Image_69.bmp-O_Lure_69.bmp,1,1,2
422,3,40,antique,3,1,1,0.69709,1,NA,F_Image_40.bmp-F_Lure_40.bmp,1,0,1
423,3,49,shadow,3,2,2,0.45578,1,NA,O_Image_49.bmp-O_Lure_49.bmp,1,0,2
424,3,80,measles,3,2,2,0.559,1,NA,O_Image_80.bmp-O_Lure_80.bmp,1,0,2
425,3,114,kiss,3,2,2,0.73341,1,NA,S_Image_114.bmp-S_Lure_114.bmp,1,1,3
426,3,39,giant,3,2,2,0.6525,1,NA,F_Image_39.bmp-F_Lure_39.bmp,1,1,1
427,3,1,hurricane,3,1,1,0.57292,1,NA,F_Image_1.bmp-F_Lure_1.bmp,1,0,1
428,3,27,flood,3,1,2,1.172,0,NA,F_Image_27.bmp-F_Lure_27.bmp,1,0,1
429,3,77,corner,3,1,1,0.58988,1,NA,O_Image_77.bmp-O_Lure_77.bmp,1,1,2
430,3,66,cloud,3,2,2,0.50202,1,NA,O_Image_66.bmp-O_Lure_66.bmp,1,0,2
431,3,18,cone,3,2,2,0.7719,1,NA,F_Image_18.bmp-F_Lure_18.bmp,1,0,1
432,3,72,magnet,3,1,1,0.50816,1,NA,O_Image_72.bmp-O_Lure_72.bmp,1,1,2
433,4,6,water,1,2,2,0.54719,1,NA,F_Image_6.bmp-F_Lure_6.bmp,2,1,1
434,4,111,shell,1,1,1,0.56066,1,NA,S_Image_111.bmp-S_Lure_111.bmp,2,1,3
435,4,63,breakfast,1,2,2,0.61205,1,NA,O_Image_63.bmp-O_Lure_63.bmp,2,1,2
436,4,113,crumb,1,2,2,0.61844,1,NA,S_Image_113.bmp-S_Lure_113.bmp,2,1,3
437,4,129,stripe,1,1,1,0.80258,1,NA,S_Image_129.bmp-S_Lure_129.bmp,2,1,3
438,4,83,arch,1,2,2,0.49761,1,NA,O_Image_83.bmp-O_Lure_83.bmp,2,1,2
439,4,88,tourist,1,2,2,0.75633,1,NA,O_Image_88.bmp-O_Lure_88.bmp,2,0,2
440,4,90,signal,1,1,1,0.53969,1,NA,O_Image_90.bmp-O_Lure_90.bmp,2,1,2
441,4,134,honeymoon,1,2,2,1.4873,1,NA,S_Image_134.bmp-S_Lure_134.bmp,2,0,3
442,4,20,poison,1,1,1,0.64114,1,NA,F_Image_20.bmp-F_Lure_20.bmp,2,0,1
443,4,81,harem,1,2,2,0.46975,1,NA,O_Image_81.bmp-O_Lure_81.bmp,2,0,2
444,4,99,antique,1,2,2,0.59821,1,NA,S_Image_99.bmp-S_Lure_99.bmp,2,0,3
445,4,9,rust,1,2,2,0.84309,1,NA,F_Image_9.bmp-F_Lure_9.bmp,2,1,1
446,4,56,quake,1,1,1,0.56542,1,NA,O_Image_56.bmp-O_Lure_56.bmp,2,0,2
447,4,131,scar,1,1,1,0.65725,1,NA,S_Image_131.bmp-S_Lure_131.bmp,2,0,3
448,4,78,lever,1,1,1,0.71038,1,NA,O_Image_78.bmp-O_Lure_78.bmp,2,1,2
449,4,47,ghost,1,1,1,0.61056,1,NA,F_Image_47.bmp-F_Lure_47.bmp,2,0,1
450,4,96,snow,1,2,2,0.47925,1,NA,O_Image_96.bmp-O_Lure_96.bmp,2,1,2
451,4,117,tear,1,1,1,0.87613,1,NA,S_Image_117.bmp-S_Lure_117.bmp,2,0,3
452,4,57,corpse,1,1,1,1.0064,1,NA,O_Image_57.bmp-O_Lure_57.bmp,2,0,2
453,4,107,fuel,1,2,1,0.85738,0,NA,S_Image_107.bmp-S_Lure_107.bmp,2,1,3
454,4,23,paper,1,2,2,0.60912,1,NA,F_Image_23.bmp-F_Lure_23.bmp,2,1,1
455,4,82,seed,1,1,1,0.59115,1,NA,O_Image_82.bmp-O_Lure_82.bmp,2,1,2
456,4,43,board,1,1,1,0.93423,1,NA,F_Image_43.bmp-F_Lure_43.bmp,2,1,1
457,4,3,angel,2,2,2,0.66048,1,NA,F_Image_3.bmp-F_Lure_3.bmp,2,1,1
458,4,48,sweat,2,2,2,0.54433,1,NA,F_Image_48.bmp-F_Lure_48.bmp,2,1,1
459,4,55,wreck,2,1,1,0.71345,1,NA,O_Image_55.bmp-O_Lure_55.bmp,2,0,2
460,4,25,alcohol,2,2,2,0.70105,1,NA,F_Image_25.bmp-F_Lure_25.bmp,2,1,1
461,4,35,shadow,2,1,1,0.49983,1,NA,F_Image_35.bmp-F_Lure_35.bmp,2,0,1
462,4,41,tail,2,2,2,0.59694,1,NA,F_Image_41.bmp-F_Lure_41.bmp,2,1,1
463,4,123,asphalt,2,2,2,0.75732,1,NA,S_Image_123.bmp-S_Lure_123.bmp,2,1,3
464,4,121,corner,2,2,2,0.7442,1,NA,S_Image_121.bmp-S_Lure_121.bmp,2,1,3
465,4,120,money,2,1,1,0.62634,1,NA,S_Image_120.bmp-S_Lure_120.bmp,2,0,3
466,4,59,costume,2,2,2,0.57544,1,NA,O_Image_59.bmp-O_Lure_59.bmp,2,0,2
467,4,45,wool,2,1,1,0.66795,1,NA,F_Image_45.bmp-F_Lure_45.bmp,2,0,1
468,4,127,army,2,1,1,0.64324,1,NA,S_Image_127.bmp-S_Lure_127.bmp,2,0,3
469,4,103,rock,2,1,1,0.77517,1,NA,S_Image_103.bmp-S_Lure_103.bmp,2,0,3
470,4,51,bubble,2,1,1,0.6213,1,NA,O_Image_51.bmp-O_Lure_51.bmp,2,0,2
471,4,16,galaxy,2,2,2,0.76241,1,NA,F_Image_16.bmp-F_Lure_16.bmp,2,1,1
472,4,132,giant,2,1,1,0.5411,1,NA,S_Image_132.bmp-S_Lure_132.bmp,2,1,3
473,4,74,orchestra,2,1,1,0.53268,1,NA,O_Image_74.bmp-O_Lure_74.bmp,2,0,2
474,4,97,hostage,2,1,1,0.61625,1,NA,S_Image_97.bmp-S_Lure_97.bmp,2,1,3
475,4,65,kiss,2,2,2,0.64721,1,NA,O_Image_65.bmp-O_Lure_65.bmp,2,1,2
476,4,75,vegetable,2,1,1,0.49411,1,NA,O_Image_75.bmp-O_Lure_75.bmp,2,0,2
477,4,19,yellow,2,1,1,0.59019,1,NA,F_Image_19.bmp-F_Lure_19.bmp,2,0,1
478,4,42,alien,2,2,2,0.64888,1,NA,F_Image_42.bmp-F_Lure_42.bmp,2,1,1
479,4,85,wound,2,2,2,0.50635,1,NA,O_Image_85.bmp-O_Lure_85.bmp,2,1,2
480,4,61,steam,2,1,1,0.54141,1,NA,O_Image_61.bmp-O_Lure_61.bmp,2,0,2
481,4,115,cloud,3,2,2,0.8436,1,NA,S_Image_115.bmp-S_Lure_115.bmp,2,0,3
482,4,2,fire,3,2,2,0.56178,1,NA,F_Image_2.bmp-F_Lure_2.bmp,2,0,1
483,4,124,animal,3,1,1,0.73662,1,NA,S_Image_124.bmp-S_Lure_124.bmp,2,1,3
484,4,142,flood,3,2,1,0.88555,0,NA,S_Image_142.bmp-S_Lure_142.bmp,2,0,3
485,4,10,arrow,3,1,1,0.77341,1,NA,F_Image_10.bmp-F_Lure_10.bmp,2,1,1
486,4,109,spray,3,1,1,0.59709,1,NA,S_Image_109.bmp-S_Lure_109.bmp,2,1,3
487,4,36,stem,3,2,2,0.81022,1,NA,F_Image_36.bmp-F_Lure_36.bmp,2,1,1
488,4,116,marble,3,1,1,0.61242,1,NA,S_Image_116.bmp-S_Lure_116.bmp,2,1,3
489,4,138,sunshine,3,2,2,0.64446,1,NA,S_Image_138.bmp-S_Lure_138.bmp,2,0,3
490,4,93,spike,3,1,1,0.68107,1,NA,O_Image_93.bmp-O_Lure_93.bmp,2,0,2
491,4,14,laundry,3,2,2,0.61756,1,NA,F_Image_14.bmp-F_Lure_14.bmp,2,1,1
492,4,91,slope,3,1,1,0.47397,1,NA,O_Image_91.bmp-O_Lure_91.bmp,2,0,2
493,4,86,triangle,3,1,1,0.43745,1,NA,O_Image_86.bmp-O_Lure_86.bmp,2,0,2
494,4,12,menu,3,1,1,0.56597,1,NA,F_Image_12.bmp-F_Lure_12.bmp,2,1,1
495,4,98,hurricane,3,2,2,0.67258,1,NA,S_Image_98.bmp-S_Lure_98.bmp,2,0,3
496,4,21,measles,3,2,2,0.47183,1,NA,F_Image_21.bmp-F_Lure_21.bmp,2,0,1
497,4,70,drizzle,3,2,2,0.50445,1,NA,O_Image_70.bmp-O_Lure_70.bmp,2,0,2
498,4,102,tube,3,2,2,0.56092,1,NA,S_Image_102.bmp-S_Lure_102.bmp,2,0,3
499,4,33,black,3,1,1,0.64917,1,NA,F_Image_33.bmp-F_Lure_33.bmp,2,0,1
500,4,105,magnet,3,2,2,0.93841,1,NA,S_Image_105.bmp-S_Lure_105.bmp,2,1,3
501,4,64,cone,3,1,1,0.57423,1,NA,O_Image_64.bmp-O_Lure_64.bmp,2,0,2
502,4,34,witch,3,1,2,0.74932,0,NA,F_Image_34.bmp-F_Lure_34.bmp,2,1,1
503,4,95,sand,3,1,1,0.69522,1,NA,O_Image_95.bmp-O_Lure_95.bmp,2,0,2
504,4,29,attack,3,2,2,0.77793,1,NA,F_Image_29.bmp-F_Lure_29.bmp,2,1,1
