Trial,Cond,ImageNum,Cue,Block,Correct,Response,RT,Accuracy,CueRep,fName,ImageType,Baseline,Category
1,1,143,NA,NA,NA,2,0.91707,NA,NA,S_Image_143.bmp,2,1,3
2,1,74,NA,NA,NA,1,1.6741,NA,NA,O_Image_74.bmp,1,1,2
3,1,72,NA,NA,NA,1,0.83292,NA,NA,O_Image_72.bmp,2,0,2
4,1,36,NA,NA,NA,2,0.40762,NA,NA,F_Image_36.bmp,2,1,1
5,1,91,NA,NA,NA,1,0.06702,NA,NA,O_Lure_91.bmp,0,1,2
6,1,76,NA,NA,NA,1,0.79804,NA,NA,O_Lure_76.bmp,0,0,2
7,1,20,NA,NA,NA,1,0.60042,NA,NA,F_Image_20.bmp,2,0,1
8,1,25,NA,NA,NA,1,0.45104,NA,NA,F_Lure_25.bmp,0,0,1
9,1,135,NA,NA,NA,2,2.4258,NA,NA,S_Image_135.bmp,2,1,3
10,1,82,NA,NA,NA,1,0.00020452,NA,NA,O_Image_82.bmp,2,0,2
11,1,40,NA,NA,NA,1,0.00041554,NA,NA,F_Lure_40.bmp,0,0,1
12,1,44,NA,NA,NA,1,0.12743,NA,NA,F_Image_44.bmp,2,0,1
13,1,12,NA,NA,NA,2,0.059571,NA,NA,F_Lure_12.bmp,0,1,1
14,1,31,NA,NA,NA,1,0.47482,NA,NA,F_Image_31.bmp,2,0,1
15,1,52,NA,NA,NA,1,0.52087,NA,NA,O_Lure_52.bmp,0,0,2
16,1,104,NA,NA,NA,2,0.27959,NA,NA,S_Image_104.bmp,1,1,3
17,1,56,NA,NA,NA,1,0.28955,NA,NA,O_Lure_56.bmp,0,0,2
18,1,132,NA,NA,NA,2,0.00021612,NA,NA,S_Lure_132.bmp,0,1,3
19,1,123,NA,NA,NA,1,0.20741,NA,NA,S_Image_123.bmp,1,0,3
20,1,94,NA,NA,NA,1,0.63144,NA,NA,O_Image_94.bmp,2,1,2
21,1,103,NA,NA,NA,1,0.00019664,NA,NA,S_Lure_103.bmp,0,0,3
22,1,75,NA,NA,NA,1,0.2827,NA,NA,O_Image_75.bmp,2,1,2
23,1,97,NA,NA,NA,1,2.0932,NA,NA,S_Image_97.bmp,2,1,3
24,1,81,NA,NA,NA,1,0.37785,NA,NA,O_Lure_81.bmp,0,0,2
25,1,71,NA,NA,NA,1,0.5531,NA,NA,O_Image_71.bmp,2,0,2
26,1,89,NA,NA,NA,1,0.53863,NA,NA,O_Image_89.bmp,2,0,2
27,1,75,NA,NA,NA,1,0.084571,NA,NA,O_Lure_75.bmp,0,1,2
28,1,82,NA,NA,NA,1,0.00019988,NA,NA,O_Lure_82.bmp,0,0,2
29,1,14,NA,NA,NA,1,0.30475,NA,NA,F_Image_14.bmp,1,1,1
30,1,135,NA,NA,NA,1,0.44932,NA,NA,S_Lure_135.bmp,0,1,3
31,1,13,NA,NA,NA,1,0.94206,NA,NA,F_Lure_13.bmp,0,0,1
32,1,12,NA,NA,NA,1,0.00018365,NA,NA,F_Image_12.bmp,1,1,1
33,1,54,NA,NA,NA,1,0.00024394,NA,NA,O_Image_54.bmp,2,0,2
34,1,90,NA,NA,NA,1,0.29692,NA,NA,O_Lure_90.bmp,0,1,2
35,1,140,NA,NA,NA,1,0.31764,NA,NA,S_Image_140.bmp,2,1,3
36,1,104,NA,NA,NA,2,0.42316,NA,NA,S_Lure_104.bmp,0,1,3
37,1,107,NA,NA,NA,1,0.63426,NA,NA,S_Image_107.bmp,2,1,3
38,1,60,NA,NA,NA,1,0.37207,NA,NA,O_Lure_60.bmp,0,0,2
39,1,138,NA,NA,NA,1,0.38014,NA,NA,S_Image_138.bmp,2,0,3
40,1,47,NA,NA,NA,1,0.40156,NA,NA,F_Lure_47.bmp,0,1,1
41,1,49,NA,NA,NA,1,0.6022,NA,NA,O_Lure_49.bmp,0,1,2
42,1,105,NA,NA,NA,2,0.66021,NA,NA,S_Lure_105.bmp,0,1,3
43,1,78,NA,NA,NA,1,0.47709,NA,NA,O_Lure_78.bmp,0,0,2
44,1,119,NA,NA,NA,1,0.47661,NA,NA,S_Lure_119.bmp,0,0,3
45,1,102,NA,NA,NA,2,0.49526,NA,NA,S_Lure_102.bmp,0,0,3
46,1,43,NA,NA,NA,1,0.48142,NA,NA,F_Lure_43.bmp,0,0,1
47,1,121,NA,NA,NA,2,0.27324,NA,NA,S_Lure_121.bmp,0,0,3
48,1,41,NA,NA,NA,2,0.40469,NA,NA,F_Lure_41.bmp,0,1,1
49,1,26,NA,NA,NA,1,0.41876,NA,NA,F_Lure_26.bmp,0,1,1
50,1,137,NA,NA,NA,1,0.49282,NA,NA,S_Lure_137.bmp,0,0,3
51,1,125,NA,NA,NA,1,0.31612,NA,NA,S_Lure_125.bmp,0,0,3
52,1,108,NA,NA,NA,2,0.45339,NA,NA,S_Lure_108.bmp,0,1,3
53,1,11,NA,NA,NA,1,0.38355,NA,NA,F_Lure_11.bmp,0,0,1
54,1,119,NA,NA,NA,1,0.15751,NA,NA,S_Image_119.bmp,1,0,3
55,1,53,NA,NA,NA,1,0.31279,NA,NA,O_Lure_53.bmp,0,0,2
56,1,60,NA,NA,NA,1,0.31515,NA,NA,O_Image_60.bmp,1,0,2
57,1,140,NA,NA,NA,1,0.38891,NA,NA,S_Lure_140.bmp,0,1,3
58,1,19,NA,NA,NA,2,0.47258,NA,NA,F_Image_19.bmp,2,0,1
59,1,133,NA,NA,NA,2,0.49342,NA,NA,S_Lure_133.bmp,0,0,3
60,1,4,NA,NA,NA,1,0.36334,NA,NA,F_Lure_4.bmp,0,1,1
61,1,21,NA,NA,NA,1,0.46116,NA,NA,F_Lure_21.bmp,0,0,1
62,1,110,NA,NA,NA,2,0.00017716,NA,NA,S_Image_110.bmp,1,0,3
63,1,143,NA,NA,NA,2,0.016397,NA,NA,S_Lure_143.bmp,0,1,3
64,1,36,NA,NA,NA,1,0.27156,NA,NA,F_Lure_36.bmp,0,1,1
65,1,3,NA,NA,NA,2,0.00020684,NA,NA,F_Lure_3.bmp,0,1,1
66,1,136,NA,NA,NA,1,0.056743,NA,NA,S_Image_136.bmp,1,0,3
67,1,47,NA,NA,NA,1,0.11181,NA,NA,F_Image_47.bmp,2,1,1
68,1,79,NA,NA,NA,1,0.49944,NA,NA,O_Lure_79.bmp,0,0,2
69,1,24,NA,NA,NA,1,0.091897,NA,NA,F_Image_24.bmp,1,0,1
70,1,99,NA,NA,NA,2,0.33715,NA,NA,S_Lure_99.bmp,0,0,3
71,1,126,NA,NA,NA,2,0.41257,NA,NA,S_Image_126.bmp,2,1,3
72,1,40,NA,NA,NA,1,0.43793,NA,NA,F_Image_40.bmp,1,0,1
73,1,70,NA,NA,NA,1,0.34841,NA,NA,O_Lure_70.bmp,0,0,2
74,1,125,NA,NA,NA,1,0.078972,NA,NA,S_Image_125.bmp,2,0,3
75,1,120,NA,NA,NA,2,0.46539,NA,NA,S_Lure_120.bmp,0,1,3
76,1,32,NA,NA,NA,1,0.0002407,NA,NA,F_Lure_32.bmp,0,1,1
77,1,39,NA,NA,NA,2,0.086214,NA,NA,F_Image_39.bmp,1,1,1
78,1,16,NA,NA,NA,1,0.30715,NA,NA,F_Image_16.bmp,1,1,1
79,1,93,NA,NA,NA,1,0.21207,NA,NA,O_Lure_93.bmp,0,1,2
80,1,14,NA,NA,NA,1,0.21613,NA,NA,F_Lure_14.bmp,0,1,1
81,1,39,NA,NA,NA,2,0.41196,NA,NA,F_Lure_39.bmp,0,1,1
82,1,129,NA,NA,NA,2,0.2087,NA,NA,S_Lure_129.bmp,0,1,3
83,1,23,NA,NA,NA,1,0.13284,NA,NA,F_Lure_23.bmp,0,0,1
84,1,6,NA,NA,NA,1,0.4864,NA,NA,F_Image_6.bmp,2,0,1
85,1,110,NA,NA,NA,2,0.95665,NA,NA,S_Lure_110.bmp,0,0,3
86,1,10,NA,NA,NA,1,5.0773,NA,NA,F_Image_10.bmp,1,1,1
87,1,89,NA,NA,NA,1,0.63724,NA,NA,O_Lure_89.bmp,0,0,2
88,1,48,NA,NA,NA,1,0.44566,NA,NA,F_Image_48.bmp,1,0,1
89,1,144,NA,NA,NA,1,0.12167,NA,NA,S_Image_144.bmp,2,0,3
90,1,121,NA,NA,NA,2,0.32472,NA,NA,S_Image_121.bmp,1,0,3
91,1,92,NA,NA,NA,1,0.00017252,NA,NA,O_Image_92.bmp,2,1,2
92,1,101,NA,NA,NA,2,0.67834,NA,NA,S_Image_101.bmp,2,1,3
93,1,116,NA,NA,NA,1,0.47209,NA,NA,S_Lure_116.bmp,0,1,3
94,1,20,NA,NA,NA,1,0.36318,NA,NA,F_Lure_20.bmp,0,0,1
95,1,41,NA,NA,NA,2,0.27398,NA,NA,F_Image_41.bmp,2,1,1
96,1,28,NA,NA,NA,2,0.50613,NA,NA,F_Image_28.bmp,2,1,1
97,1,126,NA,NA,NA,2,0.55458,NA,NA,S_Lure_126.bmp,0,1,3
98,1,136,NA,NA,NA,2,0.19109,NA,NA,S_Lure_136.bmp,0,0,3
99,1,61,NA,NA,NA,1,0.34606,NA,NA,O_Lure_61.bmp,0,0,2
100,1,77,NA,NA,NA,1,0.59991,NA,NA,O_Image_77.bmp,2,0,2
101,1,95,NA,NA,NA,1,0.36228,NA,NA,O_Lure_95.bmp,0,0,2
102,1,30,NA,NA,NA,1,0.33337,NA,NA,F_Lure_30.bmp,0,1,1
103,1,13,NA,NA,NA,1,0.37032,NA,NA,F_Image_13.bmp,2,0,1
104,1,141,NA,NA,NA,1,0.29536,NA,NA,S_Lure_141.bmp,0,0,3
105,1,134,NA,NA,NA,2,0.70106,NA,NA,S_Lure_134.bmp,0,1,3
106,1,80,NA,NA,NA,1,0.43863,NA,NA,O_Image_80.bmp,1,0,2
107,1,116,NA,NA,NA,1,0.50518,NA,NA,S_Image_116.bmp,1,1,3
108,1,141,NA,NA,NA,1,0.37018,NA,NA,S_Image_141.bmp,1,0,3
109,1,35,NA,NA,NA,2,0.34616,NA,NA,F_Image_35.bmp,2,0,1
110,1,51,NA,NA,NA,1,0.43394,NA,NA,O_Image_51.bmp,1,1,2
111,1,117,NA,NA,NA,2,0.44624,NA,NA,S_Image_117.bmp,1,1,3
112,1,8,NA,NA,NA,1,0.38413,NA,NA,F_Image_8.bmp,1,1,1
113,1,113,NA,NA,NA,1,0.037865,NA,NA,S_Lure_113.bmp,0,0,3
114,1,79,NA,NA,NA,1,0.13523,NA,NA,O_Image_79.bmp,1,0,2
115,1,46,NA,NA,NA,2,0.49435,NA,NA,F_Lure_46.bmp,0,1,1
116,1,32,NA,NA,NA,1,0.37897,NA,NA,F_Image_32.bmp,1,1,1
117,1,44,NA,NA,NA,1,0.41076,NA,NA,F_Lure_44.bmp,0,0,1
118,1,111,NA,NA,NA,2,0.89337,NA,NA,S_Image_111.bmp,2,0,3
119,1,51,NA,NA,NA,1,0.28982,NA,NA,O_Lure_51.bmp,0,1,2
120,1,53,NA,NA,NA,1,0.33219,NA,NA,O_Image_53.bmp,1,0,2
121,1,28,NA,NA,NA,2,0.45082,NA,NA,F_Lure_28.bmp,0,1,1
122,1,87,NA,NA,NA,1,0.00016928,NA,NA,O_Image_87.bmp,1,0,2
123,1,26,NA,NA,NA,1,0.26524,NA,NA,F_Image_26.bmp,1,1,1
124,1,109,NA,NA,NA,1,0.38286,NA,NA,S_Image_109.bmp,2,1,3
125,1,61,NA,NA,NA,1,0.38027,NA,NA,O_Image_61.bmp,2,0,2
126,1,86,NA,NA,NA,1,0.29986,NA,NA,O_Image_86.bmp,1,1,2
127,1,127,NA,NA,NA,1,0.46031,NA,NA,S_Lure_127.bmp,0,0,3
128,1,109,NA,NA,NA,1,0.3508,NA,NA,S_Lure_109.bmp,0,1,3
129,1,88,NA,NA,NA,1,0.29941,NA,NA,O_Lure_88.bmp,0,1,2
130,1,129,NA,NA,NA,1,0.4789,NA,NA,S_Image_129.bmp,2,1,3
131,1,95,NA,NA,NA,1,0.67522,NA,NA,O_Image_95.bmp,1,0,2
132,1,15,NA,NA,NA,2,0.50862,NA,NA,F_Image_15.bmp,1,1,1
133,1,65,NA,NA,NA,1,0.47622,NA,NA,O_Lure_65.bmp,0,1,2
134,1,120,NA,NA,NA,2,0.50457,NA,NA,S_Image_120.bmp,1,1,3
135,1,6,NA,NA,NA,1,0.31322,NA,NA,F_Lure_6.bmp,0,0,1
136,1,100,NA,NA,NA,2,0.41355,NA,NA,S_Image_100.bmp,2,0,3
137,1,73,NA,NA,NA,1,0.39109,NA,NA,O_Lure_73.bmp,0,1,2
138,1,118,NA,NA,NA,1,0.37538,NA,NA,S_Image_118.bmp,1,0,3
139,1,112,NA,NA,NA,1,1.1156,NA,NA,S_Lure_112.bmp,0,1,3
140,1,52,NA,NA,NA,1,0.31287,NA,NA,O_Image_52.bmp,1,0,2
141,1,46,NA,NA,NA,2,0.59859,NA,NA,F_Image_46.bmp,1,1,1
142,1,64,NA,NA,NA,1,1.0703,NA,NA,O_Lure_64.bmp,0,0,2
143,1,91,NA,NA,NA,1,0.32063,NA,NA,O_Image_91.bmp,2,1,2
144,1,85,NA,NA,NA,1,0.34137,NA,NA,O_Image_85.bmp,1,1,2
145,1,114,NA,NA,NA,1,1.2312,NA,NA,S_Image_114.bmp,1,0,3
146,1,18,NA,NA,NA,1,0.00018412,NA,NA,F_Lure_18.bmp,0,0,1
147,1,127,NA,NA,NA,1,0.37294,NA,NA,S_Image_127.bmp,1,0,3
148,1,42,NA,NA,NA,1,0.14579,NA,NA,F_Image_42.bmp,2,0,1
149,1,34,NA,NA,NA,1,0.16237,NA,NA,F_Image_34.bmp,2,1,1
150,1,102,NA,NA,NA,2,0.52565,NA,NA,S_Image_102.bmp,1,0,3
151,1,84,NA,NA,NA,1,0.34804,NA,NA,O_Lure_84.bmp,0,0,2
152,1,74,NA,NA,NA,1,0.38009,NA,NA,O_Lure_74.bmp,0,1,2
153,1,2,NA,NA,NA,1,1.7686,NA,NA,F_Lure_2.bmp,0,1,1
154,1,106,NA,NA,NA,1,0.60827,NA,NA,S_Lure_106.bmp,0,0,3
155,1,133,NA,NA,NA,2,0.4606,NA,NA,S_Image_133.bmp,2,0,3
156,1,68,NA,NA,NA,1,0.00023559,NA,NA,O_Image_68.bmp,2,1,2
157,1,124,NA,NA,NA,2,1.2603,NA,NA,S_Image_124.bmp,1,0,3
158,1,87,NA,NA,NA,1,0.32607,NA,NA,O_Lure_87.bmp,0,0,2
159,1,19,NA,NA,NA,1,0.29249,NA,NA,F_Lure_19.bmp,0,0,1
160,1,29,NA,NA,NA,1,0.35669,NA,NA,F_Image_29.bmp,2,1,1
161,1,96,NA,NA,NA,1,0.30017,NA,NA,O_Image_96.bmp,1,1,2
162,1,111,NA,NA,NA,1,0.26631,NA,NA,S_Lure_111.bmp,0,0,3
163,1,59,NA,NA,NA,1,0.30118,NA,NA,O_Lure_59.bmp,0,1,2
164,1,33,NA,NA,NA,1,0.37725,NA,NA,F_Image_33.bmp,1,0,1
165,1,37,NA,NA,NA,1,0.31978,NA,NA,F_Lure_37.bmp,0,1,1
166,1,22,NA,NA,NA,2,0.39914,NA,NA,F_Lure_22.bmp,0,0,1
167,1,35,NA,NA,NA,2,0.38291,NA,NA,F_Lure_35.bmp,0,0,1
168,1,138,NA,NA,NA,1,0.28279,NA,NA,S_Lure_138.bmp,0,0,3
169,1,50,NA,NA,NA,1,0.39567,NA,NA,O_Image_50.bmp,1,1,2
170,1,27,NA,NA,NA,1,0.75396,NA,NA,F_Image_27.bmp,1,1,1
171,1,128,NA,NA,NA,1,0.37993,NA,NA,S_Lure_128.bmp,0,0,3
172,1,45,NA,NA,NA,2,0.35166,NA,NA,F_Image_45.bmp,2,1,1
173,1,131,NA,NA,NA,2,2.4954,NA,NA,S_Lure_131.bmp,0,1,3
174,1,122,NA,NA,NA,2,0.47282,NA,NA,S_Image_122.bmp,1,1,3
175,1,3,NA,NA,NA,2,0.16948,NA,NA,F_Image_3.bmp,2,1,1
176,1,27,NA,NA,NA,1,0.7636,NA,NA,F_Lure_27.bmp,0,1,1
177,1,58,NA,NA,NA,1,2.0006,NA,NA,O_Image_58.bmp,1,1,2
178,1,99,NA,NA,NA,2,0.39765,NA,NA,S_Image_99.bmp,1,0,3
179,1,72,NA,NA,NA,1,0.2917,NA,NA,O_Lure_72.bmp,0,0,2
180,1,17,NA,NA,NA,1,0.58264,NA,NA,F_Image_17.bmp,2,1,1
181,1,22,NA,NA,NA,2,0.83262,NA,NA,F_Image_22.bmp,2,0,1
182,1,50,NA,NA,NA,1,0.41609,NA,NA,O_Lure_50.bmp,0,1,2
183,1,70,NA,NA,NA,1,0.85369,NA,NA,O_Image_70.bmp,2,0,2
184,1,8,NA,NA,NA,1,0.37385,NA,NA,F_Lure_8.bmp,0,1,1
185,1,100,NA,NA,NA,2,0.0001869,NA,NA,S_Lure_100.bmp,0,0,3
186,1,131,NA,NA,NA,1,0.47198,NA,NA,S_Image_131.bmp,2,1,3
187,1,84,NA,NA,NA,1,0.37805,NA,NA,O_Image_84.bmp,2,0,2
188,1,130,NA,NA,NA,2,0.60871,NA,NA,S_Image_130.bmp,1,1,3
189,1,2,NA,NA,NA,1,0.3282,NA,NA,F_Image_2.bmp,2,1,1
190,1,57,NA,NA,NA,1,0.18635,NA,NA,O_Image_57.bmp,1,1,2
191,1,55,NA,NA,NA,1,0.00023049,NA,NA,O_Lure_55.bmp,0,0,2
192,1,1,NA,NA,NA,1,0.44037,NA,NA,F_Image_1.bmp,2,1,1
193,1,11,NA,NA,NA,1,1.1424,NA,NA,F_Image_11.bmp,1,0,1
194,1,9,NA,NA,NA,1,0.44642,NA,NA,F_Image_9.bmp,1,1,1
195,1,71,NA,NA,NA,1,0.29953,NA,NA,O_Lure_71.bmp,0,0,2
196,1,83,NA,NA,NA,1,0.34601,NA,NA,O_Lure_83.bmp,0,1,2
197,1,17,NA,NA,NA,1,0.31121,NA,NA,F_Lure_17.bmp,0,1,1
198,1,57,NA,NA,NA,1,0.43837,NA,NA,O_Lure_57.bmp,0,1,2
199,1,103,NA,NA,NA,1,0.40012,NA,NA,S_Image_103.bmp,2,0,3
200,1,113,NA,NA,NA,1,0.30055,NA,NA,S_Image_113.bmp,2,0,3
201,1,68,NA,NA,NA,1,0.34299,NA,NA,O_Lure_68.bmp,0,1,2
202,1,7,NA,NA,NA,1,0.32822,NA,NA,F_Image_7.bmp,1,0,1
203,1,69,NA,NA,NA,1,0.33581,NA,NA,O_Lure_69.bmp,0,0,2
204,1,21,NA,NA,NA,1,0.28044,NA,NA,F_Image_21.bmp,1,0,1
205,1,10,NA,NA,NA,1,0.34351,NA,NA,F_Lure_10.bmp,0,1,1
206,1,5,NA,NA,NA,1,0.29152,NA,NA,F_Lure_5.bmp,0,1,1
207,1,128,NA,NA,NA,2,0.38225,NA,NA,S_Image_128.bmp,2,0,3
208,1,54,NA,NA,NA,1,0.32933,NA,NA,O_Lure_54.bmp,0,0,2
209,1,80,NA,NA,NA,1,0.35846,NA,NA,O_Lure_80.bmp,0,0,2
210,1,132,NA,NA,NA,2,0.71371,NA,NA,S_Image_132.bmp,2,1,3
211,1,77,NA,NA,NA,1,0.1107,NA,NA,O_Lure_77.bmp,0,0,2
212,1,67,NA,NA,NA,1,0.37311,NA,NA,O_Image_67.bmp,1,0,2
213,1,78,NA,NA,NA,1,1.1848,NA,NA,O_Image_78.bmp,1,0,2
214,1,16,NA,NA,NA,1,0.26724,NA,NA,F_Lure_16.bmp,0,1,1
215,1,118,NA,NA,NA,1,0.5493,NA,NA,S_Lure_118.bmp,0,0,3
216,1,142,NA,NA,NA,2,0.53498,NA,NA,S_Lure_142.bmp,0,1,3
217,1,56,NA,NA,NA,1,0.46006,NA,NA,O_Image_56.bmp,2,0,2
218,1,63,NA,NA,NA,1,0.35391,NA,NA,O_Image_63.bmp,1,0,2
219,1,34,NA,NA,NA,1,0.28268,NA,NA,F_Lure_34.bmp,0,1,1
220,1,73,NA,NA,NA,1,0.30128,NA,NA,O_Image_73.bmp,2,1,2
221,1,98,NA,NA,NA,2,1.7223,NA,NA,S_Lure_98.bmp,0,0,3
222,1,144,NA,NA,NA,1,0.30279,NA,NA,S_Lure_144.bmp,0,0,3
223,1,139,NA,NA,NA,1,0.00018551,NA,NA,S_Lure_139.bmp,0,1,3
224,1,23,NA,NA,NA,1,0.34466,NA,NA,F_Image_23.bmp,1,0,1
225,1,122,NA,NA,NA,2,0.31328,NA,NA,S_Lure_122.bmp,0,1,3
226,1,83,NA,NA,NA,1,1.1278,NA,NA,O_Image_83.bmp,1,1,2
227,1,90,NA,NA,NA,1,0.44625,NA,NA,O_Image_90.bmp,1,1,2
228,1,7,NA,NA,NA,1,0.37798,NA,NA,F_Lure_7.bmp,0,0,1
229,1,1,NA,NA,NA,1,0.42361,NA,NA,F_Lure_1.bmp,0,1,1
230,1,92,NA,NA,NA,1,0.48021,NA,NA,O_Lure_92.bmp,0,1,2
231,1,18,NA,NA,NA,1,0.31278,NA,NA,F_Image_18.bmp,2,0,1
232,1,43,NA,NA,NA,1,0.39136,NA,NA,F_Image_43.bmp,2,0,1
233,1,115,NA,NA,NA,2,0.00020499,NA,NA,S_Lure_115.bmp,0,0,3
234,1,48,NA,NA,NA,1,0.25616,NA,NA,F_Lure_48.bmp,0,0,1
235,1,134,NA,NA,NA,2,0.32145,NA,NA,S_Image_134.bmp,1,1,3
236,1,63,NA,NA,NA,1,0.3149,NA,NA,O_Lure_63.bmp,0,0,2
237,1,5,NA,NA,NA,1,0.86406,NA,NA,F_Image_5.bmp,2,1,1
238,1,85,NA,NA,NA,1,0.30303,NA,NA,O_Lure_85.bmp,0,1,2
239,1,64,NA,NA,NA,1,0.3126,NA,NA,O_Image_64.bmp,1,0,2
240,1,69,NA,NA,NA,1,0.38964,NA,NA,O_Image_69.bmp,2,0,2
241,1,33,NA,NA,NA,1,0.35657,NA,NA,F_Lure_33.bmp,0,0,1
242,1,81,NA,NA,NA,1,0.41599,NA,NA,O_Image_81.bmp,1,0,2
243,1,142,NA,NA,NA,1,0.25405,NA,NA,S_Image_142.bmp,1,1,3
244,1,30,NA,NA,NA,1,0.31817,NA,NA,F_Image_30.bmp,1,1,1
245,1,55,NA,NA,NA,1,0.29832,NA,NA,O_Image_55.bmp,2,0,2
246,1,9,NA,NA,NA,1,0.28331,NA,NA,F_Lure_9.bmp,0,1,1
247,1,94,NA,NA,NA,1,0.28805,NA,NA,O_Lure_94.bmp,0,1,2
248,1,62,NA,NA,NA,1,0.099334,NA,NA,O_Lure_62.bmp,0,0,2
249,1,24,NA,NA,NA,1,0.17661,NA,NA,F_Lure_24.bmp,0,0,1
250,1,67,NA,NA,NA,1,0.16042,NA,NA,O_Lure_67.bmp,0,0,2
251,1,93,NA,NA,NA,1,0.00019664,NA,NA,O_Image_93.bmp,2,1,2
252,1,114,NA,NA,NA,1,0.00020128,NA,NA,S_Lure_114.bmp,0,0,3
253,1,98,NA,NA,NA,1,0.30163,NA,NA,S_Image_98.bmp,1,0,3
254,1,101,NA,NA,NA,2,0.53191,NA,NA,S_Lure_101.bmp,0,1,3
255,1,59,NA,NA,NA,1,0.2622,NA,NA,O_Image_59.bmp,1,1,2
256,1,15,NA,NA,NA,2,0.00019478,NA,NA,F_Lure_15.bmp,0,1,1
257,1,106,NA,NA,NA,1,0.65148,NA,NA,S_Image_106.bmp,2,0,3
258,1,124,NA,NA,NA,2,0.0067933,NA,NA,S_Lure_124.bmp,0,0,3
259,1,31,NA,NA,NA,1,0.36841,NA,NA,F_Lure_31.bmp,0,0,1
260,1,37,NA,NA,NA,1,0.33756,NA,NA,F_Image_37.bmp,1,1,1
261,1,130,NA,NA,NA,2,0.36598,NA,NA,S_Lure_130.bmp,0,1,3
262,1,29,NA,NA,NA,1,0.40884,NA,NA,F_Lure_29.bmp,0,1,1
263,1,45,NA,NA,NA,2,0.23417,NA,NA,F_Lure_45.bmp,0,1,1
264,1,88,NA,NA,NA,1,0.33815,NA,NA,O_Image_88.bmp,2,1,2
265,1,139,NA,NA,NA,1,0.40286,NA,NA,S_Image_139.bmp,1,1,3
266,1,66,NA,NA,NA,1,0.36672,NA,NA,O_Lure_66.bmp,0,1,2
267,1,65,NA,NA,NA,1,0.31274,NA,NA,O_Image_65.bmp,2,1,2
268,1,66,NA,NA,NA,1,0.29976,NA,NA,O_Image_66.bmp,2,1,2
269,1,97,NA,NA,NA,1,0.67037,NA,NA,S_Lure_97.bmp,0,1,3
270,1,4,NA,NA,NA,1,0.42071,NA,NA,F_Image_4.bmp,1,1,1
271,1,62,NA,NA,NA,1,0.3419,NA,NA,O_Image_62.bmp,1,0,2
272,1,105,NA,NA,NA,2,0.31871,NA,NA,S_Image_105.bmp,1,1,3
273,1,58,NA,NA,NA,1,0.31194,NA,NA,O_Lure_58.bmp,0,1,2
274,1,123,NA,NA,NA,2,0.8827,NA,NA,S_Lure_123.bmp,0,0,3
275,1,115,NA,NA,NA,2,0.32947,NA,NA,S_Image_115.bmp,2,0,3
276,1,38,NA,NA,NA,2,0.62104,NA,NA,F_Lure_38.bmp,0,0,1
277,1,86,NA,NA,NA,1,0.003654,NA,NA,O_Lure_86.bmp,0,1,2
278,1,117,NA,NA,NA,2,0.00020591,NA,NA,S_Lure_117.bmp,0,1,3
279,1,108,NA,NA,NA,2,0.1377,NA,NA,S_Image_108.bmp,2,1,3
280,1,42,NA,NA,NA,1,0.53493,NA,NA,F_Lure_42.bmp,0,0,1
281,1,137,NA,NA,NA,1,0.00017159,NA,NA,S_Image_137.bmp,1,0,3
282,1,76,NA,NA,NA,1,0.00019988,NA,NA,O_Image_76.bmp,2,0,2
283,1,112,NA,NA,NA,1,0.80183,NA,NA,S_Image_112.bmp,2,1,3
284,1,25,NA,NA,NA,1,1.3722,NA,NA,F_Image_25.bmp,1,0,1
285,1,107,NA,NA,NA,1,1.1437,NA,NA,S_Lure_107.bmp,0,1,3
286,1,38,NA,NA,NA,1,0.34964,NA,NA,F_Image_38.bmp,2,0,1
287,1,49,NA,NA,NA,1,0.25458,NA,NA,O_Image_49.bmp,2,1,2
288,1,96,NA,NA,NA,1,0.35479,NA,NA,O_Lure_96.bmp,0,1,2
289,2,81,tear,1,1,0,3.5,0,NA,O_Image_81.bmp-O_Lure_81.bmp,1,0,2
290,2,85,fuel,1,1,1,2.1406,1,NA,O_Image_85.bmp-O_Lure_85.bmp,1,1,2
291,2,79,tail,1,2,2,1.5171,1,NA,O_Image_79.bmp-O_Lure_79.bmp,1,0,2
292,2,50,hurricane,1,1,1,0.87898,1,NA,O_Image_50.bmp-O_Lure_50.bmp,1,1,2
293,2,26,fire,1,2,2,1.0444,1,NA,F_Image_26.bmp-F_Lure_26.bmp,1,1,1
294,2,11,money,1,2,2,0.80916,1,NA,F_Image_11.bmp-F_Lure_11.bmp,1,0,1
295,2,105,honeymoon,1,2,2,0.98489,1,NA,S_Image_105.bmp-S_Lure_105.bmp,1,1,3
296,2,7,stem,1,2,2,0.66117,1,NA,F_Image_7.bmp-F_Lure_7.bmp,1,0,1
297,2,90,spike,1,1,1,1.2001,1,NA,O_Image_90.bmp-O_Lure_90.bmp,1,1,2
298,2,46,rust,1,1,1,0.83776,1,NA,F_Image_46.bmp-F_Lure_46.bmp,1,1,1
299,2,51,giant,1,1,1,0.73216,1,NA,O_Image_51.bmp-O_Lure_51.bmp,1,1,2
300,2,74,animal,1,2,2,1.8008,1,NA,O_Image_74.bmp-O_Lure_74.bmp,1,1,2
301,2,52,marble,1,1,1,0.70415,1,NA,O_Image_52.bmp-O_Lure_52.bmp,1,0,2
302,2,87,laundry,1,2,2,0.67358,1,NA,O_Image_87.bmp-O_Lure_87.bmp,1,0,2
303,2,39,corpse,1,1,1,1.1357,1,NA,F_Image_39.bmp-F_Lure_39.bmp,1,1,1
304,2,83,triangle,1,1,1,0.68003,1,NA,O_Image_83.bmp-O_Lure_83.bmp,1,1,2
305,2,62,measles,1,2,2,0.63444,1,NA,O_Image_62.bmp-O_Lure_62.bmp,1,0,2
306,2,60,arrow,1,2,2,0.73826,1,NA,O_Image_60.bmp-O_Lure_60.bmp,1,0,2
307,2,30,paper,1,2,2,0.87281,1,NA,F_Image_30.bmp-F_Lure_30.bmp,1,1,1
308,2,4,orchestra,1,2,2,1.9151,1,NA,F_Image_4.bmp-F_Lure_4.bmp,1,1,1
309,2,64,attack,1,2,2,0.68813,1,NA,O_Image_64.bmp-O_Lure_64.bmp,1,0,2
310,2,67,water,1,1,1,1.1156,1,NA,O_Image_67.bmp-O_Lure_67.bmp,1,0,2
311,2,33,ghost,1,2,2,1.1523,1,NA,F_Image_33.bmp-F_Lure_33.bmp,1,0,1
312,2,10,antique,1,1,1,0.8345,1,NA,F_Image_10.bmp-F_Lure_10.bmp,1,1,1
313,3,33,ghost,1,2,2,0.66713,1,NA,F_Image_33.bmp-F_Lure_33.bmp,1,0,1
314,3,87,laundry,1,1,1,0.62951,1,NA,O_Image_87.bmp-O_Lure_87.bmp,1,0,2
315,3,60,arrow,1,2,2,0.48285,1,NA,O_Image_60.bmp-O_Lure_60.bmp,1,0,2
316,3,52,marble,1,2,2,0.69748,1,NA,O_Image_52.bmp-O_Lure_52.bmp,1,0,2
317,3,105,honeymoon,1,2,2,0.81482,1,NA,S_Image_105.bmp-S_Lure_105.bmp,1,1,3
318,3,46,rust,1,1,1,0.82563,1,NA,F_Image_46.bmp-F_Lure_46.bmp,1,1,1
319,3,79,tail,1,1,1,0.98004,1,NA,O_Image_79.bmp-O_Lure_79.bmp,1,0,2
320,3,74,animal,1,2,2,0.7106,1,NA,O_Image_74.bmp-O_Lure_74.bmp,1,1,2
321,3,4,orchestra,1,2,2,0.83525,1,NA,F_Image_4.bmp-F_Lure_4.bmp,1,1,1
322,3,11,money,1,1,1,0.8591,1,NA,F_Image_11.bmp-F_Lure_11.bmp,1,0,1
323,3,62,measles,1,1,1,0.72024,1,NA,O_Image_62.bmp-O_Lure_62.bmp,1,0,2
324,3,81,tear,1,2,1,0.88528,0,NA,O_Image_81.bmp-O_Lure_81.bmp,1,0,2
325,3,39,corpse,1,2,1,1.0087,0,NA,F_Image_39.bmp-F_Lure_39.bmp,1,1,1
326,3,10,antique,1,1,1,1.0994,1,NA,F_Image_10.bmp-F_Lure_10.bmp,1,1,1
327,3,85,fuel,1,2,2,0.74747,1,NA,O_Image_85.bmp-O_Lure_85.bmp,1,1,2
328,3,90,spike,1,1,1,0.77457,1,NA,O_Image_90.bmp-O_Lure_90.bmp,1,1,2
329,3,64,attack,1,1,1,0.73192,1,NA,O_Image_64.bmp-O_Lure_64.bmp,1,0,2
330,3,67,water,1,2,2,1.5582,1,NA,O_Image_67.bmp-O_Lure_67.bmp,1,0,2
331,3,51,giant,1,2,2,0.75105,1,NA,O_Image_51.bmp-O_Lure_51.bmp,1,1,2
332,3,50,hurricane,1,1,1,0.61865,1,NA,O_Image_50.bmp-O_Lure_50.bmp,1,1,2
333,3,30,paper,1,2,2,0.87959,1,NA,F_Image_30.bmp-F_Lure_30.bmp,1,1,1
334,3,83,triangle,1,1,1,0.74023,1,NA,O_Image_83.bmp-O_Lure_83.bmp,1,1,2
335,3,7,stem,1,1,1,0.78792,1,NA,F_Image_7.bmp-F_Lure_7.bmp,1,0,1
336,3,26,fire,1,2,1,2.8421,0,NA,F_Image_26.bmp-F_Lure_26.bmp,1,1,1
337,2,142,cone,2,2,2,1.1557,1,NA,S_Image_142.bmp-S_Lure_142.bmp,1,1,3
338,2,114,vegetable,2,2,2,0.98541,1,NA,S_Image_114.bmp-S_Lure_114.bmp,1,0,3
339,2,63,sand,2,1,1,1.1345,1,NA,O_Image_63.bmp-O_Lure_63.bmp,1,0,2
340,2,32,wool,2,1,1,1.1637,1,NA,F_Image_32.bmp-F_Lure_32.bmp,1,1,1
341,2,86,arch,2,1,1,2.0435,1,NA,O_Image_86.bmp-O_Lure_86.bmp,1,1,2
342,2,58,harem,2,2,2,0.73243,1,NA,O_Image_58.bmp-O_Lure_58.bmp,1,1,2
343,2,110,poison,2,1,2,1.8601,0,NA,S_Image_110.bmp-S_Lure_110.bmp,1,0,3
344,2,127,army,2,2,2,1.333,1,NA,S_Image_127.bmp-S_Lure_127.bmp,1,0,3
345,2,124,flood,2,2,2,0.96024,1,NA,S_Image_124.bmp-S_Lure_124.bmp,1,0,3
346,2,9,witch,2,1,1,1.1497,1,NA,F_Image_9.bmp-F_Lure_9.bmp,1,1,1
347,2,27,lever,2,1,1,1.0039,1,NA,F_Image_27.bmp-F_Lure_27.bmp,1,1,1
348,2,57,breakfast,2,1,1,0.88562,1,NA,O_Image_57.bmp-O_Lure_57.bmp,1,1,2
349,2,130,costume,2,1,1,1.849,1,NA,S_Image_130.bmp-S_Lure_130.bmp,1,1,3
350,2,99,corner,2,2,2,1.4271,1,NA,S_Image_99.bmp-S_Lure_99.bmp,1,0,3
351,2,123,slope,2,2,2,1.5813,1,NA,S_Image_123.bmp-S_Lure_123.bmp,1,0,3
352,2,78,seed,2,1,1,0.78583,1,NA,O_Image_78.bmp-O_Lure_78.bmp,1,0,2
353,2,104,yellow,2,1,1,1.1788,1,NA,S_Image_104.bmp-S_Lure_104.bmp,1,1,3
354,2,96,spray,2,2,2,1.1331,1,NA,O_Image_96.bmp-O_Lure_96.bmp,1,1,2
355,2,116,shell,2,1,2,1.1891,0,NA,S_Image_116.bmp-S_Lure_116.bmp,1,1,3
356,2,141,alcohol,2,1,1,1.2514,1,NA,S_Image_141.bmp-S_Lure_141.bmp,1,0,3
357,2,59,shadow,2,2,2,1.279,1,NA,O_Image_59.bmp-O_Lure_59.bmp,1,1,2
358,2,21,menu,2,1,1,1.0735,1,NA,F_Image_21.bmp-F_Lure_21.bmp,1,0,1
359,2,53,crumb,2,2,2,1.0777,1,NA,O_Image_53.bmp-O_Lure_53.bmp,1,0,2
360,2,118,wound,2,2,1,2.532,0,NA,S_Image_118.bmp-S_Lure_118.bmp,1,0,3
361,3,86,arch,2,2,1,1.1386,0,NA,O_Image_86.bmp-O_Lure_86.bmp,1,1,2
362,3,141,alcohol,2,2,1,0.82814,0,NA,S_Image_141.bmp-S_Lure_141.bmp,1,0,3
363,3,130,costume,2,1,2,0.95774,0,NA,S_Image_130.bmp-S_Lure_130.bmp,1,1,3
364,3,123,slope,2,2,2,1.2197,1,NA,S_Image_123.bmp-S_Lure_123.bmp,1,0,3
365,3,110,poison,2,1,1,2.1077,1,NA,S_Image_110.bmp-S_Lure_110.bmp,1,0,3
366,3,118,wound,2,2,2,0.96639,1,NA,S_Image_118.bmp-S_Lure_118.bmp,1,0,3
367,3,58,harem,2,2,2,0.53495,1,NA,O_Image_58.bmp-O_Lure_58.bmp,1,1,2
368,3,114,vegetable,2,2,2,1.6039,1,NA,S_Image_114.bmp-S_Lure_114.bmp,1,0,3
369,3,59,shadow,2,1,1,1.231,1,NA,O_Image_59.bmp-O_Lure_59.bmp,1,1,2
370,3,78,seed,2,2,2,0.79537,1,NA,O_Image_78.bmp-O_Lure_78.bmp,1,0,2
371,3,27,lever,2,1,1,1.0196,1,NA,F_Image_27.bmp-F_Lure_27.bmp,1,1,1
372,3,57,breakfast,2,2,2,0.81429,1,NA,O_Image_57.bmp-O_Lure_57.bmp,1,1,2
373,3,104,yellow,2,2,2,1.2247,1,NA,S_Image_104.bmp-S_Lure_104.bmp,1,1,3
374,3,99,corner,2,1,1,1.5558,1,NA,S_Image_99.bmp-S_Lure_99.bmp,1,0,3
375,3,124,flood,2,2,2,0.79671,1,NA,S_Image_124.bmp-S_Lure_124.bmp,1,0,3
376,3,63,sand,2,1,1,1.0454,1,NA,O_Image_63.bmp-O_Lure_63.bmp,1,0,2
377,3,9,witch,2,2,1,1.9524,0,NA,F_Image_9.bmp-F_Lure_9.bmp,1,1,1
378,3,127,army,2,2,2,2.4488,1,NA,S_Image_127.bmp-S_Lure_127.bmp,1,0,3
379,3,21,menu,2,1,1,1.0967,1,NA,F_Image_21.bmp-F_Lure_21.bmp,1,0,1
380,3,142,cone,2,2,0,3.4999,0,NA,S_Image_142.bmp-S_Lure_142.bmp,1,1,3
381,3,53,crumb,2,2,2,0.63225,1,NA,O_Image_53.bmp-O_Lure_53.bmp,1,0,2
382,3,116,shell,2,2,2,1.4868,1,NA,S_Image_116.bmp-S_Lure_116.bmp,1,1,3
383,3,32,wool,2,2,1,1.1507,0,NA,F_Image_32.bmp-F_Lure_32.bmp,1,1,1
384,3,96,spray,2,1,1,1.0185,1,NA,O_Image_96.bmp-O_Lure_96.bmp,1,1,2
385,2,136,sweat,3,1,1,0.7625,1,NA,S_Image_136.bmp-S_Lure_136.bmp,1,0,3
386,2,24,alien,3,2,2,0.69517,1,NA,F_Image_24.bmp-F_Lure_24.bmp,1,0,1
387,2,37,galaxy,3,2,2,1.3533,1,NA,F_Image_37.bmp-F_Lure_37.bmp,1,1,1
388,2,119,tube,3,1,1,1.1035,1,NA,S_Image_119.bmp-S_Lure_119.bmp,1,0,3
389,2,14,steam,3,2,2,1.4015,1,NA,F_Image_14.bmp-F_Lure_14.bmp,1,1,1
390,2,102,sunshine,3,1,1,0.8686,1,NA,S_Image_102.bmp-S_Lure_102.bmp,1,0,3
391,2,117,snow,3,2,2,1.0855,1,NA,S_Image_117.bmp-S_Lure_117.bmp,1,1,3
392,2,122,black,3,2,2,2.404,1,NA,S_Image_122.bmp-S_Lure_122.bmp,1,1,3
393,2,16,tourist,3,2,2,0.99475,1,NA,F_Image_16.bmp-F_Lure_16.bmp,1,1,1
394,2,121,scar,3,1,1,0.98166,1,NA,S_Image_121.bmp-S_Lure_121.bmp,1,0,3
395,2,23,rock,3,1,2,1.156,0,NA,F_Image_23.bmp-F_Lure_23.bmp,1,0,1
396,2,25,quake,3,1,1,2.2669,1,NA,F_Image_25.bmp-F_Lure_25.bmp,1,0,1
397,2,8,cloud,3,1,2,1.0479,0,NA,F_Image_8.bmp-F_Lure_8.bmp,1,1,1
398,2,120,bubble,3,2,1,1.0112,0,NA,S_Image_120.bmp-S_Lure_120.bmp,1,1,3
399,2,15,hostage,3,1,1,0.87644,1,NA,F_Image_15.bmp-F_Lure_15.bmp,1,1,1
400,2,139,asphalt,3,2,1,2.4208,0,NA,S_Image_139.bmp-S_Lure_139.bmp,1,1,3
401,2,95,magnet,3,2,2,1.9152,1,NA,O_Image_95.bmp-O_Lure_95.bmp,1,0,2
402,2,48,stripe,3,1,1,1.1565,1,NA,F_Image_48.bmp-F_Lure_48.bmp,1,0,1
403,2,134,board,3,1,2,1.7473,0,NA,S_Image_134.bmp-S_Lure_134.bmp,1,1,3
404,2,98,angel,3,2,2,0.95487,1,NA,S_Image_98.bmp-S_Lure_98.bmp,1,0,3
405,2,12,kiss,3,1,1,1.7004,1,NA,F_Image_12.bmp-F_Lure_12.bmp,1,1,1
406,2,137,signal,3,1,2,1.1537,0,NA,S_Image_137.bmp-S_Lure_137.bmp,1,0,3
407,2,80,drizzle,3,2,2,0.75451,1,NA,O_Image_80.bmp-O_Lure_80.bmp,1,0,2
408,2,40,wreck,3,1,1,0.93008,1,NA,F_Image_40.bmp-F_Lure_40.bmp,1,0,1
409,3,95,magnet,3,2,2,0.77133,1,NA,O_Image_95.bmp-O_Lure_95.bmp,1,0,2
410,3,8,cloud,3,2,2,0.8275,1,NA,F_Image_8.bmp-F_Lure_8.bmp,1,1,1
411,3,15,hostage,3,2,1,0.83159,0,NA,F_Image_15.bmp-F_Lure_15.bmp,1,1,1
412,3,48,stripe,3,1,1,0.92239,1,NA,F_Image_48.bmp-F_Lure_48.bmp,1,0,1
413,3,137,signal,3,1,1,1.057,1,NA,S_Image_137.bmp-S_Lure_137.bmp,1,0,3
414,3,24,alien,3,2,2,0.53549,1,NA,F_Image_24.bmp-F_Lure_24.bmp,1,0,1
415,3,139,asphalt,3,1,1,1.1523,1,NA,S_Image_139.bmp-S_Lure_139.bmp,1,1,3
416,3,120,bubble,3,1,2,1.3597,0,NA,S_Image_120.bmp-S_Lure_120.bmp,1,1,3
417,3,102,sunshine,3,2,2,0.7705,1,NA,S_Image_102.bmp-S_Lure_102.bmp,1,0,3
418,3,16,tourist,3,1,1,1.2351,1,NA,F_Image_16.bmp-F_Lure_16.bmp,1,1,1
419,3,121,scar,3,1,1,1.2275,1,NA,S_Image_121.bmp-S_Lure_121.bmp,1,0,3
420,3,122,black,3,1,1,1.6392,1,NA,S_Image_122.bmp-S_Lure_122.bmp,1,1,3
421,3,23,rock,3,2,2,1.0568,1,NA,F_Image_23.bmp-F_Lure_23.bmp,1,0,1
422,3,12,kiss,3,2,2,1.1945,1,NA,F_Image_12.bmp-F_Lure_12.bmp,1,1,1
423,3,14,steam,3,1,1,1.2722,1,NA,F_Image_14.bmp-F_Lure_14.bmp,1,1,1
424,3,134,board,3,1,2,2.0066,0,NA,S_Image_134.bmp-S_Lure_134.bmp,1,1,3
425,3,119,tube,3,2,2,0.91749,1,NA,S_Image_119.bmp-S_Lure_119.bmp,1,0,3
426,3,25,quake,3,2,2,1.1384,1,NA,F_Image_25.bmp-F_Lure_25.bmp,1,0,1
427,3,40,wreck,3,2,2,0.88591,1,NA,F_Image_40.bmp-F_Lure_40.bmp,1,0,1
428,3,98,angel,3,2,2,1.0901,1,NA,S_Image_98.bmp-S_Lure_98.bmp,1,0,3
429,3,136,sweat,3,1,1,0.69773,1,NA,S_Image_136.bmp-S_Lure_136.bmp,1,0,3
430,3,117,snow,3,2,2,1.0056,1,NA,S_Image_117.bmp-S_Lure_117.bmp,1,1,3
431,3,80,drizzle,3,1,1,0.71628,1,NA,O_Image_80.bmp-O_Lure_80.bmp,1,0,2
432,3,37,galaxy,3,1,1,1.1172,1,NA,F_Image_37.bmp-F_Lure_37.bmp,1,1,1
433,4,125,tail,1,1,1,1.2697,1,NA,S_Image_125.bmp-S_Lure_125.bmp,2,0,3
434,4,13,alcohol,1,1,1,1.2156,1,NA,F_Image_13.bmp-F_Lure_13.bmp,2,0,1
435,4,109,shadow,1,2,2,1.5371,1,NA,S_Image_109.bmp-S_Lure_109.bmp,2,1,3
436,4,20,seed,1,2,2,1.0505,1,NA,F_Image_20.bmp-F_Lure_20.bmp,2,0,1
437,4,132,giant,1,2,2,1.0785,1,NA,S_Image_132.bmp-S_Lure_132.bmp,2,1,3
438,4,69,flood,1,1,1,1.8428,1,NA,O_Image_69.bmp-O_Lure_69.bmp,2,0,2
439,4,135,breakfast,1,2,2,0.78053,1,NA,S_Image_135.bmp-S_Lure_135.bmp,2,1,3
440,4,89,corner,1,1,1,1.1779,1,NA,O_Image_89.bmp-O_Lure_89.bmp,2,0,2
441,4,18,scar,1,1,1,1.102,1,NA,F_Image_18.bmp-F_Lure_18.bmp,2,0,1
442,4,94,rust,1,1,1,0.84319,1,NA,O_Image_94.bmp-O_Lure_94.bmp,2,1,2
443,4,5,yellow,1,2,2,1.2008,1,NA,F_Image_5.bmp-F_Lure_5.bmp,2,1,1
444,4,70,vegetable,1,2,2,0.67834,1,NA,O_Image_70.bmp-O_Lure_70.bmp,2,0,2
445,4,55,wreck,1,2,2,1.2327,1,NA,O_Image_55.bmp-O_Lure_55.bmp,2,0,2
446,4,54,sunshine,1,2,2,0.75736,1,NA,O_Image_54.bmp-O_Lure_54.bmp,2,0,2
447,4,49,galaxy,1,2,2,1.0183,1,NA,O_Image_49.bmp-O_Lure_49.bmp,2,1,2
448,4,91,wool,1,2,2,0.7385,1,NA,O_Image_91.bmp-O_Lure_91.bmp,2,1,2
449,4,126,steam,1,1,1,1.0667,1,NA,S_Image_126.bmp-S_Lure_126.bmp,2,1,3
450,4,106,measles,1,1,1,1.4174,1,NA,S_Image_106.bmp-S_Lure_106.bmp,2,0,3
451,4,35,slope,1,1,1,1.0285,1,NA,F_Image_35.bmp-F_Lure_35.bmp,2,0,1
452,4,93,corpse,1,1,1,0.78291,1,NA,O_Image_93.bmp-O_Lure_93.bmp,2,1,2
453,4,111,crumb,1,2,2,0.5986,1,NA,S_Image_111.bmp-S_Lure_111.bmp,2,0,3
454,4,19,marble,1,2,1,1.3484,0,NA,F_Image_19.bmp-F_Lure_19.bmp,2,0,1
455,4,133,alien,1,1,1,0.9225,1,NA,S_Image_133.bmp-S_Lure_133.bmp,2,0,3
456,4,38,poison,1,2,2,1.0562,1,NA,F_Image_38.bmp-F_Lure_38.bmp,2,0,1
457,4,128,drizzle,2,2,2,1.7069,1,NA,S_Image_128.bmp-S_Lure_128.bmp,2,0,3
458,4,84,wound,2,1,1,0.76824,1,NA,O_Image_84.bmp-O_Lure_84.bmp,2,0,2
459,4,75,honeymoon,2,1,1,0.83991,1,NA,O_Image_75.bmp-O_Lure_75.bmp,2,1,2
460,4,2,shell,2,2,2,0.93364,1,NA,F_Image_2.bmp-F_Lure_2.bmp,2,1,1
461,4,41,animal,2,2,2,1.7383,1,NA,F_Image_41.bmp-F_Lure_41.bmp,2,1,1
462,4,47,fuel,2,2,2,1.0355,1,NA,F_Image_47.bmp-F_Lure_47.bmp,2,1,1
463,4,42,tube,2,1,1,1.21,1,NA,F_Image_42.bmp-F_Lure_42.bmp,2,0,1
464,4,66,tourist,2,1,1,1.6007,1,NA,O_Image_66.bmp-O_Lure_66.bmp,2,1,2
465,4,131,lever,2,1,2,1.4586,0,NA,S_Image_131.bmp-S_Lure_131.bmp,2,1,3
466,4,77,stripe,2,2,2,0.69984,1,NA,O_Image_77.bmp-O_Lure_77.bmp,2,0,2
467,4,68,fire,2,1,1,0.68643,1,NA,O_Image_68.bmp-O_Lure_68.bmp,2,1,2
468,4,1,asphalt,2,1,1,1.0386,1,NA,F_Image_1.bmp-F_Lure_1.bmp,2,1,1
469,4,88,bubble,2,1,1,0.79502,1,NA,O_Image_88.bmp-O_Lure_88.bmp,2,1,2
470,4,82,stem,2,1,2,1.5921,0,NA,O_Image_82.bmp-O_Lure_82.bmp,2,0,2
471,4,113,quake,2,1,1,1.22,1,NA,S_Image_113.bmp-S_Lure_113.bmp,2,0,3
472,4,101,arch,2,2,2,1.2106,1,NA,S_Image_101.bmp-S_Lure_101.bmp,2,1,3
473,4,73,hostage,2,1,1,1.1121,1,NA,O_Image_73.bmp-O_Lure_73.bmp,2,1,2
474,4,3,costume,2,2,2,0.86272,1,NA,F_Image_3.bmp-F_Lure_3.bmp,2,1,1
475,4,103,rock,2,2,2,1.014,1,NA,S_Image_103.bmp-S_Lure_103.bmp,2,0,3
476,4,138,arrow,2,1,2,1.2445,0,NA,S_Image_138.bmp-S_Lure_138.bmp,2,0,3
477,4,76,signal,2,1,1,0.84256,1,NA,O_Image_76.bmp-O_Lure_76.bmp,2,0,2
478,4,44,angel,2,2,2,1.6996,1,NA,F_Image_44.bmp-F_Lure_44.bmp,2,0,1
479,4,56,ghost,2,2,2,0.74767,1,NA,O_Image_56.bmp-O_Lure_56.bmp,2,0,2
480,4,112,kiss,2,1,1,1.1332,1,NA,S_Image_112.bmp-S_Lure_112.bmp,2,1,3
481,4,43,laundry,3,1,1,0.99019,1,NA,F_Image_43.bmp-F_Lure_43.bmp,2,0,1
482,4,144,sand,3,1,1,1.0993,1,NA,S_Image_144.bmp-S_Lure_144.bmp,2,0,3
483,4,29,spike,3,1,1,1.286,1,NA,F_Image_29.bmp-F_Lure_29.bmp,2,1,1
484,4,143,witch,3,1,1,0.8602,1,NA,S_Image_143.bmp-S_Lure_143.bmp,2,1,3
485,4,97,harem,3,1,1,1.1213,1,NA,S_Image_97.bmp-S_Lure_97.bmp,2,1,3
486,4,36,snow,3,2,2,1.3669,1,NA,F_Image_36.bmp-F_Lure_36.bmp,2,1,1
487,4,17,black,3,1,1,1.3694,1,NA,F_Image_17.bmp-F_Lure_17.bmp,2,1,1
488,4,100,tear,3,2,2,1.3439,1,NA,S_Image_100.bmp-S_Lure_100.bmp,2,0,3
489,4,22,magnet,3,2,2,1.5167,1,NA,F_Image_22.bmp-F_Lure_22.bmp,2,0,1
490,4,107,spray,3,1,1,1.0827,1,NA,S_Image_107.bmp-S_Lure_107.bmp,2,1,3
491,4,31,water,3,2,2,1.6369,1,NA,F_Image_31.bmp-F_Lure_31.bmp,2,0,1
492,4,61,sweat,3,1,1,0.64492,1,NA,O_Image_61.bmp-O_Lure_61.bmp,2,0,2
493,4,129,hurricane,3,2,2,1.4822,1,NA,S_Image_129.bmp-S_Lure_129.bmp,2,1,3
494,4,34,triangle,3,1,1,1.0366,1,NA,F_Image_34.bmp-F_Lure_34.bmp,2,1,1
495,4,28,cone,3,1,1,1.061,1,NA,F_Image_28.bmp-F_Lure_28.bmp,2,1,1
496,4,115,money,3,2,2,1.9618,1,NA,S_Image_115.bmp-S_Lure_115.bmp,2,0,3
497,4,71,menu,3,2,2,0.7126,1,NA,O_Image_71.bmp-O_Lure_71.bmp,2,0,2
498,4,6,attack,3,2,2,1.2878,1,NA,F_Image_6.bmp-F_Lure_6.bmp,2,0,1
499,4,108,paper,3,1,1,0.94823,1,NA,S_Image_108.bmp-S_Lure_108.bmp,2,1,3
500,4,140,cloud,3,2,1,1.8655,0,NA,S_Image_140.bmp-S_Lure_140.bmp,2,1,3
501,4,72,army,3,2,2,0.5768,1,NA,O_Image_72.bmp-O_Lure_72.bmp,2,0,2
502,4,65,antique,3,2,2,1.0672,1,NA,O_Image_65.bmp-O_Lure_65.bmp,2,1,2
503,4,92,orchestra,3,1,1,0.84176,1,NA,O_Image_92.bmp-O_Lure_92.bmp,2,1,2
504,4,45,board,3,2,2,1.7093,1,NA,F_Image_45.bmp-F_Lure_45.bmp,2,1,1
