Trial,Cond,ImageNum,Cue,Block,Correct,Response,RT,Accuracy,CueRep,fName,ImageType,Baseline,Category
1,1,124,NA,NA,NA,2,2.5223,NA,NA,S_Lure_124.bmp,0,1,3
2,1,7,NA,NA,NA,2,3.5451,NA,NA,F_Lure_7.bmp,0,1,1
3,1,87,NA,NA,NA,1,4.4549,NA,NA,O_Image_87.bmp,1,0,2
4,1,78,NA,NA,NA,1,0.70186,NA,NA,O_Image_78.bmp,2,1,2
5,1,116,NA,NA,NA,1,0.00012436,NA,NA,S_Lure_116.bmp,0,1,3
6,1,83,NA,NA,NA,1,3.0739,NA,NA,O_Lure_83.bmp,0,0,2
7,1,28,NA,NA,NA,1,5.048,NA,NA,F_Image_28.bmp,1,0,1
8,1,104,NA,NA,NA,1,4.3021,NA,NA,S_Image_104.bmp,1,0,3
9,1,90,NA,NA,NA,1,2.7555,NA,NA,O_Lure_90.bmp,0,0,2
10,1,33,NA,NA,NA,1,3.7982,NA,NA,F_Image_33.bmp,1,0,1
11,1,99,NA,NA,NA,2,5.7656,NA,NA,S_Image_99.bmp,1,0,3
12,1,94,NA,NA,NA,1,1.3386,NA,NA,O_Image_94.bmp,1,0,2
13,1,92,NA,NA,NA,1,0.15055,NA,NA,O_Lure_92.bmp,0,1,2
14,1,58,NA,NA,NA,1,1.6981,NA,NA,O_Image_58.bmp,2,1,2
15,1,43,NA,NA,NA,1,2.8805,NA,NA,F_Lure_43.bmp,0,0,1
16,1,40,NA,NA,NA,2,2.4861,NA,NA,F_Lure_40.bmp,0,0,1
17,1,44,NA,NA,NA,2,3.4827,NA,NA,F_Image_44.bmp,2,0,1
18,1,127,NA,NA,NA,1,1.4735,NA,NA,S_Image_127.bmp,1,0,3
19,1,45,NA,NA,NA,2,4.3602,NA,NA,F_Lure_45.bmp,0,1,1
20,1,37,NA,NA,NA,2,7.0914,NA,NA,F_Lure_37.bmp,0,1,1
21,1,123,NA,NA,NA,2,6.0981,NA,NA,S_Lure_123.bmp,0,1,3
22,1,15,NA,NA,NA,1,2.0547,NA,NA,F_Lure_15.bmp,0,1,1
23,1,86,NA,NA,NA,1,0.00011923,NA,NA,O_Image_86.bmp,1,1,2
24,1,113,NA,NA,NA,1,0.00012647,NA,NA,S_Lure_113.bmp,0,0,3
25,1,66,NA,NA,NA,1,1.3322,NA,NA,O_Image_66.bmp,2,0,2
26,1,101,NA,NA,NA,2,6.4479,NA,NA,S_Image_101.bmp,2,1,3
27,1,46,NA,NA,NA,2,6.5112,NA,NA,F_Image_46.bmp,1,0,1
28,1,133,NA,NA,NA,1,2.5724,NA,NA,S_Lure_133.bmp,0,0,3
29,1,50,NA,NA,NA,1,0.69376,NA,NA,O_Lure_50.bmp,0,1,2
30,1,6,NA,NA,NA,1,1.6513,NA,NA,F_Image_6.bmp,2,0,1
31,1,138,NA,NA,NA,1,0.52267,NA,NA,S_Image_138.bmp,1,0,3
32,1,35,NA,NA,NA,2,2.3254,NA,NA,F_Lure_35.bmp,0,1,1
33,1,11,NA,NA,NA,1,0.31211,NA,NA,F_Lure_11.bmp,0,1,1
34,1,52,NA,NA,NA,1,1.9934,NA,NA,O_Image_52.bmp,2,0,2
35,1,28,NA,NA,NA,1,1.2123,NA,NA,F_Lure_28.bmp,0,0,1
36,1,118,NA,NA,NA,1,0.55693,NA,NA,S_Image_118.bmp,2,0,3
37,1,62,NA,NA,NA,1,0.00012134,NA,NA,O_Lure_62.bmp,0,0,2
38,1,77,NA,NA,NA,1,0.0096723,NA,NA,O_Image_77.bmp,2,0,2
39,1,132,NA,NA,NA,1,2.0829,NA,NA,S_Lure_132.bmp,0,0,3
40,1,125,NA,NA,NA,1,0.00012527,NA,NA,S_Image_125.bmp,1,0,3
41,1,64,NA,NA,NA,1,1.9224,NA,NA,O_Lure_64.bmp,0,0,2
42,1,89,NA,NA,NA,1,2.7285,NA,NA,O_Image_89.bmp,2,1,2
43,1,135,NA,NA,NA,1,0.74203,NA,NA,S_Lure_135.bmp,0,1,3
44,1,107,NA,NA,NA,1,4.2097,NA,NA,S_Image_107.bmp,1,1,3
45,1,30,NA,NA,NA,2,1.5879,NA,NA,F_Lure_30.bmp,0,1,1
46,1,53,NA,NA,NA,1,3.3004,NA,NA,O_Image_53.bmp,1,1,2
47,1,80,NA,NA,NA,1,4.0606,NA,NA,O_Image_80.bmp,1,0,2
48,1,41,NA,NA,NA,2,6.0294,NA,NA,F_Lure_41.bmp,0,0,1
49,1,26,NA,NA,NA,1,0.87034,NA,NA,F_Image_26.bmp,2,0,1
50,1,85,NA,NA,NA,1,1.179,NA,NA,O_Image_85.bmp,1,1,2
51,1,89,NA,NA,NA,1,0.00012285,NA,NA,O_Lure_89.bmp,0,1,2
52,1,100,NA,NA,NA,2,3.8376,NA,NA,S_Image_100.bmp,2,0,3
53,1,23,NA,NA,NA,2,0.00011742,NA,NA,F_Image_23.bmp,2,1,1
54,1,63,NA,NA,NA,1,0.00012345,NA,NA,O_Image_63.bmp,1,1,2
55,1,95,NA,NA,NA,1,4.4658,NA,NA,O_Lure_95.bmp,0,1,2
56,1,59,NA,NA,NA,1,1.4174,NA,NA,O_Lure_59.bmp,0,0,2
57,1,67,NA,NA,NA,1,0.77943,NA,NA,O_Lure_67.bmp,0,1,2
58,1,48,NA,NA,NA,1,0.53088,NA,NA,F_Image_48.bmp,1,1,1
59,1,139,NA,NA,NA,1,0.57415,NA,NA,S_Lure_139.bmp,0,0,3
60,1,126,NA,NA,NA,1,2.7589,NA,NA,S_Lure_126.bmp,0,1,3
61,1,72,NA,NA,NA,1,3.9788,NA,NA,O_Lure_72.bmp,0,1,2
62,1,96,NA,NA,NA,1,0.00011802,NA,NA,O_Lure_96.bmp,0,0,2
63,1,57,NA,NA,NA,1,0.00012406,NA,NA,O_Image_57.bmp,2,1,2
64,1,27,NA,NA,NA,1,2.2671,NA,NA,F_Image_27.bmp,1,1,1
65,1,3,NA,NA,NA,1,0.80319,NA,NA,F_Image_3.bmp,1,0,1
66,1,96,NA,NA,NA,1,0.70145,NA,NA,O_Image_96.bmp,2,0,2
67,1,50,NA,NA,NA,1,1.1612,NA,NA,O_Image_50.bmp,2,1,2
68,1,29,NA,NA,NA,1,0.18889,NA,NA,F_Image_29.bmp,1,1,1
69,1,4,NA,NA,NA,1,0.00012225,NA,NA,F_Image_4.bmp,1,0,1
70,1,11,NA,NA,NA,1,0.40016,NA,NA,F_Image_11.bmp,2,1,1
71,1,58,NA,NA,NA,1,0.00011289,NA,NA,O_Lure_58.bmp,0,1,2
72,1,43,NA,NA,NA,2,4.6279,NA,NA,F_Image_43.bmp,2,0,1
73,1,13,NA,NA,NA,2,1.4156,NA,NA,F_Lure_13.bmp,0,0,1
74,1,34,NA,NA,NA,2,0.50626,NA,NA,F_Lure_34.bmp,0,0,1
75,1,144,NA,NA,NA,1,3.0724,NA,NA,S_Lure_144.bmp,0,0,3
76,1,70,NA,NA,NA,1,0.16793,NA,NA,O_Lure_70.bmp,0,0,2
77,1,137,NA,NA,NA,1,0.63637,NA,NA,S_Image_137.bmp,1,1,3
78,1,38,NA,NA,NA,1,0.80651,NA,NA,F_Image_38.bmp,2,0,1
79,1,63,NA,NA,NA,1,0.65071,NA,NA,O_Lure_63.bmp,0,1,2
80,1,73,NA,NA,NA,1,0.66112,NA,NA,O_Image_73.bmp,1,0,2
81,1,18,NA,NA,NA,2,1.5114,NA,NA,F_Image_18.bmp,2,0,1
82,1,94,NA,NA,NA,1,4.4226,NA,NA,O_Lure_94.bmp,0,0,2
83,1,99,NA,NA,NA,2,4.3608,NA,NA,S_Lure_99.bmp,0,0,3
84,1,54,NA,NA,NA,1,0.054929,NA,NA,O_Lure_54.bmp,0,1,2
85,1,122,NA,NA,NA,2,4.1154,NA,NA,S_Lure_122.bmp,0,1,3
86,1,122,NA,NA,NA,2,2.9642,NA,NA,S_Image_122.bmp,2,1,3
87,1,115,NA,NA,NA,1,0.50707,NA,NA,S_Image_115.bmp,2,0,3
88,1,91,NA,NA,NA,1,2.0516,NA,NA,O_Image_91.bmp,2,1,2
89,1,52,NA,NA,NA,1,1.7812,NA,NA,O_Lure_52.bmp,0,0,2
90,1,105,NA,NA,NA,1,0.21731,NA,NA,S_Image_105.bmp,2,1,3
91,1,111,NA,NA,NA,1,0.20401,NA,NA,S_Lure_111.bmp,0,0,3
92,1,19,NA,NA,NA,1,0.3939,NA,NA,F_Image_19.bmp,1,0,1
93,1,79,NA,NA,NA,1,0.61526,NA,NA,O_Lure_79.bmp,0,0,2
94,1,137,NA,NA,NA,1,0.098785,NA,NA,S_Lure_137.bmp,0,1,3
95,1,56,NA,NA,NA,1,0.5801,NA,NA,O_Lure_56.bmp,0,1,2
96,1,71,NA,NA,NA,1,0.2495,NA,NA,O_Lure_71.bmp,0,1,2
97,1,91,NA,NA,NA,1,0.68409,NA,NA,O_Lure_91.bmp,0,1,2
98,1,125,NA,NA,NA,1,0.58152,NA,NA,S_Lure_125.bmp,0,0,3
99,1,142,NA,NA,NA,1,2.8269,NA,NA,S_Image_142.bmp,2,1,3
100,1,126,NA,NA,NA,1,0.63694,NA,NA,S_Image_126.bmp,2,1,3
101,1,129,NA,NA,NA,1,2.9196,NA,NA,S_Lure_129.bmp,0,1,3
102,1,75,NA,NA,NA,1,0.43182,NA,NA,O_Lure_75.bmp,0,0,2
103,1,88,NA,NA,NA,1,0.94719,NA,NA,O_Image_88.bmp,1,1,2
104,1,120,NA,NA,NA,1,0.69738,NA,NA,S_Lure_120.bmp,0,1,3
105,1,143,NA,NA,NA,2,2.3685,NA,NA,S_Lure_143.bmp,0,0,3
106,1,6,NA,NA,NA,2,1.6712,NA,NA,F_Lure_6.bmp,0,0,1
107,1,60,NA,NA,NA,1,1.2021,NA,NA,O_Image_60.bmp,2,1,2
108,1,42,NA,NA,NA,2,0.53352,NA,NA,F_Lure_42.bmp,0,1,1
109,1,136,NA,NA,NA,1,1.3641,NA,NA,S_Lure_136.bmp,0,1,3
110,1,108,NA,NA,NA,1,0.00011621,NA,NA,S_Lure_108.bmp,0,0,3
111,1,5,NA,NA,NA,1,0.73158,NA,NA,F_Image_5.bmp,2,0,1
112,1,120,NA,NA,NA,1,0.56165,NA,NA,S_Image_120.bmp,1,1,3
113,1,71,NA,NA,NA,1,0.00011772,NA,NA,O_Image_71.bmp,2,1,2
114,1,103,NA,NA,NA,1,0.60704,NA,NA,S_Image_103.bmp,2,1,3
115,1,142,NA,NA,NA,1,0.61834,NA,NA,S_Lure_142.bmp,0,1,3
116,1,20,NA,NA,NA,2,0.00011681,NA,NA,F_Image_20.bmp,2,0,1
117,1,117,NA,NA,NA,2,6.2528,NA,NA,S_Lure_117.bmp,0,0,3
118,1,60,NA,NA,NA,1,0.35322,NA,NA,O_Lure_60.bmp,0,1,2
119,1,69,NA,NA,NA,1,0.58323,NA,NA,O_Lure_69.bmp,0,1,2
120,1,45,NA,NA,NA,2,0.91612,NA,NA,F_Image_45.bmp,2,1,1
121,1,44,NA,NA,NA,2,0.092073,NA,NA,F_Lure_44.bmp,0,0,1
122,1,68,NA,NA,NA,1,1.2775,NA,NA,O_Image_68.bmp,1,0,2
123,1,113,NA,NA,NA,1,0.6949,NA,NA,S_Image_113.bmp,2,0,3
124,1,25,NA,NA,NA,2,1.6062,NA,NA,F_Lure_25.bmp,0,1,1
125,1,119,NA,NA,NA,1,0.00011682,NA,NA,S_Image_119.bmp,2,1,3
126,1,47,NA,NA,NA,1,0.37905,NA,NA,F_Image_47.bmp,1,1,1
127,1,130,NA,NA,NA,1,2.7514,NA,NA,S_Image_130.bmp,1,0,3
128,1,119,NA,NA,NA,1,1.2137,NA,NA,S_Lure_119.bmp,0,1,3
129,1,82,NA,NA,NA,1,0.52903,NA,NA,O_Lure_82.bmp,0,1,2
130,1,8,NA,NA,NA,2,0.58252,NA,NA,F_Image_8.bmp,2,0,1
131,1,29,NA,NA,NA,1,0.72507,NA,NA,F_Lure_29.bmp,0,1,1
132,1,77,NA,NA,NA,1,0.12452,NA,NA,O_Lure_77.bmp,0,0,2
133,1,110,NA,NA,NA,1,0.3148,NA,NA,S_Lure_110.bmp,0,0,3
134,1,59,NA,NA,NA,1,0.45136,NA,NA,O_Image_59.bmp,1,0,2
135,1,26,NA,NA,NA,2,5.3157,NA,NA,F_Lure_26.bmp,0,0,1
136,1,23,NA,NA,NA,2,3.742,NA,NA,F_Lure_23.bmp,0,1,1
137,1,18,NA,NA,NA,2,0.10284,NA,NA,F_Lure_18.bmp,0,0,1
138,1,128,NA,NA,NA,1,1.217,NA,NA,S_Image_128.bmp,2,1,3
139,1,114,NA,NA,NA,1,0.053056,NA,NA,S_Image_114.bmp,1,0,3
140,1,121,NA,NA,NA,1,0.57507,NA,NA,S_Image_121.bmp,2,0,3
141,1,127,NA,NA,NA,1,0.50175,NA,NA,S_Lure_127.bmp,0,0,3
142,1,114,NA,NA,NA,1,0.57367,NA,NA,S_Lure_114.bmp,0,0,3
143,1,106,NA,NA,NA,1,0.092526,NA,NA,S_Lure_106.bmp,0,0,3
144,1,139,NA,NA,NA,1,1.2605,NA,NA,S_Image_139.bmp,1,0,3
145,1,66,NA,NA,NA,1,0.00012134,NA,NA,O_Lure_66.bmp,0,0,2
146,1,93,NA,NA,NA,1,0.029939,NA,NA,O_Lure_93.bmp,0,0,2
147,1,129,NA,NA,NA,1,2.1287,NA,NA,S_Image_129.bmp,1,1,3
148,1,19,NA,NA,NA,1,0.98328,NA,NA,F_Lure_19.bmp,0,0,1
149,1,24,NA,NA,NA,1,0.46082,NA,NA,F_Image_24.bmp,2,1,1
150,1,22,NA,NA,NA,2,0.28744,NA,NA,F_Lure_22.bmp,0,1,1
151,1,57,NA,NA,NA,1,0.44888,NA,NA,O_Lure_57.bmp,0,1,2
152,1,48,NA,NA,NA,1,0.00011681,NA,NA,F_Lure_48.bmp,0,1,1
153,1,97,NA,NA,NA,1,3.5042,NA,NA,S_Lure_97.bmp,0,1,3
154,1,31,NA,NA,NA,1,0.42495,NA,NA,F_Image_31.bmp,1,1,1
155,1,10,NA,NA,NA,1,0.00011651,NA,NA,F_Image_10.bmp,2,0,1
156,1,90,NA,NA,NA,1,0.00012376,NA,NA,O_Image_90.bmp,2,0,2
157,1,3,NA,NA,NA,1,0.25245,NA,NA,F_Lure_3.bmp,0,0,1
158,1,8,NA,NA,NA,2,0.00011712,NA,NA,F_Lure_8.bmp,0,0,1
159,1,21,NA,NA,NA,1,0.5113,NA,NA,F_Image_21.bmp,1,1,1
160,1,36,NA,NA,NA,2,1.1899,NA,NA,F_Image_36.bmp,1,1,1
161,1,141,NA,NA,NA,1,0.00012044,NA,NA,S_Image_141.bmp,2,0,3
162,1,98,NA,NA,NA,1,0.15066,NA,NA,S_Lure_98.bmp,0,1,3
163,1,138,NA,NA,NA,1,0.077394,NA,NA,S_Lure_138.bmp,0,0,3
164,1,108,NA,NA,NA,1,0.59726,NA,NA,S_Image_108.bmp,1,0,3
165,1,46,NA,NA,NA,2,0.43336,NA,NA,F_Lure_46.bmp,0,0,1
166,1,14,NA,NA,NA,1,0.3388,NA,NA,F_Lure_14.bmp,0,1,1
167,1,111,NA,NA,NA,1,0.25806,NA,NA,S_Image_111.bmp,2,0,3
168,1,25,NA,NA,NA,2,0.00014126,NA,NA,F_Image_25.bmp,1,1,1
169,1,82,NA,NA,NA,1,0.00011319,NA,NA,O_Image_82.bmp,2,1,2
170,1,140,NA,NA,NA,1,2.7481,NA,NA,S_Lure_140.bmp,0,1,3
171,1,109,NA,NA,NA,1,0.66578,NA,NA,S_Lure_109.bmp,0,1,3
172,1,130,NA,NA,NA,1,0.7477,NA,NA,S_Lure_130.bmp,0,0,3
173,1,49,NA,NA,NA,1,0.37702,NA,NA,O_Image_49.bmp,2,1,2
174,1,33,NA,NA,NA,1,0.69644,NA,NA,F_Lure_33.bmp,0,0,1
175,1,14,NA,NA,NA,1,0.57,NA,NA,F_Image_14.bmp,1,1,1
176,1,27,NA,NA,NA,1,0.15114,NA,NA,F_Lure_27.bmp,0,1,1
177,1,140,NA,NA,NA,1,0.63727,NA,NA,S_Image_140.bmp,1,1,3
178,1,69,NA,NA,NA,1,0.59211,NA,NA,O_Image_69.bmp,2,1,2
179,1,56,NA,NA,NA,1,0.38072,NA,NA,O_Image_56.bmp,1,1,2
180,1,74,NA,NA,NA,1,1.4007,NA,NA,O_Lure_74.bmp,0,0,2
181,1,70,NA,NA,NA,1,0.37935,NA,NA,O_Image_70.bmp,2,0,2
182,1,78,NA,NA,NA,1,2.0715,NA,NA,O_Lure_78.bmp,0,1,2
183,1,92,NA,NA,NA,1,1.4243,NA,NA,O_Image_92.bmp,1,1,2
184,1,39,NA,NA,NA,2,0.54746,NA,NA,F_Image_39.bmp,2,0,1
185,1,32,NA,NA,NA,2,0.46299,NA,NA,F_Lure_32.bmp,0,0,1
186,1,15,NA,NA,NA,1,0.695,NA,NA,F_Image_15.bmp,2,1,1
187,1,110,NA,NA,NA,1,0.55033,NA,NA,S_Image_110.bmp,2,0,3
188,1,51,NA,NA,NA,1,0.00012376,NA,NA,O_Lure_51.bmp,0,1,2
189,1,53,NA,NA,NA,1,0.2045,NA,NA,O_Lure_53.bmp,0,1,2
190,1,88,NA,NA,NA,1,0.38597,NA,NA,O_Lure_88.bmp,0,1,2
191,1,81,NA,NA,NA,1,0.23926,NA,NA,O_Image_81.bmp,1,0,2
192,1,2,NA,NA,NA,2,0.62659,NA,NA,F_Image_2.bmp,1,1,1
193,1,136,NA,NA,NA,1,0.50004,NA,NA,S_Image_136.bmp,2,1,3
194,1,16,NA,NA,NA,1,0.4442,NA,NA,F_Image_16.bmp,2,1,1
195,1,118,NA,NA,NA,1,0.45461,NA,NA,S_Lure_118.bmp,0,0,3
196,1,22,NA,NA,NA,2,0.52946,NA,NA,F_Image_22.bmp,1,1,1
197,1,128,NA,NA,NA,1,0.61483,NA,NA,S_Lure_128.bmp,0,1,3
198,1,143,NA,NA,NA,1,0.90692,NA,NA,S_Image_143.bmp,2,0,3
199,1,40,NA,NA,NA,2,0.069607,NA,NA,F_Image_40.bmp,1,0,1
200,1,132,NA,NA,NA,1,0.27615,NA,NA,S_Image_132.bmp,1,0,3
201,1,87,NA,NA,NA,1,0.88291,NA,NA,O_Lure_87.bmp,0,0,2
202,1,30,NA,NA,NA,1,0.34112,NA,NA,F_Image_30.bmp,1,1,1
203,1,34,NA,NA,NA,1,0.17768,NA,NA,F_Image_34.bmp,1,0,1
204,1,93,NA,NA,NA,1,0.39988,NA,NA,O_Image_93.bmp,1,0,2
205,1,54,NA,NA,NA,1,0.33044,NA,NA,O_Image_54.bmp,1,1,2
206,1,133,NA,NA,NA,1,0.20245,NA,NA,S_Image_133.bmp,1,0,3
207,1,12,NA,NA,NA,2,0.50246,NA,NA,F_Lure_12.bmp,0,1,1
208,1,9,NA,NA,NA,1,0.51127,NA,NA,F_Image_9.bmp,2,1,1
209,1,64,NA,NA,NA,1,0.66334,NA,NA,O_Image_64.bmp,1,0,2
210,1,107,NA,NA,NA,1,0.018745,NA,NA,S_Lure_107.bmp,0,1,3
211,1,104,NA,NA,NA,1,0.38341,NA,NA,S_Lure_104.bmp,0,0,3
212,1,1,NA,NA,NA,1,0.043524,NA,NA,F_Lure_1.bmp,0,0,1
213,1,134,NA,NA,NA,1,0.42216,NA,NA,S_Image_134.bmp,1,0,3
214,1,84,NA,NA,NA,1,0.12213,NA,NA,O_Image_84.bmp,1,1,2
215,1,13,NA,NA,NA,2,0.00011893,NA,NA,F_Image_13.bmp,1,0,1
216,1,41,NA,NA,NA,2,0.22416,NA,NA,F_Image_41.bmp,2,0,1
217,1,20,NA,NA,NA,2,0.56295,NA,NA,F_Lure_20.bmp,0,0,1
218,1,112,NA,NA,NA,1,0.2982,NA,NA,S_Image_112.bmp,1,1,3
219,1,61,NA,NA,NA,1,0.73831,NA,NA,O_Lure_61.bmp,0,1,2
220,1,109,NA,NA,NA,1,0.57046,NA,NA,S_Image_109.bmp,2,1,3
221,1,65,NA,NA,NA,1,0.65567,NA,NA,O_Image_65.bmp,1,0,2
222,1,103,NA,NA,NA,1,0.42701,NA,NA,S_Lure_103.bmp,0,1,3
223,1,144,NA,NA,NA,1,0.592,NA,NA,S_Image_144.bmp,2,0,3
224,1,74,NA,NA,NA,1,0.15657,NA,NA,O_Image_74.bmp,2,0,2
225,1,80,NA,NA,NA,1,0.00011862,NA,NA,O_Lure_80.bmp,0,0,2
226,1,73,NA,NA,NA,1,0.26002,NA,NA,O_Lure_73.bmp,0,0,2
227,1,49,NA,NA,NA,1,0.58284,NA,NA,O_Lure_49.bmp,0,1,2
228,1,102,NA,NA,NA,1,1.0834,NA,NA,S_Image_102.bmp,2,0,3
229,1,1,NA,NA,NA,1,2.0767,NA,NA,F_Image_1.bmp,2,0,1
230,1,4,NA,NA,NA,1,0.087477,NA,NA,F_Lure_4.bmp,0,0,1
231,1,105,NA,NA,NA,1,0.87415,NA,NA,S_Lure_105.bmp,0,1,3
232,1,141,NA,NA,NA,1,16.6434,NA,NA,S_Lure_141.bmp,0,0,3
233,1,116,NA,NA,NA,1,2.449,NA,NA,S_Image_116.bmp,2,1,3
234,1,55,NA,NA,NA,1,4.8205,NA,NA,O_Image_55.bmp,2,0,2
235,1,97,NA,NA,NA,1,4.1138,NA,NA,S_Image_97.bmp,1,1,3
236,1,121,NA,NA,NA,1,1.226,NA,NA,S_Lure_121.bmp,0,0,3
237,1,135,NA,NA,NA,1,0.30027,NA,NA,S_Image_135.bmp,1,1,3
238,1,84,NA,NA,NA,1,0.18023,NA,NA,O_Lure_84.bmp,0,1,2
239,1,115,NA,NA,NA,1,0.53887,NA,NA,S_Lure_115.bmp,0,0,3
240,1,35,NA,NA,NA,1,5.2187,NA,NA,F_Image_35.bmp,2,1,1
241,1,61,NA,NA,NA,1,1.0871,NA,NA,O_Image_61.bmp,2,1,2
242,1,47,NA,NA,NA,1,0.47114,NA,NA,F_Lure_47.bmp,0,1,1
243,1,101,NA,NA,NA,2,0.5686,NA,NA,S_Lure_101.bmp,0,1,3
244,1,38,NA,NA,NA,1,0.00012315,NA,NA,F_Lure_38.bmp,0,0,1
245,1,21,NA,NA,NA,1,0.51992,NA,NA,F_Lure_21.bmp,0,1,1
246,1,65,NA,NA,NA,1,0.51984,NA,NA,O_Lure_65.bmp,0,0,2
247,1,24,NA,NA,NA,2,0.50253,NA,NA,F_Lure_24.bmp,0,1,1
248,1,100,NA,NA,NA,2,0.00011983,NA,NA,S_Lure_100.bmp,0,0,3
249,1,81,NA,NA,NA,1,0.066675,NA,NA,O_Lure_81.bmp,0,0,2
250,1,85,NA,NA,NA,1,0.44483,NA,NA,O_Lure_85.bmp,0,1,2
251,1,36,NA,NA,NA,2,0.14211,NA,NA,F_Lure_36.bmp,0,1,1
252,1,106,NA,NA,NA,1,0.60409,NA,NA,S_Image_106.bmp,2,0,3
253,1,5,NA,NA,NA,1,0.36028,NA,NA,F_Lure_5.bmp,0,0,1
254,1,10,NA,NA,NA,1,4.7661,NA,NA,F_Lure_10.bmp,0,0,1
255,1,2,NA,NA,NA,2,1.0923,NA,NA,F_Lure_2.bmp,0,1,1
256,1,67,NA,NA,NA,1,0.38108,NA,NA,O_Image_67.bmp,2,1,2
257,1,102,NA,NA,NA,1,3.9302,NA,NA,S_Lure_102.bmp,0,0,3
258,1,72,NA,NA,NA,1,0.4238,NA,NA,O_Image_72.bmp,1,1,2
259,1,7,NA,NA,NA,2,1.7878,NA,NA,F_Image_7.bmp,1,1,1
260,1,55,NA,NA,NA,1,0.53593,NA,NA,O_Lure_55.bmp,0,0,2
261,1,16,NA,NA,NA,1,0.40599,NA,NA,F_Lure_16.bmp,0,1,1
262,1,117,NA,NA,NA,1,0.45795,NA,NA,S_Image_117.bmp,1,0,3
263,1,17,NA,NA,NA,2,0.1481,NA,NA,F_Image_17.bmp,2,0,1
264,1,75,NA,NA,NA,1,0.64075,NA,NA,O_Image_75.bmp,2,0,2
265,1,131,NA,NA,NA,1,0.74866,NA,NA,S_Lure_131.bmp,0,1,3
266,1,17,NA,NA,NA,2,0.73966,NA,NA,F_Lure_17.bmp,0,0,1
267,1,98,NA,NA,NA,1,0.065584,NA,NA,S_Image_98.bmp,1,1,3
268,1,12,NA,NA,NA,2,1.7157,NA,NA,F_Image_12.bmp,1,1,1
269,1,39,NA,NA,NA,2,0.00011742,NA,NA,F_Lure_39.bmp,0,0,1
270,1,79,NA,NA,NA,1,0.48044,NA,NA,O_Image_79.bmp,1,0,2
271,1,32,NA,NA,NA,1,0.35382,NA,NA,F_Image_32.bmp,1,0,1
272,1,123,NA,NA,NA,1,0.52044,NA,NA,S_Image_123.bmp,2,1,3
273,1,42,NA,NA,NA,2,0.00012255,NA,NA,F_Image_42.bmp,2,1,1
274,1,51,NA,NA,NA,1,0.42465,NA,NA,O_Image_51.bmp,2,1,2
275,1,131,NA,NA,NA,1,1.212,NA,NA,S_Image_131.bmp,1,1,3
276,1,68,NA,NA,NA,1,0.49663,NA,NA,O_Lure_68.bmp,0,0,2
277,1,76,NA,NA,NA,1,0.14539,NA,NA,O_Lure_76.bmp,0,0,2
278,1,124,NA,NA,NA,1,0.00011561,NA,NA,S_Image_124.bmp,1,1,3
279,1,83,NA,NA,NA,1,0.34288,NA,NA,O_Image_83.bmp,1,0,2
280,1,86,NA,NA,NA,1,0.62879,NA,NA,O_Lure_86.bmp,0,1,2
281,1,9,NA,NA,NA,1,0.15156,NA,NA,F_Lure_9.bmp,0,1,1
282,1,76,NA,NA,NA,1,0.64679,NA,NA,O_Image_76.bmp,2,0,2
283,1,95,NA,NA,NA,1,0.76887,NA,NA,O_Image_95.bmp,1,1,2
284,1,112,NA,NA,NA,1,0.47693,NA,NA,S_Lure_112.bmp,0,1,3
285,1,31,NA,NA,NA,1,0.069631,NA,NA,F_Lure_31.bmp,0,1,1
286,1,134,NA,NA,NA,1,0.60706,NA,NA,S_Lure_134.bmp,0,0,3
287,1,37,NA,NA,NA,2,0.41162,NA,NA,F_Image_37.bmp,2,1,1
288,1,62,NA,NA,NA,1,0.70311,NA,NA,O_Image_62.bmp,1,0,2
289,2,137,money,1,2,2,3.0905,1,NA,S_Image_137.bmp-S_Lure_137.bmp,1,1,3
290,2,127,seed,1,1,1,1.2866,1,NA,S_Image_127.bmp-S_Lure_127.bmp,1,0,3
291,2,46,antique,1,1,0,3.4997,0,NA,F_Image_46.bmp-F_Lure_46.bmp,1,0,1
292,2,65,alien,1,2,2,1.6184,1,NA,O_Image_65.bmp-O_Lure_65.bmp,1,0,2
293,2,81,harem,1,1,1,2.1672,1,NA,O_Image_81.bmp-O_Lure_81.bmp,1,0,2
294,2,3,corner,1,1,2,2.502,0,NA,F_Image_3.bmp-F_Lure_3.bmp,1,0,1
295,2,68,asphalt,1,2,2,1.1354,1,NA,O_Image_68.bmp-O_Lure_68.bmp,1,0,2
296,2,64,rock,1,2,2,1.9996,1,NA,O_Image_64.bmp-O_Lure_64.bmp,1,0,2
297,2,73,galaxy,1,1,1,1.6688,1,NA,O_Image_73.bmp-O_Lure_73.bmp,1,0,2
298,2,108,wreck,1,1,1,1.32,1,NA,S_Image_108.bmp-S_Lure_108.bmp,1,0,3
299,2,56,laundry,1,1,1,1.4487,1,NA,O_Image_56.bmp-O_Lure_56.bmp,1,1,2
300,2,22,shell,1,1,1,1.7478,1,NA,F_Image_22.bmp-F_Lure_22.bmp,1,1,1
301,2,140,honeymoon,1,2,2,1.5076,1,NA,S_Image_140.bmp-S_Lure_140.bmp,1,1,3
302,2,63,quake,1,2,1,2.2609,0,NA,O_Image_63.bmp-O_Lure_63.bmp,1,1,2
303,2,83,hurricane,1,2,0,3.4995,0,NA,O_Image_83.bmp-O_Lure_83.bmp,1,0,2
304,2,104,fuel,1,2,2,2.209,1,NA,S_Image_104.bmp-S_Lure_104.bmp,1,0,3
305,2,32,animal,1,2,2,1.5102,1,NA,F_Image_32.bmp-F_Lure_32.bmp,1,0,1
306,2,27,poison,1,2,2,1.5601,1,NA,F_Image_27.bmp-F_Lure_27.bmp,1,1,1
307,2,94,hostage,1,1,1,1.0153,1,NA,O_Image_94.bmp-O_Lure_94.bmp,1,0,2
308,2,25,cone,1,1,2,1.9079,0,NA,F_Image_25.bmp-F_Lure_25.bmp,1,1,1
309,2,88,angel,1,2,2,0.84577,1,NA,O_Image_88.bmp-O_Lure_88.bmp,1,1,2
310,2,33,costume,1,2,2,1.4809,1,NA,F_Image_33.bmp-F_Lure_33.bmp,1,0,1
311,2,114,board,1,1,2,2.4997,0,NA,S_Image_114.bmp-S_Lure_114.bmp,1,0,3
312,2,131,tube,1,2,2,1.9005,1,NA,S_Image_131.bmp-S_Lure_131.bmp,1,1,3
313,3,3,corner,1,1,2,1.9854,0,NA,F_Image_3.bmp-F_Lure_3.bmp,1,0,1
314,3,83,hurricane,1,1,1,0.70364,1,NA,O_Image_83.bmp-O_Lure_83.bmp,1,0,2
315,3,56,laundry,1,2,2,0.87278,1,NA,O_Image_56.bmp-O_Lure_56.bmp,1,1,2
316,3,81,harem,1,1,1,0.63549,1,NA,O_Image_81.bmp-O_Lure_81.bmp,1,0,2
317,3,131,tube,1,2,2,1.6318,1,NA,S_Image_131.bmp-S_Lure_131.bmp,1,1,3
318,3,108,wreck,1,2,2,1.5075,1,NA,S_Image_108.bmp-S_Lure_108.bmp,1,0,3
319,3,68,asphalt,1,2,2,0.47712,1,NA,O_Image_68.bmp-O_Lure_68.bmp,1,0,2
320,3,137,money,1,1,1,1.048,1,NA,S_Image_137.bmp-S_Lure_137.bmp,1,1,3
321,3,65,alien,1,1,1,0.98786,1,NA,O_Image_65.bmp-O_Lure_65.bmp,1,0,2
322,3,114,board,1,2,2,0.88976,1,NA,S_Image_114.bmp-S_Lure_114.bmp,1,0,3
323,3,88,angel,1,2,2,0.83573,1,NA,O_Image_88.bmp-O_Lure_88.bmp,1,1,2
324,3,32,animal,1,1,2,0.76763,0,NA,F_Image_32.bmp-F_Lure_32.bmp,1,0,1
325,3,140,honeymoon,1,2,2,2.4705,1,NA,S_Image_140.bmp-S_Lure_140.bmp,1,1,3
326,3,64,rock,1,2,2,2.2253,1,NA,O_Image_64.bmp-O_Lure_64.bmp,1,0,2
327,3,46,antique,1,2,2,1.1501,1,NA,F_Image_46.bmp-F_Lure_46.bmp,1,0,1
328,3,33,costume,1,1,1,1.0776,1,NA,F_Image_33.bmp-F_Lure_33.bmp,1,0,1
329,3,94,hostage,1,2,2,1.3916,1,NA,O_Image_94.bmp-O_Lure_94.bmp,1,0,2
330,3,104,fuel,1,1,1,1.1095,1,NA,S_Image_104.bmp-S_Lure_104.bmp,1,0,3
331,3,22,shell,1,2,2,2.3908,1,NA,F_Image_22.bmp-F_Lure_22.bmp,1,1,1
332,3,73,galaxy,1,2,2,2.189,1,NA,O_Image_73.bmp-O_Lure_73.bmp,1,0,2
333,3,63,quake,1,2,2,0.95502,1,NA,O_Image_63.bmp-O_Lure_63.bmp,1,1,2
334,3,127,seed,1,1,1,1.6589,1,NA,S_Image_127.bmp-S_Lure_127.bmp,1,0,3
335,3,25,cone,1,1,0,3.5,0,NA,F_Image_25.bmp-F_Lure_25.bmp,1,1,1
336,3,27,poison,1,1,1,1.5275,1,NA,F_Image_27.bmp-F_Lure_27.bmp,1,1,1
337,2,99,arch,2,1,1,1.5844,1,NA,S_Image_99.bmp-S_Lure_99.bmp,1,0,3
338,2,92,army,2,2,2,1.4466,1,NA,O_Image_92.bmp-O_Lure_92.bmp,1,1,2
339,2,134,sand,2,1,1,2.3938,1,NA,S_Image_134.bmp-S_Lure_134.bmp,1,0,3
340,2,7,cloud,2,1,0,3.4999,0,NA,F_Image_7.bmp-F_Lure_7.bmp,1,1,1
341,2,59,measles,2,1,1,2.6416,1,NA,O_Image_59.bmp-O_Lure_59.bmp,1,0,2
342,2,19,tail,2,1,1,2.0057,1,NA,F_Image_19.bmp-F_Lure_19.bmp,1,0,1
343,2,62,slope,2,1,2,2.0031,0,NA,O_Image_62.bmp-O_Lure_62.bmp,1,0,2
344,2,53,vegetable,2,2,2,2.3128,1,NA,O_Image_53.bmp-O_Lure_53.bmp,1,1,2
345,2,87,snow,2,2,2,3.0974,1,NA,O_Image_87.bmp-O_Lure_87.bmp,1,0,2
346,2,80,orchestra,2,1,1,1.5549,1,NA,O_Image_80.bmp-O_Lure_80.bmp,1,0,2
347,2,129,fire,2,2,2,2.3301,1,NA,S_Image_129.bmp-S_Lure_129.bmp,1,1,3
348,2,135,bubble,2,2,2,2.2342,1,NA,S_Image_135.bmp-S_Lure_135.bmp,1,1,3
349,2,84,crumb,2,1,1,1.9105,1,NA,O_Image_84.bmp-O_Lure_84.bmp,1,1,2
350,2,30,sunshine,2,1,1,1.2321,1,NA,F_Image_30.bmp-F_Lure_30.bmp,1,1,1
351,2,133,drizzle,2,2,2,1.8121,1,NA,S_Image_133.bmp-S_Lure_133.bmp,1,0,3
352,2,139,wool,2,1,1,2.6888,1,NA,S_Image_139.bmp-S_Lure_139.bmp,1,0,3
353,2,72,lever,2,1,1,0.77928,1,NA,O_Image_72.bmp-O_Lure_72.bmp,1,1,2
354,2,120,witch,2,1,0,3.4999,0,NA,S_Image_120.bmp-S_Lure_120.bmp,1,1,3
355,2,132,corpse,2,2,2,1.3222,1,NA,S_Image_132.bmp-S_Lure_132.bmp,1,0,3
356,2,98,flood,2,1,1,2.0429,1,NA,S_Image_98.bmp-S_Lure_98.bmp,1,1,3
357,2,21,arrow,2,1,1,2.2395,1,NA,F_Image_21.bmp-F_Lure_21.bmp,1,1,1
358,2,40,water,2,1,1,1.5473,1,NA,F_Image_40.bmp-F_Lure_40.bmp,1,0,1
359,2,86,shadow,2,1,1,1.6431,1,NA,O_Image_86.bmp-O_Lure_86.bmp,1,1,2
360,2,95,giant,2,1,1,1.5669,1,NA,O_Image_95.bmp-O_Lure_95.bmp,1,1,2
361,3,53,vegetable,2,1,1,1.3932,1,NA,O_Image_53.bmp-O_Lure_53.bmp,1,1,2
362,3,129,fire,2,1,1,0.86334,1,NA,S_Image_129.bmp-S_Lure_129.bmp,1,1,3
363,3,7,cloud,2,2,2,0.8258,1,NA,F_Image_7.bmp-F_Lure_7.bmp,1,1,1
364,3,87,snow,2,2,2,0.69465,1,NA,O_Image_87.bmp-O_Lure_87.bmp,1,0,2
365,3,139,wool,2,2,2,0.68008,1,NA,S_Image_139.bmp-S_Lure_139.bmp,1,0,3
366,3,135,bubble,2,1,1,0.57029,1,NA,S_Image_135.bmp-S_Lure_135.bmp,1,1,3
367,3,133,drizzle,2,1,1,1.4728,1,NA,S_Image_133.bmp-S_Lure_133.bmp,1,0,3
368,3,99,arch,2,1,1,1.1716,1,NA,S_Image_99.bmp-S_Lure_99.bmp,1,0,3
369,3,98,flood,2,1,1,1.2185,1,NA,S_Image_98.bmp-S_Lure_98.bmp,1,1,3
370,3,40,water,2,2,2,1.0555,1,NA,F_Image_40.bmp-F_Lure_40.bmp,1,0,1
371,3,92,army,2,2,2,0.69088,1,NA,O_Image_92.bmp-O_Lure_92.bmp,1,1,2
372,3,134,sand,2,1,1,2.4849,1,NA,S_Image_134.bmp-S_Lure_134.bmp,1,0,3
373,3,19,tail,2,2,2,1.3668,1,NA,F_Image_19.bmp-F_Lure_19.bmp,1,0,1
374,3,30,sunshine,2,1,1,1.4458,1,NA,F_Image_30.bmp-F_Lure_30.bmp,1,1,1
375,3,132,corpse,2,2,2,0.66578,1,NA,S_Image_132.bmp-S_Lure_132.bmp,1,0,3
376,3,86,shadow,2,2,2,0.73975,1,NA,O_Image_86.bmp-O_Lure_86.bmp,1,1,2
377,3,62,slope,2,2,2,0.63592,1,NA,O_Image_62.bmp-O_Lure_62.bmp,1,0,2
378,3,59,measles,2,2,2,0.56794,1,NA,O_Image_59.bmp-O_Lure_59.bmp,1,0,2
379,3,21,arrow,2,1,1,0.75878,1,NA,F_Image_21.bmp-F_Lure_21.bmp,1,1,1
380,3,95,giant,2,1,1,0.94223,1,NA,O_Image_95.bmp-O_Lure_95.bmp,1,1,2
381,3,84,crumb,2,1,1,0.94243,1,NA,O_Image_84.bmp-O_Lure_84.bmp,1,1,2
382,3,72,lever,2,1,1,0.70249,1,NA,O_Image_72.bmp-O_Lure_72.bmp,1,1,2
383,3,80,orchestra,2,1,1,0.46409,1,NA,O_Image_80.bmp-O_Lure_80.bmp,1,0,2
384,3,120,witch,2,2,2,0.69851,1,NA,S_Image_120.bmp-S_Lure_120.bmp,1,1,3
385,2,4,alcohol,3,1,1,1.9402,1,NA,F_Image_4.bmp-F_Lure_4.bmp,1,0,1
386,2,93,magnet,3,2,0,3.5,0,NA,O_Image_93.bmp-O_Lure_93.bmp,1,0,2
387,2,97,paper,3,2,2,1.238,1,NA,S_Image_97.bmp-S_Lure_97.bmp,1,1,3
388,2,2,breakfast,3,1,1,1.9937,1,NA,F_Image_2.bmp-F_Lure_2.bmp,1,1,1
389,2,36,marble,3,2,2,1.0883,1,NA,F_Image_36.bmp-F_Lure_36.bmp,1,1,1
390,2,138,wound,3,2,0,3.4996,0,NA,S_Image_138.bmp-S_Lure_138.bmp,1,0,3
391,2,12,tear,3,1,2,1.7716,0,NA,F_Image_12.bmp-F_Lure_12.bmp,1,1,1
392,2,47,steam,3,1,2,1.2501,0,NA,F_Image_47.bmp-F_Lure_47.bmp,1,1,1
393,2,13,stripe,3,2,2,2.7255,1,NA,F_Image_13.bmp-F_Lure_13.bmp,1,0,1
394,2,112,signal,3,1,1,0.83841,1,NA,S_Image_112.bmp-S_Lure_112.bmp,1,1,3
395,2,107,black,3,1,1,1.9787,1,NA,S_Image_107.bmp-S_Lure_107.bmp,1,1,3
396,2,79,attack,3,2,2,1.3124,1,NA,O_Image_79.bmp-O_Lure_79.bmp,1,0,2
397,2,130,kiss,3,2,2,2.3536,1,NA,S_Image_130.bmp-S_Lure_130.bmp,1,0,3
398,2,124,triangle,3,1,1,1.5369,1,NA,S_Image_124.bmp-S_Lure_124.bmp,1,1,3
399,2,85,spray,3,2,1,0.89694,0,NA,O_Image_85.bmp-O_Lure_85.bmp,1,1,2
400,2,125,menu,3,1,1,2.2822,1,NA,S_Image_125.bmp-S_Lure_125.bmp,1,0,3
401,2,34,sweat,3,1,2,1.1964,0,NA,F_Image_34.bmp-F_Lure_34.bmp,1,0,1
402,2,29,scar,3,2,2,1.3298,1,NA,F_Image_29.bmp-F_Lure_29.bmp,1,1,1
403,2,54,yellow,3,1,2,1.154,0,NA,O_Image_54.bmp-O_Lure_54.bmp,1,1,2
404,2,31,tourist,3,1,2,1.1135,0,NA,F_Image_31.bmp-F_Lure_31.bmp,1,1,1
405,2,14,stem,3,2,2,1.8584,1,NA,F_Image_14.bmp-F_Lure_14.bmp,1,1,1
406,2,48,rust,3,2,2,1.7176,1,NA,F_Image_48.bmp-F_Lure_48.bmp,1,1,1
407,2,117,spike,3,2,2,1.0945,1,NA,S_Image_117.bmp-S_Lure_117.bmp,1,0,3
408,2,28,ghost,3,2,2,1.4558,1,NA,F_Image_28.bmp-F_Lure_28.bmp,1,0,1
409,3,2,breakfast,3,2,2,1.8065,1,NA,F_Image_2.bmp-F_Lure_2.bmp,1,1,1
410,3,138,wound,3,2,2,1.5642,1,NA,S_Image_138.bmp-S_Lure_138.bmp,1,0,3
411,3,85,spray,3,2,2,0.77882,1,NA,O_Image_85.bmp-O_Lure_85.bmp,1,1,2
412,3,107,black,3,2,2,1.897,1,NA,S_Image_107.bmp-S_Lure_107.bmp,1,1,3
413,3,31,tourist,3,2,2,0.81063,1,NA,F_Image_31.bmp-F_Lure_31.bmp,1,1,1
414,3,29,scar,3,1,1,0.84012,1,NA,F_Image_29.bmp-F_Lure_29.bmp,1,1,1
415,3,12,tear,3,2,1,1.9877,0,NA,F_Image_12.bmp-F_Lure_12.bmp,1,1,1
416,3,54,yellow,3,2,2,1.7778,1,NA,O_Image_54.bmp-O_Lure_54.bmp,1,1,2
417,3,13,stripe,3,1,1,0.83996,1,NA,F_Image_13.bmp-F_Lure_13.bmp,1,0,1
418,3,79,attack,3,1,1,0.80419,1,NA,O_Image_79.bmp-O_Lure_79.bmp,1,0,2
419,3,93,magnet,3,2,2,0.47371,1,NA,O_Image_93.bmp-O_Lure_93.bmp,1,0,2
420,3,130,kiss,3,1,1,1.8044,1,NA,S_Image_130.bmp-S_Lure_130.bmp,1,0,3
421,3,36,marble,3,1,0,3.4998,0,NA,F_Image_36.bmp-F_Lure_36.bmp,1,1,1
422,3,117,spike,3,1,1,2.5552,1,NA,S_Image_117.bmp-S_Lure_117.bmp,1,0,3
423,3,125,menu,3,1,1,0.68276,1,NA,S_Image_125.bmp-S_Lure_125.bmp,1,0,3
424,3,48,rust,3,1,1,1.1487,1,NA,F_Image_48.bmp-F_Lure_48.bmp,1,1,1
425,3,14,stem,3,1,1,1.4441,1,NA,F_Image_14.bmp-F_Lure_14.bmp,1,1,1
426,3,34,sweat,3,2,2,0.78457,1,NA,F_Image_34.bmp-F_Lure_34.bmp,1,0,1
427,3,124,triangle,3,2,2,1.6944,1,NA,S_Image_124.bmp-S_Lure_124.bmp,1,1,3
428,3,112,signal,3,1,1,1.1759,1,NA,S_Image_112.bmp-S_Lure_112.bmp,1,1,3
429,3,28,ghost,3,2,2,1.2226,1,NA,F_Image_28.bmp-F_Lure_28.bmp,1,0,1
430,3,47,steam,3,1,0,3.4999,0,NA,F_Image_47.bmp-F_Lure_47.bmp,1,1,1
431,3,97,paper,3,2,2,1.7491,1,NA,S_Image_97.bmp-S_Lure_97.bmp,1,1,3
432,3,4,alcohol,3,1,1,1.1164,1,NA,F_Image_4.bmp-F_Lure_4.bmp,1,0,1
433,4,126,rust,1,1,1,1.5898,1,NA,S_Image_126.bmp-S_Lure_126.bmp,2,1,3
434,4,1,sand,1,1,1,2.0282,1,NA,F_Image_1.bmp-F_Lure_1.bmp,2,0,1
435,4,109,yellow,1,1,1,1.7601,1,NA,S_Image_109.bmp-S_Lure_109.bmp,2,1,3
436,4,111,rock,1,1,1,1.3276,1,NA,S_Image_111.bmp-S_Lure_111.bmp,2,0,3
437,4,11,quake,1,1,1,1.3764,1,NA,F_Image_11.bmp-F_Lure_11.bmp,2,1,1
438,4,76,kiss,1,2,2,1.983,1,NA,O_Image_76.bmp-O_Lure_76.bmp,2,0,2
439,4,115,harem,1,2,2,1.9171,1,NA,S_Image_115.bmp-S_Lure_115.bmp,2,0,3
440,4,41,seed,1,1,1,1.3658,1,NA,F_Image_41.bmp-F_Lure_41.bmp,2,0,1
441,4,100,attack,1,1,1,1.8446,1,NA,S_Image_100.bmp-S_Lure_100.bmp,2,0,3
442,4,58,marble,1,2,2,1.5525,1,NA,O_Image_58.bmp-O_Lure_58.bmp,2,1,2
443,4,90,wool,1,2,2,1.6805,1,NA,O_Image_90.bmp-O_Lure_90.bmp,2,0,2
444,4,136,tourist,1,1,1,1.0656,1,NA,S_Image_136.bmp-S_Lure_136.bmp,2,1,3
445,4,102,measles,1,1,1,2.1485,1,NA,S_Image_102.bmp-S_Lure_102.bmp,2,0,3
446,4,43,slope,1,1,1,1.1957,1,NA,F_Image_43.bmp-F_Lure_43.bmp,2,0,1
447,4,38,hostage,1,2,2,1.0172,1,NA,F_Image_38.bmp-F_Lure_38.bmp,2,0,1
448,4,101,shadow,1,2,2,2.1501,1,NA,S_Image_101.bmp-S_Lure_101.bmp,2,1,3
449,4,55,corner,1,2,2,2.1736,1,NA,O_Image_55.bmp-O_Lure_55.bmp,2,0,2
450,4,106,sweat,1,2,2,1.8362,1,NA,S_Image_106.bmp-S_Lure_106.bmp,2,0,3
451,4,74,ghost,1,1,2,2.0093,0,NA,O_Image_74.bmp-O_Lure_74.bmp,2,0,2
452,4,141,snow,1,1,1,3.0777,1,NA,S_Image_141.bmp-S_Lure_141.bmp,2,0,3
453,4,96,tail,1,1,1,1.6799,1,NA,O_Image_96.bmp-O_Lure_96.bmp,2,0,2
454,4,77,board,1,1,1,2.1141,1,NA,O_Image_77.bmp-O_Lure_77.bmp,2,0,2
455,4,16,angel,1,2,2,1.4349,1,NA,F_Image_16.bmp-F_Lure_16.bmp,2,1,1
456,4,82,black,1,2,2,2.1508,1,NA,O_Image_82.bmp-O_Lure_82.bmp,2,1,2
457,4,5,spike,2,2,2,1.4303,1,NA,F_Image_5.bmp-F_Lure_5.bmp,2,0,1
458,4,116,breakfast,2,2,2,2.2025,1,NA,S_Image_116.bmp-S_Lure_116.bmp,2,1,3
459,4,42,lever,2,1,2,2.9683,0,NA,F_Image_42.bmp-F_Lure_42.bmp,2,1,1
460,4,60,sunshine,2,2,1,2.5351,0,NA,O_Image_60.bmp-O_Lure_60.bmp,2,1,2
461,4,128,laundry,2,1,1,1.0629,1,NA,S_Image_128.bmp-S_Lure_128.bmp,2,1,3
462,4,69,stem,2,2,2,1.2338,1,NA,O_Image_69.bmp-O_Lure_69.bmp,2,1,2
463,4,52,wound,2,1,1,2.0619,1,NA,O_Image_52.bmp-O_Lure_52.bmp,2,0,2
464,4,18,hurricane,2,2,2,0.89646,1,NA,F_Image_18.bmp-F_Lure_18.bmp,2,0,1
465,4,15,spray,2,2,1,1.0501,0,NA,F_Image_15.bmp-F_Lure_15.bmp,2,1,1
466,4,119,tear,2,2,2,2.4134,1,NA,S_Image_119.bmp-S_Lure_119.bmp,2,1,3
467,4,118,alcohol,2,1,1,1.7861,1,NA,S_Image_118.bmp-S_Lure_118.bmp,2,0,3
468,4,105,shell,2,1,1,2.8082,1,NA,S_Image_105.bmp-S_Lure_105.bmp,2,1,3
469,4,8,menu,2,1,1,1.0457,1,NA,F_Image_8.bmp-F_Lure_8.bmp,2,0,1
470,4,39,magnet,2,1,1,3.1612,1,NA,F_Image_39.bmp-F_Lure_39.bmp,2,0,1
471,4,61,fire,2,2,2,1.792,1,NA,O_Image_61.bmp-O_Lure_61.bmp,2,1,2
472,4,123,cloud,2,1,1,1.4146,1,NA,S_Image_123.bmp-S_Lure_123.bmp,2,1,3
473,4,91,triangle,2,1,1,0.53082,1,NA,O_Image_91.bmp-O_Lure_91.bmp,2,1,2
474,4,23,army,2,1,1,1.7714,1,NA,F_Image_23.bmp-F_Lure_23.bmp,2,1,1
475,4,110,animal,2,1,1,1.2581,1,NA,S_Image_110.bmp-S_Lure_110.bmp,2,0,3
476,4,66,antique,2,2,2,0.68536,1,NA,O_Image_66.bmp-O_Lure_66.bmp,2,0,2
477,4,51,steam,2,1,1,2.7031,1,NA,O_Image_51.bmp-O_Lure_51.bmp,2,1,2
478,4,71,flood,2,2,2,1.3689,1,NA,O_Image_71.bmp-O_Lure_71.bmp,2,1,2
479,4,142,crumb,2,1,1,1.3677,1,NA,S_Image_142.bmp-S_Lure_142.bmp,2,1,3
480,4,121,costume,2,1,1,1.2064,1,NA,S_Image_121.bmp-S_Lure_121.bmp,2,0,3
481,4,70,corpse,3,1,1,1.9316,1,NA,O_Image_70.bmp-O_Lure_70.bmp,2,0,2
482,4,144,alien,3,2,2,1.1401,1,NA,S_Image_144.bmp-S_Lure_144.bmp,2,0,3
483,4,103,giant,3,2,2,2.6839,1,NA,S_Image_103.bmp-S_Lure_103.bmp,2,1,3
484,4,49,poison,3,2,2,1.3984,1,NA,O_Image_49.bmp-O_Lure_49.bmp,2,1,2
485,4,35,tube,3,1,2,3.0435,0,NA,F_Image_35.bmp-F_Lure_35.bmp,2,1,1
486,4,20,asphalt,3,2,2,2.3036,1,NA,F_Image_20.bmp-F_Lure_20.bmp,2,0,1
487,4,26,wreck,3,1,2,2.281,0,NA,F_Image_26.bmp-F_Lure_26.bmp,2,0,1
488,4,45,witch,3,1,1,1.3874,1,NA,F_Image_45.bmp-F_Lure_45.bmp,2,1,1
489,4,17,fuel,3,2,1,1.8254,0,NA,F_Image_17.bmp-F_Lure_17.bmp,2,0,1
490,4,50,paper,3,2,2,0.91006,1,NA,O_Image_50.bmp-O_Lure_50.bmp,2,1,2
491,4,9,signal,3,1,1,1.1999,1,NA,F_Image_9.bmp-F_Lure_9.bmp,2,1,1
492,4,89,arrow,3,2,2,1.0209,1,NA,O_Image_89.bmp-O_Lure_89.bmp,2,1,2
493,4,24,money,3,2,2,1.5696,1,NA,F_Image_24.bmp-F_Lure_24.bmp,2,1,1
494,4,78,bubble,3,2,1,2.4165,0,NA,O_Image_78.bmp-O_Lure_78.bmp,2,1,2
495,4,113,water,3,2,2,1.1741,1,NA,S_Image_113.bmp-S_Lure_113.bmp,2,0,3
496,4,6,orchestra,3,1,1,0.91614,1,NA,F_Image_6.bmp-F_Lure_6.bmp,2,0,1
497,4,44,galaxy,3,2,2,1.8768,1,NA,F_Image_44.bmp-F_Lure_44.bmp,2,0,1
498,4,37,vegetable,3,1,1,1.9034,1,NA,F_Image_37.bmp-F_Lure_37.bmp,2,1,1
499,4,122,cone,3,2,2,1.066,1,NA,S_Image_122.bmp-S_Lure_122.bmp,2,1,3
500,4,57,scar,3,2,2,1.8518,1,NA,O_Image_57.bmp-O_Lure_57.bmp,2,1,2
501,4,10,arch,3,1,1,1.2791,1,NA,F_Image_10.bmp-F_Lure_10.bmp,2,0,1
502,4,143,stripe,3,1,1,1.2893,1,NA,S_Image_143.bmp-S_Lure_143.bmp,2,0,3
503,4,67,honeymoon,3,1,1,1.4514,1,NA,O_Image_67.bmp-O_Lure_67.bmp,2,1,2
504,4,75,drizzle,3,2,2,1.6869,1,NA,O_Image_75.bmp-O_Lure_75.bmp,2,0,2
