Trial,Cond,ImageNum,Cue,Block,Correct,Response,RT,Accuracy,CueRep,fName,ImageType,Baseline,Category
1,1,14,NA,NA,NA,1,0.33016,NA,NA,F_Image_14.bmp,2,0,1
2,1,62,NA,NA,NA,1,20.3623,NA,NA,O_Lure_62.bmp,0,0,2
3,1,139,NA,NA,NA,1,3.201,NA,NA,S_Lure_139.bmp,0,1,3
4,1,99,NA,NA,NA,2,0.74172,NA,NA,S_Image_99.bmp,1,0,3
5,1,78,NA,NA,NA,2,1.1499,NA,NA,O_Image_78.bmp,2,0,2
6,1,60,NA,NA,NA,1,0.19598,NA,NA,O_Image_60.bmp,1,0,2
7,1,116,NA,NA,NA,1,2.5858,NA,NA,S_Image_116.bmp,1,0,3
8,1,79,NA,NA,NA,1,0.79268,NA,NA,O_Lure_79.bmp,0,0,2
9,1,118,NA,NA,NA,1,0.47014,NA,NA,S_Lure_118.bmp,0,1,3
10,1,23,NA,NA,NA,2,2.4641,NA,NA,F_Lure_23.bmp,0,1,1
11,1,118,NA,NA,NA,1,1.4909,NA,NA,S_Image_118.bmp,1,1,3
12,1,86,NA,NA,NA,1,2.9175,NA,NA,O_Lure_86.bmp,0,1,2
13,1,121,NA,NA,NA,2,2.0217,NA,NA,S_Lure_121.bmp,0,1,3
14,1,58,NA,NA,NA,1,0.073892,NA,NA,O_Lure_58.bmp,0,1,2
15,1,56,NA,NA,NA,1,2.3405,NA,NA,O_Lure_56.bmp,0,0,2
16,1,7,NA,NA,NA,1,3.7318,NA,NA,F_Image_7.bmp,2,0,1
17,1,61,NA,NA,NA,1,1.3328,NA,NA,O_Image_61.bmp,2,0,2
18,1,87,NA,NA,NA,1,0.50092,NA,NA,O_Image_87.bmp,2,1,2
19,1,77,NA,NA,NA,1,0.60567,NA,NA,O_Image_77.bmp,1,0,2
20,1,35,NA,NA,NA,2,1.5949,NA,NA,F_Lure_35.bmp,0,0,1
21,1,19,NA,NA,NA,2,1.4244,NA,NA,F_Image_19.bmp,1,0,1
22,1,133,NA,NA,NA,2,0.053803,NA,NA,S_Image_133.bmp,1,1,3
23,1,93,NA,NA,NA,1,0.47316,NA,NA,O_Image_93.bmp,1,0,2
24,1,62,NA,NA,NA,1,1.2119,NA,NA,O_Image_62.bmp,2,0,2
25,1,65,NA,NA,NA,1,0.28924,NA,NA,O_Lure_65.bmp,0,0,2
26,1,67,NA,NA,NA,1,0.29146,NA,NA,O_Lure_67.bmp,0,1,2
27,1,49,NA,NA,NA,1,0.42138,NA,NA,O_Image_49.bmp,1,0,2
28,1,63,NA,NA,NA,1,0.34545,NA,NA,O_Lure_63.bmp,0,1,2
29,1,69,NA,NA,NA,1,0.26496,NA,NA,O_Image_69.bmp,1,1,2
30,1,130,NA,NA,NA,2,0.26843,NA,NA,S_Image_130.bmp,1,0,3
31,1,11,NA,NA,NA,1,0.28557,NA,NA,F_Image_11.bmp,2,1,1
32,1,82,NA,NA,NA,1,0.1357,NA,NA,O_Lure_82.bmp,0,1,2
33,1,69,NA,NA,NA,1,0.27169,NA,NA,O_Lure_69.bmp,0,1,2
34,1,71,NA,NA,NA,1,0.31452,NA,NA,O_Lure_71.bmp,0,0,2
35,1,55,NA,NA,NA,1,0.34719,NA,NA,O_Image_55.bmp,1,0,2
36,1,2,NA,NA,NA,1,0.62461,NA,NA,F_Lure_2.bmp,0,1,1
37,1,83,NA,NA,NA,1,0.26065,NA,NA,O_Lure_83.bmp,0,0,2
38,1,44,NA,NA,NA,1,1.0473,NA,NA,F_Lure_44.bmp,0,0,1
39,1,43,NA,NA,NA,1,0.35403,NA,NA,F_Lure_43.bmp,0,1,1
40,1,73,NA,NA,NA,1,0.024901,NA,NA,O_Lure_73.bmp,0,0,2
41,1,127,NA,NA,NA,1,0.2224,NA,NA,S_Lure_127.bmp,0,0,3
42,1,136,NA,NA,NA,2,0.9959,NA,NA,S_Lure_136.bmp,0,0,3
43,1,21,NA,NA,NA,1,0.25631,NA,NA,F_Image_21.bmp,1,0,1
44,1,85,NA,NA,NA,1,0.29908,NA,NA,O_Lure_85.bmp,0,0,2
45,1,123,NA,NA,NA,1,0.34778,NA,NA,S_Lure_123.bmp,0,0,3
46,1,36,NA,NA,NA,2,2.8817,NA,NA,F_Lure_36.bmp,0,1,1
47,1,74,NA,NA,NA,1,0.34592,NA,NA,O_Image_74.bmp,2,0,2
48,1,64,NA,NA,NA,1,0.32813,NA,NA,O_Lure_64.bmp,0,1,2
49,1,8,NA,NA,NA,2,1.7973,NA,NA,F_Image_8.bmp,1,1,1
50,1,73,NA,NA,NA,1,0.34626,NA,NA,O_Image_73.bmp,1,0,2
51,1,71,NA,NA,NA,1,0.00013583,NA,NA,O_Image_71.bmp,1,0,2
52,1,79,NA,NA,NA,1,1.9473,NA,NA,O_Image_79.bmp,1,0,2
53,1,38,NA,NA,NA,2,5.8987,NA,NA,F_Image_38.bmp,2,0,1
54,1,106,NA,NA,NA,2,3.9222,NA,NA,S_Lure_106.bmp,0,1,3
55,1,120,NA,NA,NA,2,0.31211,NA,NA,S_Lure_120.bmp,0,1,3
56,1,82,NA,NA,NA,1,0.24725,NA,NA,O_Image_82.bmp,1,1,2
57,1,10,NA,NA,NA,1,0.41928,NA,NA,F_Lure_10.bmp,0,1,1
58,1,4,NA,NA,NA,1,0.3179,NA,NA,F_Lure_4.bmp,0,1,1
59,1,139,NA,NA,NA,1,0.30267,NA,NA,S_Image_139.bmp,2,1,3
60,1,141,NA,NA,NA,1,0.28824,NA,NA,S_Image_141.bmp,1,0,3
61,1,129,NA,NA,NA,2,2.0174,NA,NA,S_Lure_129.bmp,0,0,3
62,1,9,NA,NA,NA,1,0.31901,NA,NA,F_Lure_9.bmp,0,0,1
63,1,84,NA,NA,NA,2,0.83171,NA,NA,O_Image_84.bmp,1,1,2
64,1,133,NA,NA,NA,2,0.62707,NA,NA,S_Lure_133.bmp,0,1,3
65,1,64,NA,NA,NA,1,0.27848,NA,NA,O_Image_64.bmp,2,1,2
66,1,25,NA,NA,NA,1,0.26325,NA,NA,F_Image_25.bmp,1,0,1
67,1,140,NA,NA,NA,1,0.3692,NA,NA,S_Image_140.bmp,1,0,3
68,1,142,NA,NA,NA,2,1.4713,NA,NA,S_Lure_142.bmp,0,1,3
69,1,68,NA,NA,NA,1,0.30599,NA,NA,O_Lure_68.bmp,0,1,2
70,1,83,NA,NA,NA,1,0.45142,NA,NA,O_Image_83.bmp,1,0,2
71,1,41,NA,NA,NA,2,0.94999,NA,NA,F_Lure_41.bmp,0,0,1
72,1,6,NA,NA,NA,1,0.3487,NA,NA,F_Image_6.bmp,2,0,1
73,1,106,NA,NA,NA,1,0.30946,NA,NA,S_Image_106.bmp,2,1,3
74,1,30,NA,NA,NA,2,0.33629,NA,NA,F_Lure_30.bmp,0,1,1
75,1,66,NA,NA,NA,1,0.27229,NA,NA,O_Lure_66.bmp,0,0,2
76,1,44,NA,NA,NA,1,2.4669,NA,NA,F_Image_44.bmp,2,0,1
77,1,93,NA,NA,NA,1,0.28508,NA,NA,O_Lure_93.bmp,0,0,2
78,1,128,NA,NA,NA,2,0.24781,NA,NA,S_Lure_128.bmp,0,1,3
79,1,96,NA,NA,NA,1,0.28197,NA,NA,O_Lure_96.bmp,0,1,2
80,1,134,NA,NA,NA,2,0.29255,NA,NA,S_Image_134.bmp,1,0,3
81,1,132,NA,NA,NA,2,1.7172,NA,NA,S_Image_132.bmp,2,1,3
82,1,70,NA,NA,NA,1,0.26011,NA,NA,O_Lure_70.bmp,0,0,2
83,1,29,NA,NA,NA,1,0.28536,NA,NA,F_Image_29.bmp,1,1,1
84,1,90,NA,NA,NA,1,0.3368,NA,NA,O_Image_90.bmp,2,1,2
85,1,57,NA,NA,NA,1,0.00013191,NA,NA,O_Lure_57.bmp,0,1,2
86,1,97,NA,NA,NA,1,0.50885,NA,NA,S_Image_97.bmp,2,0,3
87,1,103,NA,NA,NA,1,0.27029,NA,NA,S_Image_103.bmp,2,1,3
88,1,137,NA,NA,NA,1,0.21767,NA,NA,S_Lure_137.bmp,0,1,3
89,1,47,NA,NA,NA,1,0.37303,NA,NA,F_Image_47.bmp,2,0,1
90,1,115,NA,NA,NA,2,0.29061,NA,NA,S_Lure_115.bmp,0,0,3
91,1,46,NA,NA,NA,2,0.32385,NA,NA,F_Image_46.bmp,1,1,1
92,1,67,NA,NA,NA,1,0.29125,NA,NA,O_Image_67.bmp,2,1,2
93,1,17,NA,NA,NA,1,3.709,NA,NA,F_Image_17.bmp,2,0,1
94,1,105,NA,NA,NA,2,1.4533,NA,NA,S_Lure_105.bmp,0,1,3
95,1,31,NA,NA,NA,1,0.27946,NA,NA,F_Lure_31.bmp,0,1,1
96,1,12,NA,NA,NA,2,0.26615,NA,NA,F_Lure_12.bmp,0,1,1
97,1,116,NA,NA,NA,1,0.23637,NA,NA,S_Lure_116.bmp,0,0,3
98,1,78,NA,NA,NA,1,0.27294,NA,NA,O_Lure_78.bmp,0,0,2
99,1,47,NA,NA,NA,1,0.39561,NA,NA,F_Lure_47.bmp,0,0,1
100,1,24,NA,NA,NA,1,0.25779,NA,NA,F_Lure_24.bmp,0,0,1
101,1,27,NA,NA,NA,1,0.19642,NA,NA,F_Lure_27.bmp,0,1,1
102,1,112,NA,NA,NA,1,0.24172,NA,NA,S_Image_112.bmp,2,1,3
103,1,50,NA,NA,NA,1,0.00013311,NA,NA,O_Image_50.bmp,2,0,2
104,1,26,NA,NA,NA,2,0.23055,NA,NA,F_Lure_26.bmp,0,1,1
105,1,98,NA,NA,NA,1,0.34396,NA,NA,S_Image_98.bmp,2,0,3
106,1,89,NA,NA,NA,1,0.27067,NA,NA,O_Image_89.bmp,2,0,2
107,1,103,NA,NA,NA,1,0.37804,NA,NA,S_Lure_103.bmp,0,1,3
108,1,48,NA,NA,NA,1,2.198,NA,NA,F_Lure_48.bmp,0,0,1
109,1,36,NA,NA,NA,2,0.39231,NA,NA,F_Image_36.bmp,1,1,1
110,1,136,NA,NA,NA,1,0.26093,NA,NA,S_Image_136.bmp,1,0,3
111,1,54,NA,NA,NA,1,0.00015123,NA,NA,O_Lure_54.bmp,0,0,2
112,1,22,NA,NA,NA,2,0.30034,NA,NA,F_Lure_22.bmp,0,0,1
113,1,126,NA,NA,NA,2,0.28578,NA,NA,S_Image_126.bmp,2,1,3
114,1,59,NA,NA,NA,1,0.28775,NA,NA,O_Lure_59.bmp,0,1,2
115,1,110,NA,NA,NA,1,0.30314,NA,NA,S_Image_110.bmp,2,0,3
116,1,137,NA,NA,NA,1,0.27179,NA,NA,S_Image_137.bmp,1,1,3
117,1,101,NA,NA,NA,2,0.32934,NA,NA,S_Image_101.bmp,1,1,3
118,1,72,NA,NA,NA,1,1.2811,NA,NA,O_Image_72.bmp,2,1,2
119,1,140,NA,NA,NA,1,0.62664,NA,NA,S_Lure_140.bmp,0,0,3
120,1,35,NA,NA,NA,2,2.4373,NA,NA,F_Image_35.bmp,2,0,1
121,1,76,NA,NA,NA,1,0.36678,NA,NA,O_Image_76.bmp,2,1,2
122,1,135,NA,NA,NA,1,0.31636,NA,NA,S_Image_135.bmp,2,1,3
123,1,88,NA,NA,NA,1,1.0922,NA,NA,O_Lure_88.bmp,0,1,2
124,1,37,NA,NA,NA,2,0.61027,NA,NA,F_Image_37.bmp,2,1,1
125,1,18,NA,NA,NA,1,0.82043,NA,NA,F_Lure_18.bmp,0,1,1
126,1,20,NA,NA,NA,2,0.27981,NA,NA,F_Image_20.bmp,2,1,1
127,1,122,NA,NA,NA,2,0.28919,NA,NA,S_Image_122.bmp,2,1,3
128,1,32,NA,NA,NA,2,0.27254,NA,NA,F_Image_32.bmp,1,0,1
129,1,1,NA,NA,NA,1,0.28866,NA,NA,F_Lure_1.bmp,0,1,1
130,1,104,NA,NA,NA,2,0.27528,NA,NA,S_Image_104.bmp,1,1,3
131,1,138,NA,NA,NA,1,1.7393,NA,NA,S_Lure_138.bmp,0,0,3
132,1,135,NA,NA,NA,1,0.26488,NA,NA,S_Lure_135.bmp,0,1,3
133,1,58,NA,NA,NA,1,0.2748,NA,NA,O_Image_58.bmp,2,1,2
134,1,119,NA,NA,NA,1,0.91541,NA,NA,S_Image_119.bmp,2,0,3
135,1,60,NA,NA,NA,1,0.30092,NA,NA,O_Lure_60.bmp,0,0,2
136,1,92,NA,NA,NA,1,0.25371,NA,NA,O_Image_92.bmp,1,0,2
137,1,112,NA,NA,NA,1,0.26371,NA,NA,S_Lure_112.bmp,0,1,3
138,1,17,NA,NA,NA,2,0.31309,NA,NA,F_Lure_17.bmp,0,0,1
139,1,53,NA,NA,NA,1,0.11179,NA,NA,O_Image_53.bmp,2,0,2
140,1,102,NA,NA,NA,2,0.27913,NA,NA,S_Image_102.bmp,1,0,3
141,1,2,NA,NA,NA,1,0.11258,NA,NA,F_Image_2.bmp,1,1,1
142,1,111,NA,NA,NA,1,0.26462,NA,NA,S_Lure_111.bmp,0,1,3
143,1,3,NA,NA,NA,2,0.23541,NA,NA,F_Lure_3.bmp,0,1,1
144,1,46,NA,NA,NA,2,0.29158,NA,NA,F_Lure_46.bmp,0,1,1
145,1,13,NA,NA,NA,2,0.27477,NA,NA,F_Lure_13.bmp,0,0,1
146,1,65,NA,NA,NA,1,0.23549,NA,NA,O_Image_65.bmp,2,0,2
147,1,39,NA,NA,NA,2,0.26285,NA,NA,F_Lure_39.bmp,0,1,1
148,1,129,NA,NA,NA,2,0.32961,NA,NA,S_Image_129.bmp,1,0,3
149,1,48,NA,NA,NA,1,1.4257,NA,NA,F_Image_48.bmp,2,0,1
150,1,26,NA,NA,NA,2,0.32306,NA,NA,F_Image_26.bmp,1,1,1
151,1,120,NA,NA,NA,2,0.81907,NA,NA,S_Image_120.bmp,2,1,3
152,1,27,NA,NA,NA,1,0.2872,NA,NA,F_Image_27.bmp,2,1,1
153,1,124,NA,NA,NA,2,0.92854,NA,NA,S_Lure_124.bmp,0,1,3
154,1,40,NA,NA,NA,2,0.30391,NA,NA,F_Image_40.bmp,1,0,1
155,1,104,NA,NA,NA,2,0.31193,NA,NA,S_Lure_104.bmp,0,1,3
156,1,81,NA,NA,NA,1,0.27063,NA,NA,O_Lure_81.bmp,0,0,2
157,1,117,NA,NA,NA,2,0.092771,NA,NA,S_Lure_117.bmp,0,0,3
158,1,99,NA,NA,NA,2,0.30658,NA,NA,S_Lure_99.bmp,0,0,3
159,1,14,NA,NA,NA,1,0.00016873,NA,NA,F_Lure_14.bmp,0,0,1
160,1,33,NA,NA,NA,2,0.92551,NA,NA,F_Lure_33.bmp,0,0,1
161,1,111,NA,NA,NA,1,0.00013311,NA,NA,S_Image_111.bmp,1,1,3
162,1,119,NA,NA,NA,1,0.00013311,NA,NA,S_Lure_119.bmp,0,0,3
163,1,30,NA,NA,NA,2,0.45049,NA,NA,F_Image_30.bmp,1,1,1
164,1,15,NA,NA,NA,2,0.24308,NA,NA,F_Image_15.bmp,2,1,1
165,1,86,NA,NA,NA,1,0.25373,NA,NA,O_Image_86.bmp,2,1,2
166,1,61,NA,NA,NA,1,0.4959,NA,NA,O_Lure_61.bmp,0,0,2
167,1,130,NA,NA,NA,2,0.48784,NA,NA,S_Lure_130.bmp,0,0,3
168,1,7,NA,NA,NA,1,0.2639,NA,NA,F_Lure_7.bmp,0,0,1
169,1,114,NA,NA,NA,1,0.62597,NA,NA,S_Image_114.bmp,2,0,3
170,1,11,NA,NA,NA,1,0.27758,NA,NA,F_Lure_11.bmp,0,1,1
171,1,80,NA,NA,NA,1,0.004093,NA,NA,O_Lure_80.bmp,0,0,2
172,1,52,NA,NA,NA,1,0.25554,NA,NA,O_Lure_52.bmp,0,1,2
173,1,138,NA,NA,NA,1,3.6654,NA,NA,S_Image_138.bmp,2,0,3
174,1,55,NA,NA,NA,1,0.27765,NA,NA,O_Lure_55.bmp,0,0,2
175,1,53,NA,NA,NA,1,0.52041,NA,NA,O_Lure_53.bmp,0,0,2
176,1,51,NA,NA,NA,1,1.8383,NA,NA,O_Image_51.bmp,1,1,2
177,1,56,NA,NA,NA,1,0.33116,NA,NA,O_Image_56.bmp,1,0,2
178,1,25,NA,NA,NA,1,0.6106,NA,NA,F_Lure_25.bmp,0,0,1
179,1,29,NA,NA,NA,1,0.30189,NA,NA,F_Lure_29.bmp,0,1,1
180,1,40,NA,NA,NA,2,0.334,NA,NA,F_Lure_40.bmp,0,0,1
181,1,122,NA,NA,NA,2,0.35012,NA,NA,S_Lure_122.bmp,0,1,3
182,1,57,NA,NA,NA,1,0.060671,NA,NA,O_Image_57.bmp,1,1,2
183,1,13,NA,NA,NA,2,0.29419,NA,NA,F_Image_13.bmp,2,0,1
184,1,128,NA,NA,NA,2,1.5122,NA,NA,S_Image_128.bmp,1,1,3
185,1,1,NA,NA,NA,1,0.29687,NA,NA,F_Image_1.bmp,2,1,1
186,1,143,NA,NA,NA,2,0.33837,NA,NA,S_Lure_143.bmp,0,0,3
187,1,144,NA,NA,NA,1,0.26447,NA,NA,S_Image_144.bmp,2,0,3
188,1,28,NA,NA,NA,2,0.41796,NA,NA,F_Image_28.bmp,2,1,1
189,1,100,NA,NA,NA,2,0.58263,NA,NA,S_Lure_100.bmp,0,1,3
190,1,66,NA,NA,NA,1,0.29114,NA,NA,O_Image_66.bmp,2,0,2
191,1,45,NA,NA,NA,2,0.28527,NA,NA,F_Lure_45.bmp,0,1,1
192,1,101,NA,NA,NA,1,0.27264,NA,NA,S_Lure_101.bmp,0,1,3
193,1,50,NA,NA,NA,1,0.33996,NA,NA,O_Lure_50.bmp,0,0,2
194,1,125,NA,NA,NA,1,0.1635,NA,NA,S_Image_125.bmp,2,0,3
195,1,125,NA,NA,NA,1,0.25813,NA,NA,S_Lure_125.bmp,0,0,3
196,1,75,NA,NA,NA,1,0.16639,NA,NA,O_Lure_75.bmp,0,0,2
197,1,91,NA,NA,NA,1,0.2628,NA,NA,O_Lure_91.bmp,0,1,2
198,1,124,NA,NA,NA,1,1.2108,NA,NA,S_Image_124.bmp,1,1,3
199,1,68,NA,NA,NA,1,0.00014157,NA,NA,O_Image_68.bmp,2,1,2
200,1,3,NA,NA,NA,1,4.8294,NA,NA,F_Image_3.bmp,1,1,1
201,1,45,NA,NA,NA,1,0.29913,NA,NA,F_Image_45.bmp,1,1,1
202,1,22,NA,NA,NA,1,0.27587,NA,NA,F_Image_22.bmp,1,0,1
203,1,18,NA,NA,NA,1,0.2373,NA,NA,F_Image_18.bmp,1,1,1
204,1,134,NA,NA,NA,2,0.26657,NA,NA,S_Lure_134.bmp,0,0,3
205,1,88,NA,NA,NA,1,0.54062,NA,NA,O_Image_88.bmp,1,1,2
206,1,24,NA,NA,NA,1,0.26142,NA,NA,F_Image_24.bmp,2,0,1
207,1,117,NA,NA,NA,2,0.24878,NA,NA,S_Image_117.bmp,2,0,3
208,1,81,NA,NA,NA,1,0.11687,NA,NA,O_Image_81.bmp,1,0,2
209,1,108,NA,NA,NA,2,0.5344,NA,NA,S_Image_108.bmp,2,0,3
210,1,39,NA,NA,NA,2,0.26913,NA,NA,F_Image_39.bmp,2,1,1
211,1,72,NA,NA,NA,1,0.26308,NA,NA,O_Lure_72.bmp,0,1,2
212,1,85,NA,NA,NA,1,0.21775,NA,NA,O_Image_85.bmp,2,0,2
213,1,141,NA,NA,NA,1,1.237,NA,NA,S_Lure_141.bmp,0,0,3
214,1,41,NA,NA,NA,2,0.36117,NA,NA,F_Image_41.bmp,2,0,1
215,1,113,NA,NA,NA,1,0.24136,NA,NA,S_Lure_113.bmp,0,0,3
216,1,84,NA,NA,NA,1,0.24321,NA,NA,O_Lure_84.bmp,0,1,2
217,1,16,NA,NA,NA,1,0.14073,NA,NA,F_Image_16.bmp,2,1,1
218,1,15,NA,NA,NA,1,0.26343,NA,NA,F_Lure_15.bmp,0,1,1
219,1,89,NA,NA,NA,1,0.009523,NA,NA,O_Lure_89.bmp,0,0,2
220,1,74,NA,NA,NA,1,0.26886,NA,NA,O_Lure_74.bmp,0,0,2
221,1,114,NA,NA,NA,1,0.20769,NA,NA,S_Lure_114.bmp,0,0,3
222,1,32,NA,NA,NA,2,0.26767,NA,NA,F_Lure_32.bmp,0,0,1
223,1,19,NA,NA,NA,2,0.30957,NA,NA,F_Lure_19.bmp,0,0,1
224,1,95,NA,NA,NA,1,0.23031,NA,NA,O_Image_95.bmp,1,1,2
225,1,12,NA,NA,NA,2,0.28304,NA,NA,F_Image_12.bmp,2,1,1
226,1,144,NA,NA,NA,1,0.27705,NA,NA,S_Lure_144.bmp,0,0,3
227,1,33,NA,NA,NA,1,0.27117,NA,NA,F_Image_33.bmp,2,0,1
228,1,8,NA,NA,NA,2,0.26596,NA,NA,F_Lure_8.bmp,0,1,1
229,1,123,NA,NA,NA,1,0.8426,NA,NA,S_Image_123.bmp,1,0,3
230,1,126,NA,NA,NA,2,0.27593,NA,NA,S_Lure_126.bmp,0,1,3
231,1,63,NA,NA,NA,1,0.00013311,NA,NA,O_Image_63.bmp,2,1,2
232,1,121,NA,NA,NA,1,0.30963,NA,NA,S_Image_121.bmp,1,1,3
233,1,97,NA,NA,NA,1,0.18354,NA,NA,S_Lure_97.bmp,0,0,3
234,1,37,NA,NA,NA,2,0.33876,NA,NA,F_Lure_37.bmp,0,1,1
235,1,34,NA,NA,NA,1,0.30818,NA,NA,F_Lure_34.bmp,0,0,1
236,1,4,NA,NA,NA,1,0.18101,NA,NA,F_Image_4.bmp,1,1,1
237,1,76,NA,NA,NA,1,0.36431,NA,NA,O_Lure_76.bmp,0,1,2
238,1,6,NA,NA,NA,2,0.30629,NA,NA,F_Lure_6.bmp,0,0,1
239,1,43,NA,NA,NA,1,0.20305,NA,NA,F_Image_43.bmp,1,1,1
240,1,102,NA,NA,NA,2,0.26239,NA,NA,S_Lure_102.bmp,0,0,3
241,1,54,NA,NA,NA,1,0.12056,NA,NA,O_Image_54.bmp,1,0,2
242,1,70,NA,NA,NA,1,0.16062,NA,NA,O_Image_70.bmp,2,0,2
243,1,107,NA,NA,NA,2,1.5093,NA,NA,S_Lure_107.bmp,0,1,3
244,1,142,NA,NA,NA,2,0.33142,NA,NA,S_Image_142.bmp,2,1,3
245,1,143,NA,NA,NA,2,0.37012,NA,NA,S_Image_143.bmp,2,0,3
246,1,20,NA,NA,NA,2,0.23206,NA,NA,F_Lure_20.bmp,0,1,1
247,1,105,NA,NA,NA,2,0.29249,NA,NA,S_Image_105.bmp,2,1,3
248,1,77,NA,NA,NA,1,0.00013493,NA,NA,O_Lure_77.bmp,0,0,2
249,1,110,NA,NA,NA,2,0.37095,NA,NA,S_Lure_110.bmp,0,0,3
250,1,28,NA,NA,NA,1,0.00013643,NA,NA,F_Lure_28.bmp,0,1,1
251,1,108,NA,NA,NA,2,0.26835,NA,NA,S_Lure_108.bmp,0,0,3
252,1,131,NA,NA,NA,2,0.23518,NA,NA,S_Lure_131.bmp,0,1,3
253,1,92,NA,NA,NA,1,0.0001307,NA,NA,O_Lure_92.bmp,0,0,2
254,1,96,NA,NA,NA,1,0.30857,NA,NA,O_Image_96.bmp,1,1,2
255,1,127,NA,NA,NA,1,0.19922,NA,NA,S_Image_127.bmp,1,0,3
256,1,38,NA,NA,NA,1,0.28459,NA,NA,F_Lure_38.bmp,0,0,1
257,1,98,NA,NA,NA,2,0.64389,NA,NA,S_Lure_98.bmp,0,0,3
258,1,80,NA,NA,NA,1,0.021435,NA,NA,O_Image_80.bmp,1,0,2
259,1,109,NA,NA,NA,1,0.44608,NA,NA,S_Lure_109.bmp,0,1,3
260,1,59,NA,NA,NA,1,0.3028,NA,NA,O_Image_59.bmp,1,1,2
261,1,5,NA,NA,NA,1,0.19948,NA,NA,F_Lure_5.bmp,0,1,1
262,1,90,NA,NA,NA,1,0.33106,NA,NA,O_Lure_90.bmp,0,1,2
263,1,52,NA,NA,NA,1,0.34518,NA,NA,O_Image_52.bmp,2,1,2
264,1,91,NA,NA,NA,1,0.00013825,NA,NA,O_Image_91.bmp,2,1,2
265,1,31,NA,NA,NA,1,0.28843,NA,NA,F_Image_31.bmp,1,1,1
266,1,115,NA,NA,NA,2,0.27513,NA,NA,S_Image_115.bmp,1,0,3
267,1,5,NA,NA,NA,1,1.5065,NA,NA,F_Image_5.bmp,1,1,1
268,1,34,NA,NA,NA,1,0.26536,NA,NA,F_Image_34.bmp,1,0,1
269,1,16,NA,NA,NA,1,0.00013613,NA,NA,F_Lure_16.bmp,0,1,1
270,1,51,NA,NA,NA,1,0.31999,NA,NA,O_Lure_51.bmp,0,1,2
271,1,107,NA,NA,NA,1,0.33733,NA,NA,S_Image_107.bmp,1,1,3
272,1,10,NA,NA,NA,1,0.2474,NA,NA,F_Image_10.bmp,2,1,1
273,1,113,NA,NA,NA,1,0.34697,NA,NA,S_Image_113.bmp,2,0,3
274,1,75,NA,NA,NA,1,0.24216,NA,NA,O_Image_75.bmp,1,0,2
275,1,9,NA,NA,NA,1,0.80353,NA,NA,F_Image_9.bmp,1,0,1
276,1,42,NA,NA,NA,2,0.27963,NA,NA,F_Image_42.bmp,1,0,1
277,1,95,NA,NA,NA,1,0.2338,NA,NA,O_Lure_95.bmp,0,1,2
278,1,109,NA,NA,NA,1,0.23712,NA,NA,S_Image_109.bmp,1,1,3
279,1,23,NA,NA,NA,2,0.26174,NA,NA,F_Image_23.bmp,1,1,1
280,1,21,NA,NA,NA,1,0.27846,NA,NA,F_Lure_21.bmp,0,0,1
281,1,132,NA,NA,NA,2,0.26262,NA,NA,S_Lure_132.bmp,0,1,3
282,1,49,NA,NA,NA,1,0.00013402,NA,NA,O_Lure_49.bmp,0,0,2
283,1,94,NA,NA,NA,1,0.10739,NA,NA,O_Lure_94.bmp,0,1,2
284,1,87,NA,NA,NA,1,0.00013311,NA,NA,O_Lure_87.bmp,0,1,2
285,1,131,NA,NA,NA,1,0.32538,NA,NA,S_Image_131.bmp,1,1,3
286,1,94,NA,NA,NA,1,0.069028,NA,NA,O_Image_94.bmp,2,1,2
287,1,42,NA,NA,NA,1,0.22951,NA,NA,F_Lure_42.bmp,0,0,1
288,1,100,NA,NA,NA,2,0.10697,NA,NA,S_Image_100.bmp,2,1,3
289,2,29,fuel,1,2,0,3.4996,0,NA,F_Image_29.bmp-F_Lure_29.bmp,1,1,1
290,2,30,spike,1,1,1,1.8557,1,NA,F_Image_30.bmp-F_Lure_30.bmp,1,1,1
291,2,43,stripe,1,1,1,2.4992,1,NA,F_Image_43.bmp-F_Lure_43.bmp,1,1,1
292,2,137,stem,1,2,0,3.5,0,NA,S_Image_137.bmp-S_Lure_137.bmp,1,1,3
293,2,36,tube,1,1,1,1.1825,1,NA,F_Image_36.bmp-F_Lure_36.bmp,1,1,1
294,2,77,harem,1,1,1,2.0042,1,NA,O_Image_77.bmp-O_Lure_77.bmp,1,0,2
295,2,136,orchestra,1,2,2,1.5376,1,NA,S_Image_136.bmp-S_Lure_136.bmp,1,0,3
296,2,129,galaxy,1,1,2,1.7138,0,NA,S_Image_129.bmp-S_Lure_129.bmp,1,0,3
297,2,26,steam,1,1,2,2.2986,0,NA,F_Image_26.bmp-F_Lure_26.bmp,1,1,1
298,2,82,rock,1,1,1,1.1323,1,NA,O_Image_82.bmp-O_Lure_82.bmp,1,1,2
299,2,96,seed,1,1,2,2.348,0,NA,O_Image_96.bmp-O_Lure_96.bmp,1,1,2
300,2,34,cloud,1,1,2,1.5878,0,NA,F_Image_34.bmp-F_Lure_34.bmp,1,0,1
301,2,3,board,1,2,1,2.5615,0,NA,F_Image_3.bmp-F_Lure_3.bmp,1,1,1
302,2,23,quake,1,1,2,2.4805,0,NA,F_Image_23.bmp-F_Lure_23.bmp,1,1,1
303,2,92,money,1,2,1,2.2749,0,NA,O_Image_92.bmp-O_Lure_92.bmp,1,0,2
304,2,102,poison,1,1,1,2.9734,1,NA,S_Image_102.bmp-S_Lure_102.bmp,1,0,3
305,2,56,arrow,1,2,2,1.0284,1,NA,O_Image_56.bmp-O_Lure_56.bmp,1,0,2
306,2,99,wreck,1,2,2,1.2486,1,NA,S_Image_99.bmp-S_Lure_99.bmp,1,0,3
307,2,22,giant,1,1,2,1.8601,0,NA,F_Image_22.bmp-F_Lure_22.bmp,1,0,1
308,2,5,arch,1,1,1,1.3116,1,NA,F_Image_5.bmp-F_Lure_5.bmp,1,1,1
309,2,21,tear,1,1,1,2.6405,1,NA,F_Image_21.bmp-F_Lure_21.bmp,1,0,1
310,2,71,magnet,1,2,2,1.7002,1,NA,O_Image_71.bmp-O_Lure_71.bmp,1,0,2
311,2,73,laundry,1,1,2,1.6137,0,NA,O_Image_73.bmp-O_Lure_73.bmp,1,0,2
312,2,49,menu,1,1,2,1.6508,0,NA,O_Image_49.bmp-O_Lure_49.bmp,1,0,2
313,3,3,board,1,2,2,2.5615,1,NA,F_Image_3.bmp-F_Lure_3.bmp,1,1,1
314,3,36,tube,1,2,2,1.9282,1,NA,F_Image_36.bmp-F_Lure_36.bmp,1,1,1
315,3,34,cloud,1,2,2,1.3445,1,NA,F_Image_34.bmp-F_Lure_34.bmp,1,0,1
316,3,129,galaxy,1,1,2,1.752,0,NA,S_Image_129.bmp-S_Lure_129.bmp,1,0,3
317,3,96,seed,1,1,1,0.9912,1,NA,O_Image_96.bmp-O_Lure_96.bmp,1,1,2
318,3,49,menu,1,2,1,0.97376,0,NA,O_Image_49.bmp-O_Lure_49.bmp,1,0,2
319,3,5,arch,1,2,2,1.1806,1,NA,F_Image_5.bmp-F_Lure_5.bmp,1,1,1
320,3,56,arrow,1,1,1,1.1622,1,NA,O_Image_56.bmp-O_Lure_56.bmp,1,0,2
321,3,71,magnet,1,2,2,1.329,1,NA,O_Image_71.bmp-O_Lure_71.bmp,1,0,2
322,3,26,steam,1,1,2,1.6652,0,NA,F_Image_26.bmp-F_Lure_26.bmp,1,1,1
323,3,102,poison,1,1,2,0.92412,0,NA,S_Image_102.bmp-S_Lure_102.bmp,1,0,3
324,3,137,stem,1,2,2,0.88463,1,NA,S_Image_137.bmp-S_Lure_137.bmp,1,1,3
325,3,77,harem,1,2,1,1.0308,0,NA,O_Image_77.bmp-O_Lure_77.bmp,1,0,2
326,3,21,tear,1,2,2,1.0912,1,NA,F_Image_21.bmp-F_Lure_21.bmp,1,0,1
327,3,29,fuel,1,2,2,1.3971,1,NA,F_Image_29.bmp-F_Lure_29.bmp,1,1,1
328,3,82,rock,1,1,2,1.3226,0,NA,O_Image_82.bmp-O_Lure_82.bmp,1,1,2
329,3,23,quake,1,2,2,0.86749,1,NA,F_Image_23.bmp-F_Lure_23.bmp,1,1,1
330,3,73,laundry,1,2,2,0.79807,1,NA,O_Image_73.bmp-O_Lure_73.bmp,1,0,2
331,3,30,spike,1,1,2,1.2119,0,NA,F_Image_30.bmp-F_Lure_30.bmp,1,1,1
332,3,99,wreck,1,2,2,0.78434,1,NA,S_Image_99.bmp-S_Lure_99.bmp,1,0,3
333,3,136,orchestra,1,1,2,1.1268,0,NA,S_Image_136.bmp-S_Lure_136.bmp,1,0,3
334,3,43,stripe,1,1,1,2.8551,1,NA,F_Image_43.bmp-F_Lure_43.bmp,1,1,1
335,3,92,money,1,1,1,1.043,1,NA,O_Image_92.bmp-O_Lure_92.bmp,1,0,2
336,3,22,giant,1,1,2,1.2309,0,NA,F_Image_22.bmp-F_Lure_22.bmp,1,0,1
337,2,51,fire,2,2,0,3.5001,0,NA,O_Image_51.bmp-O_Lure_51.bmp,1,1,2
338,2,45,shadow,2,1,0,3.5001,0,NA,F_Image_45.bmp-F_Lure_45.bmp,1,1,1
339,2,19,snow,2,2,2,1.0552,1,NA,F_Image_19.bmp-F_Lure_19.bmp,1,0,1
340,2,118,water,2,1,2,1.2905,0,NA,S_Image_118.bmp-S_Lure_118.bmp,1,1,3
341,2,79,tail,2,2,2,1.8123,1,NA,O_Image_79.bmp-O_Lure_79.bmp,1,0,2
342,2,121,sweat,2,1,2,1.2974,0,NA,S_Image_121.bmp-S_Lure_121.bmp,1,1,3
343,2,141,paper,2,1,1,1.4105,1,NA,S_Image_141.bmp-S_Lure_141.bmp,1,0,3
344,2,60,wool,2,1,2,1.568,0,NA,O_Image_60.bmp-O_Lure_60.bmp,1,0,2
345,2,4,costume,2,2,2,1.031,1,NA,F_Image_4.bmp-F_Lure_4.bmp,1,1,1
346,2,115,ghost,2,2,1,1.3149,0,NA,S_Image_115.bmp-S_Lure_115.bmp,1,0,3
347,2,124,crumb,2,2,2,1.5717,1,NA,S_Image_124.bmp-S_Lure_124.bmp,1,1,3
348,2,116,sunshine,2,1,2,1.0909,0,NA,S_Image_116.bmp-S_Lure_116.bmp,1,0,3
349,2,40,marble,2,2,2,1.6686,1,NA,F_Image_40.bmp-F_Lure_40.bmp,1,0,1
350,2,46,army,2,2,2,0.77568,1,NA,F_Image_46.bmp-F_Lure_46.bmp,1,1,1
351,2,75,tourist,2,2,1,1.1423,0,NA,O_Image_75.bmp-O_Lure_75.bmp,1,0,2
352,2,80,cone,2,1,1,1.1026,1,NA,O_Image_80.bmp-O_Lure_80.bmp,1,0,2
353,2,59,corpse,2,2,2,1.12,1,NA,O_Image_59.bmp-O_Lure_59.bmp,1,1,2
354,2,54,signal,2,2,2,1.4167,1,NA,O_Image_54.bmp-O_Lure_54.bmp,1,0,2
355,2,123,lever,2,2,1,2.1737,0,NA,S_Image_123.bmp-S_Lure_123.bmp,1,0,3
356,2,127,honeymoon,2,2,2,1.1245,1,NA,S_Image_127.bmp-S_Lure_127.bmp,1,0,3
357,2,134,shell,2,2,2,1.1811,1,NA,S_Image_134.bmp-S_Lure_134.bmp,1,0,3
358,2,111,black,2,2,2,1.3549,1,NA,S_Image_111.bmp-S_Lure_111.bmp,1,1,3
359,2,130,hurricane,2,1,1,1.0506,1,NA,S_Image_130.bmp-S_Lure_130.bmp,1,0,3
360,2,32,angel,2,2,2,1.8221,1,NA,F_Image_32.bmp-F_Lure_32.bmp,1,0,1
361,3,116,sunshine,2,2,0,3.4996,0,NA,S_Image_116.bmp-S_Lure_116.bmp,1,0,3
362,3,130,hurricane,2,1,2,1.6159,0,NA,S_Image_130.bmp-S_Lure_130.bmp,1,0,3
363,3,4,costume,2,2,2,0.69289,1,NA,F_Image_4.bmp-F_Lure_4.bmp,1,1,1
364,3,127,honeymoon,2,2,2,0.83902,1,NA,S_Image_127.bmp-S_Lure_127.bmp,1,0,3
365,3,80,cone,2,1,1,0.77898,1,NA,O_Image_80.bmp-O_Lure_80.bmp,1,0,2
366,3,60,wool,2,1,1,1.1052,1,NA,O_Image_60.bmp-O_Lure_60.bmp,1,0,2
367,3,32,angel,2,2,2,0.6024,1,NA,F_Image_32.bmp-F_Lure_32.bmp,1,0,1
368,3,118,water,2,1,2,0.94394,0,NA,S_Image_118.bmp-S_Lure_118.bmp,1,1,3
369,3,19,snow,2,1,2,3.0558,0,NA,F_Image_19.bmp-F_Lure_19.bmp,1,0,1
370,3,40,marble,2,2,2,1.2434,1,NA,F_Image_40.bmp-F_Lure_40.bmp,1,0,1
371,3,123,lever,2,1,1,1.1109,1,NA,S_Image_123.bmp-S_Lure_123.bmp,1,0,3
372,3,115,ghost,2,2,2,0.99172,1,NA,S_Image_115.bmp-S_Lure_115.bmp,1,0,3
373,3,121,sweat,2,1,1,1.51,1,NA,S_Image_121.bmp-S_Lure_121.bmp,1,1,3
374,3,141,paper,2,1,1,2.4713,1,NA,S_Image_141.bmp-S_Lure_141.bmp,1,0,3
375,3,124,crumb,2,2,2,0.83386,1,NA,S_Image_124.bmp-S_Lure_124.bmp,1,1,3
376,3,51,fire,2,2,2,0.88657,1,NA,O_Image_51.bmp-O_Lure_51.bmp,1,1,2
377,3,46,army,2,2,2,0.81653,1,NA,F_Image_46.bmp-F_Lure_46.bmp,1,1,1
378,3,75,tourist,2,2,2,1.1329,1,NA,O_Image_75.bmp-O_Lure_75.bmp,1,0,2
379,3,134,shell,2,1,2,1.2215,0,NA,S_Image_134.bmp-S_Lure_134.bmp,1,0,3
380,3,111,black,2,2,1,1.3299,0,NA,S_Image_111.bmp-S_Lure_111.bmp,1,1,3
381,3,45,shadow,2,1,1,3.1059,1,NA,F_Image_45.bmp-F_Lure_45.bmp,1,1,1
382,3,79,tail,2,1,2,1.2355,0,NA,O_Image_79.bmp-O_Lure_79.bmp,1,0,2
383,3,59,corpse,2,1,1,0.95172,1,NA,O_Image_59.bmp-O_Lure_59.bmp,1,1,2
384,3,54,signal,2,2,1,2.2075,0,NA,O_Image_54.bmp-O_Lure_54.bmp,1,0,2
385,2,42,triangle,3,2,0,3.4999,0,NA,F_Image_42.bmp-F_Lure_42.bmp,1,0,1
386,2,84,asphalt,3,2,2,1.5428,1,NA,O_Image_84.bmp-O_Lure_84.bmp,1,1,2
387,2,57,measles,3,1,1,1.5913,1,NA,O_Image_57.bmp-O_Lure_57.bmp,1,1,2
388,2,93,wound,3,2,1,1.3092,0,NA,O_Image_93.bmp-O_Lure_93.bmp,1,0,2
389,2,2,scar,3,2,2,1.9666,1,NA,F_Image_2.bmp-F_Lure_2.bmp,1,1,1
390,2,18,hostage,3,1,1,1.3572,1,NA,F_Image_18.bmp-F_Lure_18.bmp,1,1,1
391,2,140,animal,3,2,2,1.789,1,NA,S_Image_140.bmp-S_Lure_140.bmp,1,0,3
392,2,69,sand,3,1,0,3.4996,0,NA,O_Image_69.bmp-O_Lure_69.bmp,1,1,2
393,2,8,yellow,3,2,2,1.0847,1,NA,F_Image_8.bmp-F_Lure_8.bmp,1,1,1
394,2,128,alien,3,1,2,1.695,0,NA,S_Image_128.bmp-S_Lure_128.bmp,1,1,3
395,2,131,flood,3,1,1,3.144,1,NA,S_Image_131.bmp-S_Lure_131.bmp,1,1,3
396,2,88,breakfast,3,2,2,0.93552,1,NA,O_Image_88.bmp-O_Lure_88.bmp,1,1,2
397,2,81,slope,3,2,2,0.91951,1,NA,O_Image_81.bmp-O_Lure_81.bmp,1,0,2
398,2,9,vegetable,3,1,1,1.3207,1,NA,F_Image_9.bmp-F_Lure_9.bmp,1,0,1
399,2,83,witch,3,1,2,0.81723,0,NA,O_Image_83.bmp-O_Lure_83.bmp,1,0,2
400,2,55,corner,3,2,1,0.75799,0,NA,O_Image_55.bmp-O_Lure_55.bmp,1,0,2
401,2,107,rust,3,2,1,1.1257,0,NA,S_Image_107.bmp-S_Lure_107.bmp,1,1,3
402,2,109,attack,3,1,1,1.3904,1,NA,S_Image_109.bmp-S_Lure_109.bmp,1,1,3
403,2,104,kiss,3,2,2,0.9487,1,NA,S_Image_104.bmp-S_Lure_104.bmp,1,1,3
404,2,25,alcohol,3,2,2,1.388,1,NA,F_Image_25.bmp-F_Lure_25.bmp,1,0,1
405,2,101,bubble,3,1,2,1.6739,0,NA,S_Image_101.bmp-S_Lure_101.bmp,1,1,3
406,2,31,spray,3,1,2,0.94089,0,NA,F_Image_31.bmp-F_Lure_31.bmp,1,1,1
407,2,95,drizzle,3,2,2,0.82131,1,NA,O_Image_95.bmp-O_Lure_95.bmp,1,1,2
408,2,133,antique,3,2,1,1.338,0,NA,S_Image_133.bmp-S_Lure_133.bmp,1,1,3
409,3,104,kiss,3,2,2,1.157,1,NA,S_Image_104.bmp-S_Lure_104.bmp,1,1,3
410,3,133,antique,3,2,1,1.1969,0,NA,S_Image_133.bmp-S_Lure_133.bmp,1,1,3
411,3,140,animal,3,2,2,0.93039,1,NA,S_Image_140.bmp-S_Lure_140.bmp,1,0,3
412,3,8,yellow,3,1,1,1.1783,1,NA,F_Image_8.bmp-F_Lure_8.bmp,1,1,1
413,3,55,corner,3,2,2,1.4243,1,NA,O_Image_55.bmp-O_Lure_55.bmp,1,0,2
414,3,25,alcohol,3,2,2,0.89341,1,NA,F_Image_25.bmp-F_Lure_25.bmp,1,0,1
415,3,18,hostage,3,1,1,1.1031,1,NA,F_Image_18.bmp-F_Lure_18.bmp,1,1,1
416,3,9,vegetable,3,1,1,0.59292,1,NA,F_Image_9.bmp-F_Lure_9.bmp,1,0,1
417,3,81,slope,3,2,2,0.95869,1,NA,O_Image_81.bmp-O_Lure_81.bmp,1,0,2
418,3,42,triangle,3,1,2,1.0703,0,NA,F_Image_42.bmp-F_Lure_42.bmp,1,0,1
419,3,131,flood,3,1,1,1.1773,1,NA,S_Image_131.bmp-S_Lure_131.bmp,1,1,3
420,3,107,rust,3,2,1,0.79912,0,NA,S_Image_107.bmp-S_Lure_107.bmp,1,1,3
421,3,2,scar,3,2,2,0.78103,1,NA,F_Image_2.bmp-F_Lure_2.bmp,1,1,1
422,3,88,breakfast,3,2,2,1.8269,1,NA,O_Image_88.bmp-O_Lure_88.bmp,1,1,2
423,3,128,alien,3,1,2,1.4235,0,NA,S_Image_128.bmp-S_Lure_128.bmp,1,1,3
424,3,84,asphalt,3,2,2,1.2843,1,NA,O_Image_84.bmp-O_Lure_84.bmp,1,1,2
425,3,83,witch,3,2,2,0.7826,1,NA,O_Image_83.bmp-O_Lure_83.bmp,1,0,2
426,3,31,spray,3,2,2,2.8764,1,NA,F_Image_31.bmp-F_Lure_31.bmp,1,1,1
427,3,69,sand,3,1,1,1.2077,1,NA,O_Image_69.bmp-O_Lure_69.bmp,1,1,2
428,3,93,wound,3,1,2,0.91713,0,NA,O_Image_93.bmp-O_Lure_93.bmp,1,0,2
429,3,57,measles,3,2,2,1.3656,1,NA,O_Image_57.bmp-O_Lure_57.bmp,1,1,2
430,3,95,drizzle,3,2,1,1.1725,0,NA,O_Image_95.bmp-O_Lure_95.bmp,1,1,2
431,3,109,attack,3,2,2,0.88321,1,NA,S_Image_109.bmp-S_Lure_109.bmp,1,1,3
432,3,101,bubble,3,1,1,0.82168,1,NA,S_Image_101.bmp-S_Lure_101.bmp,1,1,3
433,4,33,shell,1,1,1,1.4355,1,NA,F_Image_33.bmp-F_Lure_33.bmp,2,0,1
434,4,11,water,1,1,1,1.3516,1,NA,F_Image_11.bmp-F_Lure_11.bmp,2,1,1
435,4,117,giant,1,1,1,1.3671,1,NA,S_Image_117.bmp-S_Lure_117.bmp,2,0,3
436,4,39,asphalt,1,1,1,1.142,1,NA,F_Image_39.bmp-F_Lure_39.bmp,2,1,1
437,4,106,tube,1,1,1,1.0298,1,NA,S_Image_106.bmp-S_Lure_106.bmp,2,1,3
438,4,110,triangle,1,1,1,1.3781,1,NA,S_Image_110.bmp-S_Lure_110.bmp,2,0,3
439,4,41,tail,1,1,2,1.0004,0,NA,F_Image_41.bmp-F_Lure_41.bmp,2,0,1
440,4,138,signal,1,2,2,0.9819,1,NA,S_Image_138.bmp-S_Lure_138.bmp,2,0,3
441,4,38,hurricane,1,1,1,2.0116,1,NA,F_Image_38.bmp-F_Lure_38.bmp,2,0,1
442,4,120,arch,1,1,1,0.81666,1,NA,S_Image_120.bmp-S_Lure_120.bmp,2,1,3
443,4,125,angel,1,1,2,0.89369,0,NA,S_Image_125.bmp-S_Lure_125.bmp,2,0,3
444,4,10,stem,1,1,2,1.4478,0,NA,F_Image_10.bmp-F_Lure_10.bmp,2,1,1
445,4,24,sunshine,1,2,1,1.603,0,NA,F_Image_24.bmp-F_Lure_24.bmp,2,0,1
446,4,44,tourist,1,2,2,0.88053,1,NA,F_Image_44.bmp-F_Lure_44.bmp,2,0,1
447,4,139,spike,1,2,2,2.3067,1,NA,S_Image_139.bmp-S_Lure_139.bmp,2,1,3
448,4,78,galaxy,1,2,2,0.77184,1,NA,O_Image_78.bmp-O_Lure_78.bmp,2,0,2
449,4,122,drizzle,1,2,2,1.9627,1,NA,S_Image_122.bmp-S_Lure_122.bmp,2,1,3
450,4,142,army,1,2,1,0.96947,0,NA,S_Image_142.bmp-S_Lure_142.bmp,2,1,3
451,4,108,wound,1,2,2,2.4885,1,NA,S_Image_108.bmp-S_Lure_108.bmp,2,0,3
452,4,135,fire,1,2,2,0.87455,1,NA,S_Image_135.bmp-S_Lure_135.bmp,2,1,3
453,4,53,paper,1,2,2,1.1655,1,NA,O_Image_53.bmp-O_Lure_53.bmp,2,0,2
454,4,37,sweat,1,1,1,1.4279,1,NA,F_Image_37.bmp-F_Lure_37.bmp,2,1,1
455,4,72,kiss,1,1,1,1.6319,1,NA,O_Image_72.bmp-O_Lure_72.bmp,2,1,2
456,4,114,magnet,1,2,1,1.0924,0,NA,S_Image_114.bmp-S_Lure_114.bmp,2,0,3
457,4,89,honeymoon,2,2,2,0.8311,1,NA,O_Image_89.bmp-O_Lure_89.bmp,2,0,2
458,4,48,slope,2,1,1,1.0673,1,NA,F_Image_48.bmp-F_Lure_48.bmp,2,0,1
459,4,28,flood,2,2,1,1.1984,0,NA,F_Image_28.bmp-F_Lure_28.bmp,2,1,1
460,4,105,stripe,2,1,0,3.4997,0,NA,S_Image_105.bmp-S_Lure_105.bmp,2,1,3
461,4,126,breakfast,2,2,2,1.7569,1,NA,S_Image_126.bmp-S_Lure_126.bmp,2,1,3
462,4,50,animal,2,2,1,2.2765,0,NA,O_Image_50.bmp-O_Lure_50.bmp,2,0,2
463,4,132,seed,2,1,1,1.1193,1,NA,S_Image_132.bmp-S_Lure_132.bmp,2,1,3
464,4,58,spray,2,2,2,1.3443,1,NA,O_Image_58.bmp-O_Lure_58.bmp,2,1,2
465,4,94,fuel,2,2,1,1.2795,0,NA,O_Image_94.bmp-O_Lure_94.bmp,2,1,2
466,4,13,laundry,2,1,1,1.0819,1,NA,F_Image_13.bmp-F_Lure_13.bmp,2,0,1
467,4,85,orchestra,2,2,2,0.69987,1,NA,O_Image_85.bmp-O_Lure_85.bmp,2,0,2
468,4,103,quake,2,2,2,1.0535,1,NA,S_Image_103.bmp-S_Lure_103.bmp,2,1,3
469,4,100,sand,2,1,1,1.1528,1,NA,S_Image_100.bmp-S_Lure_100.bmp,2,1,3
470,4,143,alcohol,2,1,1,0.6881,1,NA,S_Image_143.bmp-S_Lure_143.bmp,2,0,3
471,4,1,measles,2,1,2,1.5942,0,NA,F_Image_1.bmp-F_Lure_1.bmp,2,1,1
472,4,76,crumb,2,1,1,0.85717,1,NA,O_Image_76.bmp-O_Lure_76.bmp,2,1,2
473,4,61,cloud,2,1,2,0.89206,0,NA,O_Image_61.bmp-O_Lure_61.bmp,2,0,2
474,4,15,corpse,2,1,2,0.7979,0,NA,F_Image_15.bmp-F_Lure_15.bmp,2,1,1
475,4,6,witch,2,2,2,0.9875,1,NA,F_Image_6.bmp-F_Lure_6.bmp,2,0,1
476,4,14,money,2,2,2,0.96182,1,NA,F_Image_14.bmp-F_Lure_14.bmp,2,0,1
477,4,62,marble,2,2,1,1.0884,0,NA,O_Image_62.bmp-O_Lure_62.bmp,2,0,2
478,4,20,black,2,2,2,1.3543,1,NA,F_Image_20.bmp-F_Lure_20.bmp,2,1,1
479,4,63,yellow,2,2,1,1.7061,0,NA,O_Image_63.bmp-O_Lure_63.bmp,2,1,2
480,4,12,rock,2,1,2,1.9312,0,NA,F_Image_12.bmp-F_Lure_12.bmp,2,1,1
481,4,70,ghost,3,2,2,1.5643,1,NA,O_Image_70.bmp-O_Lure_70.bmp,2,0,2
482,4,74,wreck,3,1,1,1.3152,1,NA,O_Image_74.bmp-O_Lure_74.bmp,2,0,2
483,4,16,attack,3,1,1,1.2839,1,NA,F_Image_16.bmp-F_Lure_16.bmp,2,1,1
484,4,64,costume,3,1,1,2.2699,1,NA,O_Image_64.bmp-O_Lure_64.bmp,2,1,2
485,4,119,vegetable,3,1,2,2.4406,0,NA,S_Image_119.bmp-S_Lure_119.bmp,2,0,3
486,4,86,hostage,3,1,1,0.89303,1,NA,O_Image_86.bmp-O_Lure_86.bmp,2,1,2
487,4,52,rust,3,2,1,1.0549,0,NA,O_Image_52.bmp-O_Lure_52.bmp,2,1,2
488,4,91,bubble,3,2,2,1.3787,1,NA,O_Image_91.bmp-O_Lure_91.bmp,2,1,2
489,4,97,cone,3,1,1,0.93673,1,NA,S_Image_97.bmp-S_Lure_97.bmp,2,0,3
490,4,68,steam,3,1,1,0.89681,1,NA,O_Image_68.bmp-O_Lure_68.bmp,2,1,2
491,4,7,lever,3,2,2,1.5461,1,NA,F_Image_7.bmp-F_Lure_7.bmp,2,0,1
492,4,67,board,3,2,1,0.68163,0,NA,O_Image_67.bmp-O_Lure_67.bmp,2,1,2
493,4,35,wool,3,2,2,2.0757,1,NA,F_Image_35.bmp-F_Lure_35.bmp,2,0,1
494,4,87,shadow,3,1,2,0.85453,0,NA,O_Image_87.bmp-O_Lure_87.bmp,2,1,2
495,4,66,tear,3,2,1,1.306,0,NA,O_Image_66.bmp-O_Lure_66.bmp,2,0,2
496,4,144,corner,3,1,1,0.91588,1,NA,S_Image_144.bmp-S_Lure_144.bmp,2,0,3
497,4,27,alien,3,1,1,1.3722,1,NA,F_Image_27.bmp-F_Lure_27.bmp,2,1,1
498,4,65,snow,3,1,1,2.0193,1,NA,O_Image_65.bmp-O_Lure_65.bmp,2,0,2
499,4,17,arrow,3,1,2,2.1678,0,NA,F_Image_17.bmp-F_Lure_17.bmp,2,0,1
500,4,113,harem,3,1,1,0.7348,1,NA,S_Image_113.bmp-S_Lure_113.bmp,2,0,3
501,4,47,poison,3,1,1,1.0229,1,NA,F_Image_47.bmp-F_Lure_47.bmp,2,0,1
502,4,90,antique,3,2,1,0.69161,0,NA,O_Image_90.bmp-O_Lure_90.bmp,2,1,2
503,4,98,menu,3,1,1,1.022,1,NA,S_Image_98.bmp-S_Lure_98.bmp,2,0,3
504,4,112,scar,3,2,2,1.0823,1,NA,S_Image_112.bmp-S_Lure_112.bmp,2,1,3
