Trial,Cond,ImageNum,Cue,Block,Correct,Response,RT,Accuracy,CueRep,fName,ImageType,Baseline,Category
1,5,100-28,harem,NA,3,0,2.5004,0,1,S_Image_100.bmp-F_Lure_28.bmp,NA,0,3.1
2,5,102-50,rust,NA,3,0,2.5005,0,1,S_Image_102.bmp-O_Lure_50.bmp,NA,0,3.2
3,5,83-48,costume,NA,2,1,1.6896,0,1,O_Image_83.bmp-F_Lure_48.bmp,NA,0,2.1
4,5,102-50,rust,NA,3,3,1.5158,1,2,S_Image_102.bmp-O_Lure_50.bmp,NA,0,3.2
5,5,74-41,fire,NA,2,3,0.42757,0,1,O_Image_74.bmp-F_Lure_41.bmp,NA,0,2.1
6,5,13-55,board,NA,1,2,0.4405,0,1,F_Image_13.bmp-O_Lure_55.bmp,NA,0,1.2
7,5,49-47,galaxy,NA,2,1,0.42771,0,1,O_Image_49.bmp-F_Lure_47.bmp,NA,0,2.1
8,5,106-81,signal,NA,3,2,0.74439,0,1,S_Image_106.bmp-O_Lure_81.bmp,NA,0,3.2
9,5,113-62,snow,NA,3,3,0.83796,1,1,S_Image_113.bmp-O_Lure_62.bmp,NA,0,3.2
10,5,93-104,shadow,NA,2,2,0.61638,1,1,O_Image_93.bmp-S_Lure_104.bmp,NA,0,2.3
11,5,13-55,board,NA,1,2,0.30608,0,2,F_Image_13.bmp-O_Lure_55.bmp,NA,0,1.2
12,5,125-77,animal,NA,3,2,0.28383,0,1,S_Image_125.bmp-O_Lure_77.bmp,NA,0,3.2
13,5,125-77,animal,NA,3,3,0.31218,1,2,S_Image_125.bmp-O_Lure_77.bmp,NA,0,3.2
14,5,4-101,sand,NA,1,2,1.3043,0,1,F_Image_4.bmp-S_Lure_101.bmp,NA,0,1.3
15,5,15-120,cloud,NA,1,3,0.62712,0,1,F_Image_15.bmp-S_Lure_120.bmp,NA,0,1.3
16,5,125-77,animal,NA,3,3,0.28985,1,3,S_Image_125.bmp-O_Lure_77.bmp,NA,0,3.2
17,5,13-55,board,NA,1,1,0.3331,1,3,F_Image_13.bmp-O_Lure_55.bmp,NA,0,1.2
18,5,112-96,breakfast,NA,3,2,0.31419,0,1,S_Image_112.bmp-O_Lure_96.bmp,NA,0,3.2
19,5,49-47,galaxy,NA,2,2,0.27792,1,2,O_Image_49.bmp-F_Lure_47.bmp,NA,0,2.1
20,5,131-45,vegetable,NA,3,1,0.61662,0,1,S_Image_131.bmp-F_Lure_45.bmp,NA,0,3.1
21,5,4-101,sand,NA,1,3,0.39014,0,2,F_Image_4.bmp-S_Lure_101.bmp,NA,0,1.3
22,5,37-108,crumb,NA,1,3,0.45034,0,1,F_Image_37.bmp-S_Lure_108.bmp,NA,0,1.3
23,5,16-139,hurricane,NA,1,1,0.42307,1,1,F_Image_16.bmp-S_Lure_139.bmp,NA,0,1.3
24,5,113-62,snow,NA,3,3,0.38354,1,2,S_Image_113.bmp-O_Lure_62.bmp,NA,0,3.2
25,5,102-50,rust,NA,3,3,0.60894,1,3,S_Image_102.bmp-O_Lure_50.bmp,NA,0,3.2
26,5,1-84,honeymoon,NA,1,3,1.4282,0,1,F_Image_1.bmp-O_Lure_84.bmp,NA,0,1.2
27,5,66-24,orchestra,NA,2,2,0.87166,1,1,O_Image_66.bmp-F_Lure_24.bmp,NA,0,2.1
28,5,116-2,stem,NA,3,1,0.31894,0,1,S_Image_116.bmp-F_Lure_2.bmp,NA,0,3.1
29,5,4-101,sand,NA,1,1,0.34896,1,3,F_Image_4.bmp-S_Lure_101.bmp,NA,0,1.3
30,5,91-32,drizzle,NA,2,2,0.49363,1,1,O_Image_91.bmp-F_Lure_32.bmp,NA,0,2.1
31,5,44-121,slope,NA,1,1,0.28664,1,1,F_Image_44.bmp-S_Lure_121.bmp,NA,0,1.3
32,5,61-99,magnet,NA,2,2,0.51132,1,1,O_Image_61.bmp-S_Lure_99.bmp,NA,0,2.3
33,5,91-32,drizzle,NA,2,2,0.28693,1,2,O_Image_91.bmp-F_Lure_32.bmp,NA,0,2.1
34,5,27-123,poison,NA,1,1,0.30893,1,1,F_Image_27.bmp-S_Lure_123.bmp,NA,0,1.3
35,5,13-55,board,NA,1,1,0.25818,1,4,F_Image_13.bmp-O_Lure_55.bmp,NA,0,1.2
36,5,44-121,slope,NA,1,1,0.29897,1,2,F_Image_44.bmp-S_Lure_121.bmp,NA,0,1.3
37,5,100-28,harem,NA,3,3,0.61599,1,2,S_Image_100.bmp-F_Lure_28.bmp,NA,0,3.1
38,5,132-67,laundry,NA,3,2,0.25041,0,1,S_Image_132.bmp-O_Lure_67.bmp,NA,0,3.2
39,5,20-129,shell,NA,1,2,0.00015681,0,1,F_Image_20.bmp-S_Lure_129.bmp,NA,0,1.3
40,5,105-92,kiss,NA,3,2,0.36601,0,1,S_Image_105.bmp-O_Lure_92.bmp,NA,0,3.2
41,5,83-48,costume,NA,2,2,0.36887,1,2,O_Image_83.bmp-F_Lure_48.bmp,NA,0,2.1
42,5,106-81,signal,NA,3,2,0.38305,0,2,S_Image_106.bmp-O_Lure_81.bmp,NA,0,3.2
43,5,22-98,yellow,NA,1,3,0.26309,0,1,F_Image_22.bmp-S_Lure_98.bmp,NA,0,1.3
44,5,16-139,hurricane,NA,1,1,0.40189,1,2,F_Image_16.bmp-S_Lure_139.bmp,NA,0,1.3
45,5,131-45,vegetable,NA,3,1,0.4727,0,2,S_Image_131.bmp-F_Lure_45.bmp,NA,0,3.1
46,5,100-28,harem,NA,3,1,0.74316,0,3,S_Image_100.bmp-F_Lure_28.bmp,NA,0,3.1
47,5,66-24,orchestra,NA,2,2,0.46013,1,2,O_Image_66.bmp-F_Lure_24.bmp,NA,0,2.1
48,5,66-24,orchestra,NA,2,2,0.4259,1,3,O_Image_66.bmp-F_Lure_24.bmp,NA,0,2.1
49,5,72-36,money,NA,2,2,0.40221,1,1,O_Image_72.bmp-F_Lure_36.bmp,NA,0,2.1
50,5,22-98,yellow,NA,1,1,0.65873,1,2,F_Image_22.bmp-S_Lure_98.bmp,NA,0,1.3
51,5,83-48,costume,NA,2,2,0.47198,1,3,O_Image_83.bmp-F_Lure_48.bmp,NA,0,2.1
52,5,59-39,hostage,NA,2,1,0.40408,0,1,O_Image_59.bmp-F_Lure_39.bmp,NA,0,2.1
53,5,112-96,breakfast,NA,3,3,1.223,1,2,S_Image_112.bmp-O_Lure_96.bmp,NA,0,3.2
54,5,131-45,vegetable,NA,3,1,0.60612,0,3,S_Image_131.bmp-F_Lure_45.bmp,NA,0,3.1
55,5,19-103,witch,NA,1,1,0.6797,1,1,F_Image_19.bmp-S_Lure_103.bmp,NA,0,1.3
56,5,57-29,antique,NA,2,1,0.38942,0,1,O_Image_57.bmp-F_Lure_29.bmp,NA,0,2.1
57,5,25-69,lever,NA,1,2,1.449,0,1,F_Image_25.bmp-O_Lure_69.bmp,NA,0,1.2
58,5,15-120,cloud,NA,1,1,0.95678,1,2,F_Image_15.bmp-S_Lure_120.bmp,NA,0,1.3
59,5,90-144,spike,NA,2,1,0.75515,0,1,O_Image_90.bmp-S_Lure_144.bmp,NA,0,2.3
60,5,1-84,honeymoon,NA,1,2,1.1391,0,2,F_Image_1.bmp-O_Lure_84.bmp,NA,0,1.2
61,5,57-29,antique,NA,2,2,0.43095,1,2,O_Image_57.bmp-F_Lure_29.bmp,NA,0,2.1
62,5,90-144,spike,NA,2,3,0.48724,0,2,O_Image_90.bmp-S_Lure_144.bmp,NA,0,2.3
63,5,57-29,antique,NA,2,2,1.2447,1,3,O_Image_57.bmp-F_Lure_29.bmp,NA,0,2.1
64,5,105-92,kiss,NA,3,2,1.794,0,2,S_Image_105.bmp-O_Lure_92.bmp,NA,0,3.2
65,5,112-96,breakfast,NA,3,3,0.38518,1,3,S_Image_112.bmp-O_Lure_96.bmp,NA,0,3.2
66,5,19-103,witch,NA,1,1,0.36842,1,2,F_Image_19.bmp-S_Lure_103.bmp,NA,0,1.3
67,5,78-40,wool,NA,2,2,1.4029,1,1,O_Image_78.bmp-F_Lure_40.bmp,NA,0,2.1
68,5,90-144,spike,NA,2,2,1.3321,1,3,O_Image_90.bmp-S_Lure_144.bmp,NA,0,2.3
69,5,66-24,orchestra,NA,2,2,0.46095,1,4,O_Image_66.bmp-F_Lure_24.bmp,NA,0,2.1
70,5,72-36,money,NA,2,2,0.59035,1,2,O_Image_72.bmp-F_Lure_36.bmp,NA,0,2.1
71,5,126-6,wreck,NA,3,1,0.00014733,0,1,S_Image_126.bmp-F_Lure_6.bmp,NA,0,3.1
72,5,37-108,crumb,NA,1,3,0.32411,0,2,F_Image_37.bmp-S_Lure_108.bmp,NA,0,1.3
73,5,126-6,wreck,NA,3,3,1.0965,1,2,S_Image_126.bmp-F_Lure_6.bmp,NA,0,3.1
74,5,105-92,kiss,NA,3,3,1.0151,1,3,S_Image_105.bmp-O_Lure_92.bmp,NA,0,3.2
75,5,83-48,costume,NA,2,2,0.44763,1,4,O_Image_83.bmp-F_Lure_48.bmp,NA,0,2.1
76,5,27-123,poison,NA,1,1,0.55426,1,2,F_Image_27.bmp-S_Lure_123.bmp,NA,0,1.3
77,5,105-92,kiss,NA,3,3,0.50177,1,4,S_Image_105.bmp-O_Lure_92.bmp,NA,0,3.2
78,5,20-129,shell,NA,1,3,0.64435,0,2,F_Image_20.bmp-S_Lure_129.bmp,NA,0,1.3
79,5,49-47,galaxy,NA,2,2,1.6595,1,3,O_Image_49.bmp-F_Lure_47.bmp,NA,0,2.1
80,5,59-39,hostage,NA,2,1,0.69011,0,2,O_Image_59.bmp-F_Lure_39.bmp,NA,0,2.1
81,5,74-41,fire,NA,2,2,0.62536,1,2,O_Image_74.bmp-F_Lure_41.bmp,NA,0,2.1
82,5,91-32,drizzle,NA,2,2,0.60716,1,3,O_Image_91.bmp-F_Lure_32.bmp,NA,0,2.1
83,5,49-47,galaxy,NA,2,2,0.46164,1,4,O_Image_49.bmp-F_Lure_47.bmp,NA,0,2.1
84,5,23-95,sweat,NA,1,2,1.1217,0,1,F_Image_23.bmp-O_Lure_95.bmp,NA,0,1.2
85,5,23-95,sweat,NA,1,1,0.56036,1,2,F_Image_23.bmp-O_Lure_95.bmp,NA,0,1.2
86,5,59-39,hostage,NA,2,1,0.65554,0,3,O_Image_59.bmp-F_Lure_39.bmp,NA,0,2.1
87,5,74-41,fire,NA,2,2,0.96887,1,3,O_Image_74.bmp-F_Lure_41.bmp,NA,0,2.1
88,5,59-39,hostage,NA,2,1,1.3128,0,4,O_Image_59.bmp-F_Lure_39.bmp,NA,0,2.1
89,5,37-108,crumb,NA,1,3,0.36937,0,3,F_Image_37.bmp-S_Lure_108.bmp,NA,0,1.3
90,5,61-99,magnet,NA,2,2,0.6374,1,2,O_Image_61.bmp-S_Lure_99.bmp,NA,0,2.3
91,5,61-99,magnet,NA,2,2,0.40573,1,3,O_Image_61.bmp-S_Lure_99.bmp,NA,0,2.3
92,5,20-129,shell,NA,1,1,0.61978,1,3,F_Image_20.bmp-S_Lure_129.bmp,NA,0,1.3
93,5,132-67,laundry,NA,3,3,1.4637,1,2,S_Image_132.bmp-O_Lure_67.bmp,NA,0,3.2
94,5,27-123,poison,NA,1,1,0.48606,1,3,F_Image_27.bmp-S_Lure_123.bmp,NA,0,1.3
95,5,25-69,lever,NA,1,0,2.5004,0,2,F_Image_25.bmp-O_Lure_69.bmp,NA,0,1.2
96,5,116-2,stem,NA,3,1,0.61072,0,2,S_Image_116.bmp-F_Lure_2.bmp,NA,0,3.1
97,5,37-108,crumb,NA,1,3,0.62294,0,4,F_Image_37.bmp-S_Lure_108.bmp,NA,0,1.3
98,5,126-6,wreck,NA,3,0,2.5002,0,3,S_Image_126.bmp-F_Lure_6.bmp,NA,0,3.1
99,5,112-96,breakfast,NA,3,3,0.33395,1,4,S_Image_112.bmp-O_Lure_96.bmp,NA,0,3.2
100,5,90-144,spike,NA,2,2,0.36852,1,4,O_Image_90.bmp-S_Lure_144.bmp,NA,0,2.3
101,5,100-28,harem,NA,3,3,0.27249,1,4,S_Image_100.bmp-F_Lure_28.bmp,NA,0,3.1
102,5,20-129,shell,NA,1,1,0.29035,1,4,F_Image_20.bmp-S_Lure_129.bmp,NA,0,1.3
103,5,61-99,magnet,NA,2,2,0.54311,1,4,O_Image_61.bmp-S_Lure_99.bmp,NA,0,2.3
104,5,74-41,fire,NA,2,2,0.41086,1,4,O_Image_74.bmp-F_Lure_41.bmp,NA,0,2.1
105,5,106-81,signal,NA,3,3,1.6593,1,3,S_Image_106.bmp-O_Lure_81.bmp,NA,0,3.2
106,5,1-84,honeymoon,NA,1,3,0.72444,0,3,F_Image_1.bmp-O_Lure_84.bmp,NA,0,1.2
107,5,22-98,yellow,NA,1,2,1.0678,0,3,F_Image_22.bmp-S_Lure_98.bmp,NA,0,1.3
108,5,113-62,snow,NA,3,3,0.49517,1,3,S_Image_113.bmp-O_Lure_62.bmp,NA,0,3.2
109,5,93-104,shadow,NA,2,3,0.34676,0,2,O_Image_93.bmp-S_Lure_104.bmp,NA,0,2.3
110,5,113-62,snow,NA,3,3,0.57571,1,4,S_Image_113.bmp-O_Lure_62.bmp,NA,0,3.2
111,5,93-104,shadow,NA,2,2,0.39354,1,3,O_Image_93.bmp-S_Lure_104.bmp,NA,0,2.3
112,5,78-40,wool,NA,2,1,1.4996,0,2,O_Image_78.bmp-F_Lure_40.bmp,NA,0,2.1
113,5,22-98,yellow,NA,1,1,0.44958,1,4,F_Image_22.bmp-S_Lure_98.bmp,NA,0,1.3
114,5,72-36,money,NA,2,2,0.30328,1,3,O_Image_72.bmp-F_Lure_36.bmp,NA,0,2.1
115,5,4-101,sand,NA,1,1,0.2529,1,4,F_Image_4.bmp-S_Lure_101.bmp,NA,0,1.3
116,5,91-32,drizzle,NA,2,2,0.4166,1,4,O_Image_91.bmp-F_Lure_32.bmp,NA,0,2.1
117,5,19-103,witch,NA,1,2,0.53392,0,3,F_Image_19.bmp-S_Lure_103.bmp,NA,0,1.3
118,5,93-104,shadow,NA,2,2,1.0839,1,4,O_Image_93.bmp-S_Lure_104.bmp,NA,0,2.3
119,5,44-121,slope,NA,1,2,0.82676,0,3,F_Image_44.bmp-S_Lure_121.bmp,NA,0,1.3
120,5,132-67,laundry,NA,3,3,1.3371,1,3,S_Image_132.bmp-O_Lure_67.bmp,NA,0,3.2
121,5,19-103,witch,NA,1,0,2.5003,0,4,F_Image_19.bmp-S_Lure_103.bmp,NA,0,1.3
122,5,116-2,stem,NA,3,1,0.4033,0,3,S_Image_116.bmp-F_Lure_2.bmp,NA,0,3.1
123,5,25-69,lever,NA,1,2,1.5902,0,3,F_Image_25.bmp-O_Lure_69.bmp,NA,0,1.2
124,5,78-40,wool,NA,2,2,1.0042,1,3,O_Image_78.bmp-F_Lure_40.bmp,NA,0,2.1
125,5,25-69,lever,NA,1,2,0.28451,0,4,F_Image_25.bmp-O_Lure_69.bmp,NA,0,1.2
126,5,16-139,hurricane,NA,1,1,0.36498,1,3,F_Image_16.bmp-S_Lure_139.bmp,NA,0,1.3
127,5,78-40,wool,NA,2,2,0.45229,1,4,O_Image_78.bmp-F_Lure_40.bmp,NA,0,2.1
128,5,1-84,honeymoon,NA,1,2,0.38383,0,4,F_Image_1.bmp-O_Lure_84.bmp,NA,0,1.2
129,5,126-6,wreck,NA,3,3,0.33353,1,4,S_Image_126.bmp-F_Lure_6.bmp,NA,0,3.1
130,5,23-95,sweat,NA,1,2,0.43489,0,3,F_Image_23.bmp-O_Lure_95.bmp,NA,0,1.2
131,5,131-45,vegetable,NA,3,1,0.70159,0,4,S_Image_131.bmp-F_Lure_45.bmp,NA,0,3.1
132,5,44-121,slope,NA,1,1,0.28121,1,4,F_Image_44.bmp-S_Lure_121.bmp,NA,0,1.3
133,5,132-67,laundry,NA,3,3,0.7513,1,4,S_Image_132.bmp-O_Lure_67.bmp,NA,0,3.2
134,5,116-2,stem,NA,3,3,0.38318,1,4,S_Image_116.bmp-F_Lure_2.bmp,NA,0,3.1
135,5,57-29,antique,NA,2,2,0.27749,1,4,O_Image_57.bmp-F_Lure_29.bmp,NA,0,2.1
136,5,125-77,animal,NA,3,3,0.3287,1,4,S_Image_125.bmp-O_Lure_77.bmp,NA,0,3.2
137,5,106-81,signal,NA,3,2,0.75956,0,4,S_Image_106.bmp-O_Lure_81.bmp,NA,0,3.2
138,5,102-50,rust,NA,3,3,0.33612,1,4,S_Image_102.bmp-O_Lure_50.bmp,NA,0,3.2
139,5,15-120,cloud,NA,1,3,0.31498,0,3,F_Image_15.bmp-S_Lure_120.bmp,NA,0,1.3
140,5,23-95,sweat,NA,1,1,0.99943,1,4,F_Image_23.bmp-O_Lure_95.bmp,NA,0,1.2
141,5,27-123,poison,NA,1,1,0.40638,1,4,F_Image_27.bmp-S_Lure_123.bmp,NA,0,1.3
142,5,72-36,money,NA,2,2,0.40584,1,4,O_Image_72.bmp-F_Lure_36.bmp,NA,0,2.1
143,5,15-120,cloud,NA,1,2,0.56048,0,4,F_Image_15.bmp-S_Lure_120.bmp,NA,0,1.3
144,5,16-139,hurricane,NA,1,1,0.49639,1,4,F_Image_16.bmp-S_Lure_139.bmp,NA,0,1.3
145,6,43,flood,NA,1,1,1.8768,1,NA,F_Image_43.bmp-F_Lure_43.bmp,2,1,1
146,6,38,corpse,NA,2,1,1.1957,0,NA,F_Image_38.bmp-F_Lure_38.bmp,2,1,1
147,6,56,attack,NA,2,2,0.93897,1,NA,O_Image_56.bmp-O_Lure_56.bmp,2,1,2
148,6,121,slope,NA,1,2,1.3993,0,NA,S_Image_121.bmp-S_Lure_121.bmp,2,0,3
149,6,24,orchestra,NA,1,1,1.2661,1,NA,F_Image_24.bmp-F_Lure_24.bmp,2,0,1
150,6,85,triangle,NA,1,1,0.71883,1,NA,O_Image_85.bmp-O_Lure_85.bmp,1,1,2
151,6,122,ghost,NA,1,1,1.0074,1,NA,S_Image_122.bmp-S_Lure_122.bmp,1,1,3
152,6,71,measles,NA,1,2,0.96939,0,NA,O_Image_71.bmp-O_Lure_71.bmp,2,1,2
153,6,139,hurricane,NA,2,1,1.266,0,NA,S_Image_139.bmp-S_Lure_139.bmp,2,0,3
154,6,37,crumb,NA,2,2,1.2619,1,NA,F_Image_37.bmp-F_Lure_37.bmp,1,0,1
155,6,1,honeymoon,NA,2,1,1.2185,0,NA,F_Image_1.bmp-F_Lure_1.bmp,1,0,1
156,6,86,seed,NA,2,2,1.14,1,NA,O_Image_86.bmp-O_Lure_86.bmp,1,1,2
157,6,70,tourist,NA,1,1,2.748,1,NA,O_Image_70.bmp-O_Lure_70.bmp,1,1,2
158,6,18,menu,NA,1,1,1.2122,1,NA,F_Image_18.bmp-F_Lure_18.bmp,1,1,1
159,6,126,wreck,NA,2,1,1.5112,0,NA,S_Image_126.bmp-S_Lure_126.bmp,1,0,3
160,6,41,fire,NA,1,1,1.0707,1,NA,F_Image_41.bmp-F_Lure_41.bmp,2,0,1
161,6,134,giant,NA,2,1,1.1438,0,NA,S_Image_134.bmp-S_Lure_134.bmp,2,1,3
162,6,82,tail,NA,2,2,1.0936,1,NA,O_Image_82.bmp-O_Lure_82.bmp,1,1,2
163,6,55,board,NA,1,2,1.5469,0,NA,O_Image_55.bmp-O_Lure_55.bmp,2,0,2
164,6,142,spray,NA,1,1,1.3589,1,NA,S_Image_142.bmp-S_Lure_142.bmp,2,1,3
165,6,84,honeymoon,NA,1,1,0.7988,1,NA,O_Image_84.bmp-O_Lure_84.bmp,2,0,2
166,6,102,rust,NA,1,2,1.8444,0,NA,S_Image_102.bmp-S_Lure_102.bmp,1,0,3
167,6,46,seed,NA,1,1,1.4871,1,NA,F_Image_46.bmp-F_Lure_46.bmp,2,1,1
168,6,62,snow,NA,2,2,1.1935,1,NA,O_Image_62.bmp-O_Lure_62.bmp,2,0,2
169,6,91,drizzle,NA,2,2,0.92293,1,NA,O_Image_91.bmp-O_Lure_91.bmp,1,0,2
170,6,127,asphalt,NA,1,2,1.2977,0,NA,S_Image_127.bmp-S_Lure_127.bmp,2,1,3
171,6,95,sweat,NA,1,2,1.0963,0,NA,O_Image_95.bmp-O_Lure_95.bmp,2,0,2
172,6,75,black,NA,1,1,0.96163,1,NA,O_Image_75.bmp-O_Lure_75.bmp,1,1,2
173,6,110,army,NA,2,2,1.0495,1,NA,S_Image_110.bmp-S_Lure_110.bmp,1,1,3
174,6,13,board,NA,2,2,1.5426,1,NA,F_Image_13.bmp-F_Lure_13.bmp,1,0,1
175,6,64,corpse,NA,1,1,0.87296,1,NA,O_Image_64.bmp-O_Lure_64.bmp,1,1,2
176,6,47,galaxy,NA,1,2,1.393,0,NA,F_Image_47.bmp-F_Lure_47.bmp,2,0,1
177,6,124,scar,NA,1,1,1.7677,1,NA,S_Image_124.bmp-S_Lure_124.bmp,1,1,3
178,6,59,hostage,NA,1,1,1.4897,1,NA,O_Image_59.bmp-O_Lure_59.bmp,1,0,2
179,6,19,witch,NA,2,2,1.2783,1,NA,F_Image_19.bmp-F_Lure_19.bmp,1,0,1
180,6,96,breakfast,NA,1,1,0.78453,1,NA,O_Image_96.bmp-O_Lure_96.bmp,2,0,2
181,6,57,antique,NA,2,1,1.3033,0,NA,O_Image_57.bmp-O_Lure_57.bmp,1,0,2
182,6,109,stripe,NA,1,1,1.363,1,NA,S_Image_109.bmp-S_Lure_109.bmp,2,1,3
183,6,12,triangle,NA,2,2,1.3429,1,NA,F_Image_12.bmp-F_Lure_12.bmp,2,1,1
184,6,22,yellow,NA,1,2,1.1461,0,NA,F_Image_22.bmp-F_Lure_22.bmp,1,0,1
185,6,74,fire,NA,2,2,0.96081,1,NA,O_Image_74.bmp-O_Lure_74.bmp,1,0,2
186,6,79,marble,NA,2,2,1.3731,1,NA,O_Image_79.bmp-O_Lure_79.bmp,2,1,2
187,6,136,wound,NA,1,1,1.0373,1,NA,S_Image_136.bmp-S_Lure_136.bmp,1,1,3
188,6,99,magnet,NA,2,2,1.3733,1,NA,S_Image_99.bmp-S_Lure_99.bmp,2,0,3
189,6,143,tear,NA,2,2,1.1708,1,NA,S_Image_143.bmp-S_Lure_143.bmp,2,1,3
190,6,83,costume,NA,1,2,0.90943,0,NA,O_Image_83.bmp-O_Lure_83.bmp,1,0,2
191,6,77,animal,NA,2,1,1.0229,0,NA,O_Image_77.bmp-O_Lure_77.bmp,2,0,2
192,6,10,sunshine,NA,1,1,1.0607,1,NA,F_Image_10.bmp-F_Lure_10.bmp,1,1,1
193,6,89,steam,NA,1,1,0.85248,1,NA,O_Image_89.bmp-O_Lure_89.bmp,1,1,2
194,6,113,snow,NA,1,1,1.0808,1,NA,S_Image_113.bmp-S_Lure_113.bmp,1,0,3
195,6,61,magnet,NA,1,1,0.87079,1,NA,O_Image_61.bmp-O_Lure_61.bmp,1,0,2
196,6,21,measles,NA,2,2,0.87735,1,NA,F_Image_21.bmp-F_Lure_21.bmp,1,1,1
197,6,104,shadow,NA,1,1,1.4968,1,NA,S_Image_104.bmp-S_Lure_104.bmp,2,0,3
198,6,29,antique,NA,2,2,1.1336,1,NA,F_Image_29.bmp-F_Lure_29.bmp,2,0,1
199,6,67,laundry,NA,2,2,2.2815,1,NA,O_Image_67.bmp-O_Lure_67.bmp,2,0,2
200,6,108,crumb,NA,2,2,1.2095,1,NA,S_Image_108.bmp-S_Lure_108.bmp,2,0,3
201,6,119,angel,NA,2,1,1.0235,0,NA,S_Image_119.bmp-S_Lure_119.bmp,2,1,3
202,6,133,bubble,NA,1,2,1.2546,0,NA,S_Image_133.bmp-S_Lure_133.bmp,1,1,3
203,6,103,witch,NA,1,2,1.5578,0,NA,S_Image_103.bmp-S_Lure_103.bmp,2,0,3
204,6,48,costume,NA,2,1,1.2718,0,NA,F_Image_48.bmp-F_Lure_48.bmp,2,0,1
205,6,65,alien,NA,2,2,0.87007,1,NA,O_Image_65.bmp-O_Lure_65.bmp,2,1,2
206,6,116,stem,NA,1,1,1.3881,1,NA,S_Image_116.bmp-S_Lure_116.bmp,1,0,3
207,6,111,quake,NA,2,2,1.4282,1,NA,S_Image_111.bmp-S_Lure_111.bmp,2,1,3
208,6,144,spike,NA,1,1,1.0068,1,NA,S_Image_144.bmp-S_Lure_144.bmp,2,0,3
209,6,28,harem,NA,1,1,2.7152,1,NA,F_Image_28.bmp-F_Lure_28.bmp,2,0,1
210,6,73,water,NA,2,1,0.93091,0,NA,O_Image_73.bmp-O_Lure_73.bmp,2,1,2
211,6,36,money,NA,1,1,0.97154,1,NA,F_Image_36.bmp-F_Lure_36.bmp,2,0,1
212,6,58,tear,NA,2,2,0.72902,1,NA,O_Image_58.bmp-O_Lure_58.bmp,1,1,2
213,6,15,cloud,NA,1,1,2.7403,1,NA,F_Image_15.bmp-F_Lure_15.bmp,1,0,1
214,6,42,black,NA,1,1,1.3085,1,NA,F_Image_42.bmp-F_Lure_42.bmp,2,1,1
215,6,7,arrow,NA,2,2,1.0974,1,NA,F_Image_7.bmp-F_Lure_7.bmp,1,1,1
216,6,87,rock,NA,2,1,0.93803,0,NA,O_Image_87.bmp-O_Lure_87.bmp,2,1,2
217,6,9,attack,NA,1,1,1.2051,1,NA,F_Image_9.bmp-F_Lure_9.bmp,1,1,1
218,6,129,shell,NA,2,2,1.1354,1,NA,S_Image_129.bmp-S_Lure_129.bmp,2,0,3
219,6,132,laundry,NA,1,2,0.9222,0,NA,S_Image_132.bmp-S_Lure_132.bmp,1,0,3
220,6,51,fuel,NA,1,2,0.8359,0,NA,O_Image_51.bmp-O_Lure_51.bmp,2,1,2
221,6,123,poison,NA,2,2,1.7904,1,NA,S_Image_123.bmp-S_Lure_123.bmp,2,0,3
222,6,138,arrow,NA,2,1,0.98759,0,NA,S_Image_138.bmp-S_Lure_138.bmp,2,1,3
223,6,25,lever,NA,1,1,1.5869,1,NA,F_Image_25.bmp-F_Lure_25.bmp,1,0,1
224,6,106,signal,NA,2,1,1.4187,0,NA,S_Image_106.bmp-S_Lure_106.bmp,1,0,3
225,6,128,cone,NA,2,1,1.3,0,NA,S_Image_128.bmp-S_Lure_128.bmp,2,1,3
226,6,120,cloud,NA,2,1,1.2992,0,NA,S_Image_120.bmp-S_Lure_120.bmp,2,0,3
227,6,80,quake,NA,2,1,1.3066,0,NA,O_Image_80.bmp-O_Lure_80.bmp,1,1,2
228,6,3,spray,NA,2,2,1.1021,1,NA,F_Image_3.bmp-F_Lure_3.bmp,1,1,1
229,6,135,fuel,NA,2,2,1.6495,1,NA,S_Image_135.bmp-S_Lure_135.bmp,1,1,3
230,6,66,orchestra,NA,1,1,1.1439,1,NA,O_Image_66.bmp-O_Lure_66.bmp,1,0,2
231,6,27,poison,NA,2,1,3.4158,0,NA,F_Image_27.bmp-F_Lure_27.bmp,1,0,1
232,6,31,arch,NA,1,1,1.2216,1,NA,F_Image_31.bmp-F_Lure_31.bmp,2,1,1
233,6,53,angel,NA,2,2,0.83122,1,NA,O_Image_53.bmp-O_Lure_53.bmp,1,1,2
234,6,8,tourist,NA,1,1,0.78802,1,NA,F_Image_8.bmp-F_Lure_8.bmp,2,1,1
235,6,60,arch,NA,1,1,0.83606,1,NA,O_Image_60.bmp-O_Lure_60.bmp,1,1,2
236,6,6,wreck,NA,1,1,1.6164,1,NA,F_Image_6.bmp-F_Lure_6.bmp,2,0,1
237,6,117,menu,NA,1,1,1.757,1,NA,S_Image_117.bmp-S_Lure_117.bmp,2,1,3
238,6,94,paper,NA,1,1,1.3316,1,NA,O_Image_94.bmp-O_Lure_94.bmp,2,1,2
239,6,17,ghost,NA,1,1,1.8395,1,NA,F_Image_17.bmp-F_Lure_17.bmp,2,1,1
240,6,101,sand,NA,1,1,1.1649,1,NA,S_Image_101.bmp-S_Lure_101.bmp,2,0,3
241,6,63,sunshine,NA,2,1,1.0693,0,NA,O_Image_63.bmp-O_Lure_63.bmp,2,1,2
242,6,115,marble,NA,1,2,1.226,0,NA,S_Image_115.bmp-S_Lure_115.bmp,1,1,3
243,6,54,bubble,NA,2,2,0.98062,1,NA,O_Image_54.bmp-O_Lure_54.bmp,2,1,2
244,6,52,stripe,NA,2,1,0.89677,0,NA,O_Image_52.bmp-O_Lure_52.bmp,1,1,2
245,6,141,steam,NA,2,1,1.3329,0,NA,S_Image_141.bmp-S_Lure_141.bmp,2,1,3
246,6,14,rock,NA,1,1,0.85678,1,NA,F_Image_14.bmp-F_Lure_14.bmp,1,1,1
247,6,100,harem,NA,1,1,1.136,1,NA,S_Image_100.bmp-S_Lure_100.bmp,1,0,3
248,6,112,breakfast,NA,1,2,1.3205,0,NA,S_Image_112.bmp-S_Lure_112.bmp,1,0,3
249,6,137,alcohol,NA,1,1,0.82988,1,NA,S_Image_137.bmp-S_Lure_137.bmp,1,1,3
250,6,76,scar,NA,2,2,0.78598,1,NA,O_Image_76.bmp-O_Lure_76.bmp,2,1,2
251,6,4,sand,NA,2,2,1.7465,1,NA,F_Image_4.bmp-F_Lure_4.bmp,1,0,1
252,6,125,animal,NA,2,1,1.7482,0,NA,S_Image_125.bmp-S_Lure_125.bmp,1,0,3
253,6,107,corner,NA,1,1,1.0513,1,NA,S_Image_107.bmp-S_Lure_107.bmp,2,1,3
254,6,130,tube,NA,2,2,1.5328,1,NA,S_Image_130.bmp-S_Lure_130.bmp,1,1,3
255,6,90,spike,NA,1,2,1.4275,0,NA,O_Image_90.bmp-O_Lure_90.bmp,1,0,2
256,6,5,giant,NA,2,1,1.6091,0,NA,F_Image_5.bmp-F_Lure_5.bmp,1,1,1
257,6,88,army,NA,1,1,0.74797,1,NA,O_Image_88.bmp-O_Lure_88.bmp,2,1,2
258,6,140,paper,NA,1,1,1.2267,1,NA,S_Image_140.bmp-S_Lure_140.bmp,1,1,3
259,6,114,water,NA,2,2,1.1226,1,NA,S_Image_114.bmp-S_Lure_114.bmp,1,1,3
260,6,45,vegetable,NA,2,2,1.2801,1,NA,F_Image_45.bmp-F_Lure_45.bmp,2,0,1
261,6,26,tail,NA,1,1,1.429,1,NA,F_Image_26.bmp-F_Lure_26.bmp,2,1,1
262,6,30,corner,NA,1,1,1.0772,1,NA,F_Image_30.bmp-F_Lure_30.bmp,1,1,1
263,6,34,asphalt,NA,2,2,1.0252,1,NA,F_Image_34.bmp-F_Lure_34.bmp,1,1,1
264,6,68,tube,NA,1,1,1.011,1,NA,O_Image_68.bmp-O_Lure_68.bmp,2,1,2
265,6,69,lever,NA,1,1,1.3092,1,NA,O_Image_69.bmp-O_Lure_69.bmp,2,0,2
266,6,97,alien,NA,2,1,1.3285,0,NA,S_Image_97.bmp-S_Lure_97.bmp,1,1,3
267,6,131,vegetable,NA,2,2,1.5434,1,NA,S_Image_131.bmp-S_Lure_131.bmp,1,0,3
268,6,92,kiss,NA,2,2,0.81695,1,NA,O_Image_92.bmp-O_Lure_92.bmp,2,0,2
269,6,72,money,NA,1,2,0.7015,0,NA,O_Image_72.bmp-O_Lure_72.bmp,1,0,2
270,6,78,wool,NA,2,2,0.96993,1,NA,O_Image_78.bmp-O_Lure_78.bmp,1,0,2
271,6,35,wound,NA,1,1,1.3268,1,NA,F_Image_35.bmp-F_Lure_35.bmp,2,1,1
272,6,11,alcohol,NA,2,2,1.075,1,NA,F_Image_11.bmp-F_Lure_11.bmp,2,1,1
273,6,39,hostage,NA,2,2,1.0962,1,NA,F_Image_39.bmp-F_Lure_39.bmp,2,0,1
274,6,118,flood,NA,1,2,1.8605,0,NA,S_Image_118.bmp-S_Lure_118.bmp,1,1,3
275,6,2,stem,NA,2,1,1.9581,0,NA,F_Image_2.bmp-F_Lure_2.bmp,2,0,1
276,6,93,shadow,NA,2,1,1.3033,0,NA,O_Image_93.bmp-O_Lure_93.bmp,1,0,2
277,6,23,sweat,NA,1,1,1.2704,1,NA,F_Image_23.bmp-F_Lure_23.bmp,1,0,1
278,6,105,kiss,NA,2,1,1.5623,0,NA,S_Image_105.bmp-S_Lure_105.bmp,1,0,3
279,6,32,drizzle,NA,1,1,1.1623,1,NA,F_Image_32.bmp-F_Lure_32.bmp,2,0,1
280,6,98,yellow,NA,1,2,1.6845,0,NA,S_Image_98.bmp-S_Lure_98.bmp,2,0,3
281,6,81,signal,NA,1,2,0.84286,0,NA,O_Image_81.bmp-O_Lure_81.bmp,2,0,2
282,6,40,wool,NA,2,2,1.9699,1,NA,F_Image_40.bmp-F_Lure_40.bmp,2,0,1
283,6,16,hurricane,NA,1,1,1.749,1,NA,F_Image_16.bmp-F_Lure_16.bmp,1,0,1
284,6,20,shell,NA,1,1,1.8816,1,NA,F_Image_20.bmp-F_Lure_20.bmp,1,0,1
285,6,49,galaxy,NA,1,1,0.82841,1,NA,O_Image_49.bmp-O_Lure_49.bmp,1,0,2
286,6,33,cone,NA,2,2,1.9994,1,NA,F_Image_33.bmp-F_Lure_33.bmp,1,1,1
287,6,44,slope,NA,2,2,1.4229,1,NA,F_Image_44.bmp-F_Lure_44.bmp,1,0,1
288,6,50,rust,NA,2,1,2.0445,0,NA,O_Image_50.bmp-O_Lure_50.bmp,2,0,2
