Trial,Cond,ImageNum,Cue,Block,Correct,Response,RT,Accuracy,CueRep,fName,ImageType,Baseline,Category
1,1,144,NA,NA,NA,1,2.7612,NA,NA,S_Lure_144.bmp,0,0,3
2,1,100,NA,NA,NA,2,0.0005729,NA,NA,S_Image_100.bmp,1,0,3
3,1,117,NA,NA,NA,2,3.8097,NA,NA,S_Lure_117.bmp,0,1,3
4,1,92,NA,NA,NA,1,1.7698,NA,NA,O_Lure_92.bmp,0,0,2
5,1,93,NA,NA,NA,1,0.98734,NA,NA,O_Lure_93.bmp,0,0,2
6,1,115,NA,NA,NA,2,1.5338,NA,NA,S_Lure_115.bmp,0,1,3
7,1,142,NA,NA,NA,1,0.52644,NA,NA,S_Image_142.bmp,2,1,3
8,1,37,NA,NA,NA,2,0.89113,NA,NA,F_Lure_37.bmp,0,0,1
9,1,50,NA,NA,NA,1,1.2725,NA,NA,O_Image_50.bmp,2,0,2
10,1,34,NA,NA,NA,1,0.80531,NA,NA,F_Image_34.bmp,1,1,1
11,1,50,NA,NA,NA,1,0.00019474,NA,NA,O_Lure_50.bmp,0,0,2
12,1,127,NA,NA,NA,1,0.70514,NA,NA,S_Image_127.bmp,2,1,3
13,1,75,NA,NA,NA,1,1.3226,NA,NA,O_Image_75.bmp,1,1,2
14,1,80,NA,NA,NA,1,0.00018999,NA,NA,O_Lure_80.bmp,0,1,2
15,1,87,NA,NA,NA,1,0.61074,NA,NA,O_Image_87.bmp,2,1,2
16,1,89,NA,NA,NA,1,0.30896,NA,NA,O_Lure_89.bmp,0,1,2
17,1,9,NA,NA,NA,1,0.49726,NA,NA,F_Lure_9.bmp,0,1,1
18,1,69,NA,NA,NA,1,1.7128,NA,NA,O_Image_69.bmp,2,0,2
19,1,134,NA,NA,NA,2,0.43502,NA,NA,S_Image_134.bmp,2,1,3
20,1,16,NA,NA,NA,1,0.50745,NA,NA,F_Lure_16.bmp,0,0,1
21,1,129,NA,NA,NA,2,0.00015353,NA,NA,S_Image_129.bmp,2,0,3
22,1,48,NA,NA,NA,1,0.37581,NA,NA,F_Lure_48.bmp,0,0,1
23,1,3,NA,NA,NA,2,0.67311,NA,NA,F_Image_3.bmp,1,1,1
24,1,30,NA,NA,NA,2,0.040786,NA,NA,F_Image_30.bmp,1,1,1
25,1,31,NA,NA,NA,1,0.21995,NA,NA,F_Lure_31.bmp,0,1,1
26,1,11,NA,NA,NA,1,0.33034,NA,NA,F_Lure_11.bmp,0,1,1
27,1,138,NA,NA,NA,1,0.11975,NA,NA,S_Image_138.bmp,2,1,3
28,1,52,NA,NA,NA,1,1.2276,NA,NA,O_Lure_52.bmp,0,1,2
29,1,43,NA,NA,NA,1,0.53794,NA,NA,F_Image_43.bmp,2,1,1
30,1,10,NA,NA,NA,1,0.42959,NA,NA,F_Image_10.bmp,1,1,1
31,1,66,NA,NA,NA,1,0.10283,NA,NA,O_Image_66.bmp,1,0,2
32,1,111,NA,NA,NA,1,0.62905,NA,NA,S_Image_111.bmp,2,1,3
33,1,68,NA,NA,NA,1,0.031026,NA,NA,O_Image_68.bmp,2,1,2
34,1,107,NA,NA,NA,1,0.3567,NA,NA,S_Lure_107.bmp,0,1,3
35,1,51,NA,NA,NA,1,0.47919,NA,NA,O_Image_51.bmp,2,1,2
36,1,94,NA,NA,NA,1,0.64368,NA,NA,O_Lure_94.bmp,0,1,2
37,1,72,NA,NA,NA,1,0.39128,NA,NA,O_Image_72.bmp,1,0,2
38,1,79,NA,NA,NA,1,3.5295,NA,NA,O_Image_79.bmp,2,1,2
39,1,39,NA,NA,NA,1,0.64317,NA,NA,F_Lure_39.bmp,0,0,1
40,1,6,NA,NA,NA,1,0.33343,NA,NA,F_Image_6.bmp,2,0,1
41,1,76,NA,NA,NA,1,0.22957,NA,NA,O_Lure_76.bmp,0,1,2
42,1,74,NA,NA,NA,1,2.1491,NA,NA,O_Lure_74.bmp,0,0,2
43,1,117,NA,NA,NA,2,0.00014806,NA,NA,S_Image_117.bmp,2,1,3
44,1,88,NA,NA,NA,1,0.52575,NA,NA,O_Lure_88.bmp,0,1,2
45,1,65,NA,NA,NA,1,0.01219,NA,NA,O_Lure_65.bmp,0,1,2
46,1,120,NA,NA,NA,1,0.35647,NA,NA,S_Lure_120.bmp,0,0,3
47,1,62,NA,NA,NA,1,2.2542,NA,NA,O_Image_62.bmp,2,0,2
48,1,70,NA,NA,NA,1,3.3192,NA,NA,O_Image_70.bmp,1,1,2
49,1,123,NA,NA,NA,2,0.33578,NA,NA,S_Lure_123.bmp,0,0,3
50,1,80,NA,NA,NA,1,0.075744,NA,NA,O_Image_80.bmp,1,1,2
51,1,44,NA,NA,NA,2,0.26267,NA,NA,F_Lure_44.bmp,0,0,1
52,1,59,NA,NA,NA,1,2.5649,NA,NA,O_Image_59.bmp,1,0,2
53,1,84,NA,NA,NA,1,0.41207,NA,NA,O_Lure_84.bmp,0,0,2
54,1,101,NA,NA,NA,2,0.45281,NA,NA,S_Image_101.bmp,2,0,3
55,1,91,NA,NA,NA,1,1.3527,NA,NA,O_Lure_91.bmp,0,0,2
56,1,38,NA,NA,NA,1,0.36426,NA,NA,F_Lure_38.bmp,0,1,1
57,1,49,NA,NA,NA,1,0.00018489,NA,NA,O_Lure_49.bmp,0,0,2
58,1,4,NA,NA,NA,1,2.3079,NA,NA,F_Lure_4.bmp,0,0,1
59,1,7,NA,NA,NA,1,0.33374,NA,NA,F_Image_7.bmp,1,1,1
60,1,60,NA,NA,NA,1,2.585,NA,NA,O_Image_60.bmp,1,1,2
61,1,120,NA,NA,NA,1,0.77713,NA,NA,S_Image_120.bmp,2,0,3
62,1,45,NA,NA,NA,2,0.13962,NA,NA,F_Lure_45.bmp,0,0,1
63,1,98,NA,NA,NA,2,0.29408,NA,NA,S_Lure_98.bmp,0,0,3
64,1,64,NA,NA,NA,1,0.00016593,NA,NA,O_Lure_64.bmp,0,1,2
65,1,30,NA,NA,NA,1,0.061823,NA,NA,F_Lure_30.bmp,0,1,1
66,1,52,NA,NA,NA,1,1.2047,NA,NA,O_Image_52.bmp,1,1,2
67,1,96,NA,NA,NA,1,1.3136,NA,NA,O_Image_96.bmp,2,0,2
68,1,76,NA,NA,NA,1,1.8147,NA,NA,O_Image_76.bmp,2,1,2
69,1,39,NA,NA,NA,2,0.27847,NA,NA,F_Image_39.bmp,2,0,1
70,1,48,NA,NA,NA,1,0.5302,NA,NA,F_Image_48.bmp,2,0,1
71,1,3,NA,NA,NA,2,0.32938,NA,NA,F_Lure_3.bmp,0,1,1
72,1,64,NA,NA,NA,1,0.42035,NA,NA,O_Image_64.bmp,1,1,2
73,1,134,NA,NA,NA,2,0.54632,NA,NA,S_Lure_134.bmp,0,1,3
74,1,107,NA,NA,NA,1,1.0086,NA,NA,S_Image_107.bmp,2,1,3
75,1,109,NA,NA,NA,1,1.8852,NA,NA,S_Image_109.bmp,2,1,3
76,1,42,NA,NA,NA,1,0.30933,NA,NA,F_Lure_42.bmp,0,1,1
77,1,101,NA,NA,NA,2,0.32879,NA,NA,S_Lure_101.bmp,0,0,3
78,1,31,NA,NA,NA,1,0.39821,NA,NA,F_Image_31.bmp,2,1,1
79,1,86,NA,NA,NA,1,0.066887,NA,NA,O_Image_86.bmp,1,1,2
80,1,105,NA,NA,NA,2,0.43318,NA,NA,S_Image_105.bmp,1,0,3
81,1,109,NA,NA,NA,1,0.93411,NA,NA,S_Lure_109.bmp,0,1,3
82,1,41,NA,NA,NA,2,0.49054,NA,NA,F_Image_41.bmp,2,0,1
83,1,6,NA,NA,NA,1,0.33371,NA,NA,F_Lure_6.bmp,0,0,1
84,1,45,NA,NA,NA,2,0.23205,NA,NA,F_Image_45.bmp,2,0,1
85,1,35,NA,NA,NA,2,0.30081,NA,NA,F_Lure_35.bmp,0,1,1
86,1,141,NA,NA,NA,1,0.13461,NA,NA,S_Lure_141.bmp,0,1,3
87,1,36,NA,NA,NA,1,0.30921,NA,NA,F_Image_36.bmp,2,0,1
88,1,136,NA,NA,NA,2,0.00016593,NA,NA,S_Image_136.bmp,1,1,3
89,1,53,NA,NA,NA,1,0.073689,NA,NA,O_Lure_53.bmp,0,1,2
90,1,100,NA,NA,NA,2,0.39015,NA,NA,S_Lure_100.bmp,0,0,3
91,1,105,NA,NA,NA,2,0.28141,NA,NA,S_Lure_105.bmp,0,0,3
92,1,131,NA,NA,NA,1,0.51354,NA,NA,S_Image_131.bmp,1,0,3
93,1,25,NA,NA,NA,1,0.48841,NA,NA,F_Lure_25.bmp,0,0,1
94,1,23,NA,NA,NA,1,0.00017504,NA,NA,F_Image_23.bmp,1,0,1
95,1,132,NA,NA,NA,1,0.38823,NA,NA,S_Lure_132.bmp,0,0,3
96,1,15,NA,NA,NA,2,1.128,NA,NA,F_Lure_15.bmp,0,0,1
97,1,18,NA,NA,NA,2,0.21522,NA,NA,F_Image_18.bmp,1,1,1
98,1,77,NA,NA,NA,1,0.0001652,NA,NA,O_Image_77.bmp,2,0,2
99,1,36,NA,NA,NA,1,0.00014806,NA,NA,F_Lure_36.bmp,0,0,1
100,1,122,NA,NA,NA,2,0.40649,NA,NA,S_Image_122.bmp,1,1,3
101,1,125,NA,NA,NA,1,0.99519,NA,NA,S_Image_125.bmp,1,0,3
102,1,104,NA,NA,NA,2,0.51075,NA,NA,S_Image_104.bmp,2,0,3
103,1,51,NA,NA,NA,1,0.14728,NA,NA,O_Lure_51.bmp,0,1,2
104,1,28,NA,NA,NA,2,0.37893,NA,NA,F_Lure_28.bmp,0,0,1
105,1,108,NA,NA,NA,2,0.57776,NA,NA,S_Image_108.bmp,2,0,3
106,1,74,NA,NA,NA,1,2.6365,NA,NA,O_Image_74.bmp,1,0,2
107,1,8,NA,NA,NA,1,0.88773,NA,NA,F_Lure_8.bmp,0,1,1
108,1,94,NA,NA,NA,1,0.58495,NA,NA,O_Image_94.bmp,2,1,2
109,1,113,NA,NA,NA,1,3.4196,NA,NA,S_Lure_113.bmp,0,0,3
110,1,49,NA,NA,NA,1,0.72707,NA,NA,O_Image_49.bmp,1,0,2
111,1,82,NA,NA,NA,1,0.00016337,NA,NA,O_Image_82.bmp,1,1,2
112,1,114,NA,NA,NA,1,0.31823,NA,NA,S_Lure_114.bmp,0,1,3
113,1,142,NA,NA,NA,1,0.44587,NA,NA,S_Lure_142.bmp,0,1,3
114,1,56,NA,NA,NA,1,0.25139,NA,NA,O_Image_56.bmp,2,1,2
115,1,81,NA,NA,NA,1,0.25155,NA,NA,O_Lure_81.bmp,0,0,2
116,1,116,NA,NA,NA,1,0.10983,NA,NA,S_Image_116.bmp,1,0,3
117,1,58,NA,NA,NA,1,0.000159,NA,NA,O_Image_58.bmp,1,1,2
118,1,20,NA,NA,NA,2,0.38019,NA,NA,F_Image_20.bmp,1,0,1
119,1,130,NA,NA,NA,2,0.2614,NA,NA,S_Image_130.bmp,1,1,3
120,1,104,NA,NA,NA,2,0.38307,NA,NA,S_Lure_104.bmp,0,0,3
121,1,103,NA,NA,NA,1,0.052462,NA,NA,S_Image_103.bmp,2,0,3
122,1,67,NA,NA,NA,1,2.0745,NA,NA,O_Lure_67.bmp,0,0,2
123,1,140,NA,NA,NA,1,0.0001528,NA,NA,S_Image_140.bmp,1,1,3
124,1,38,NA,NA,NA,1,0.66371,NA,NA,F_Image_38.bmp,2,1,1
125,1,75,NA,NA,NA,1,0.51769,NA,NA,O_Lure_75.bmp,0,1,2
126,1,97,NA,NA,NA,2,0.32827,NA,NA,S_Lure_97.bmp,0,1,3
127,1,133,NA,NA,NA,2,0.43983,NA,NA,S_Image_133.bmp,1,1,3
128,1,128,NA,NA,NA,1,0.19102,NA,NA,S_Image_128.bmp,2,1,3
129,1,95,NA,NA,NA,1,0.6562,NA,NA,O_Image_95.bmp,2,0,2
130,1,138,NA,NA,NA,1,0.38756,NA,NA,S_Lure_138.bmp,0,1,3
131,1,59,NA,NA,NA,1,1.6102,NA,NA,O_Lure_59.bmp,0,0,2
132,1,99,NA,NA,NA,2,0.00015061,NA,NA,S_Lure_99.bmp,0,0,3
133,1,112,NA,NA,NA,1,0.56134,NA,NA,S_Lure_112.bmp,0,0,3
134,1,90,NA,NA,NA,1,0.73029,NA,NA,O_Image_90.bmp,1,0,2
135,1,129,NA,NA,NA,2,0.42591,NA,NA,S_Lure_129.bmp,0,0,3
136,1,99,NA,NA,NA,2,0.61847,NA,NA,S_Image_99.bmp,2,0,3
137,1,126,NA,NA,NA,2,0.57832,NA,NA,S_Lure_126.bmp,0,0,3
138,1,106,NA,NA,NA,2,0.67285,NA,NA,S_Lure_106.bmp,0,0,3
139,1,33,NA,NA,NA,1,0.79011,NA,NA,F_Lure_33.bmp,0,1,1
140,1,18,NA,NA,NA,1,0.29845,NA,NA,F_Lure_18.bmp,0,1,1
141,1,110,NA,NA,NA,2,0.40951,NA,NA,S_Lure_110.bmp,0,1,3
142,1,10,NA,NA,NA,1,0.36457,NA,NA,F_Lure_10.bmp,0,1,1
143,1,85,NA,NA,NA,1,0.26454,NA,NA,O_Lure_85.bmp,0,1,2
144,1,78,NA,NA,NA,2,0.58163,NA,NA,O_Image_78.bmp,1,0,2
145,1,20,NA,NA,NA,2,0.39386,NA,NA,F_Lure_20.bmp,0,0,1
146,1,73,NA,NA,NA,1,0.39113,NA,NA,O_Lure_73.bmp,0,1,2
147,1,63,NA,NA,NA,1,0.32869,NA,NA,O_Image_63.bmp,2,1,2
148,1,67,NA,NA,NA,1,0.37913,NA,NA,O_Image_67.bmp,2,0,2
149,1,70,NA,NA,NA,1,0.32418,NA,NA,O_Lure_70.bmp,0,1,2
150,1,14,NA,NA,NA,1,0.29484,NA,NA,F_Image_14.bmp,1,1,1
151,1,112,NA,NA,NA,1,0.26856,NA,NA,S_Image_112.bmp,1,0,3
152,1,139,NA,NA,NA,1,0.25048,NA,NA,S_Image_139.bmp,2,0,3
153,1,37,NA,NA,NA,1,0.36232,NA,NA,F_Image_37.bmp,1,0,1
154,1,140,NA,NA,NA,1,0.2947,NA,NA,S_Lure_140.bmp,0,1,3
155,1,15,NA,NA,NA,2,0.40441,NA,NA,F_Image_15.bmp,1,0,1
156,1,77,NA,NA,NA,1,0.30457,NA,NA,O_Lure_77.bmp,0,0,2
157,1,89,NA,NA,NA,1,0.25437,NA,NA,O_Image_89.bmp,1,1,2
158,1,19,NA,NA,NA,2,0.40428,NA,NA,F_Image_19.bmp,1,0,1
159,1,82,NA,NA,NA,1,0.35019,NA,NA,O_Lure_82.bmp,0,1,2
160,1,23,NA,NA,NA,1,0.36127,NA,NA,F_Lure_23.bmp,0,0,1
161,1,63,NA,NA,NA,1,0.39117,NA,NA,O_Lure_63.bmp,0,1,2
162,1,79,NA,NA,NA,1,0.33073,NA,NA,O_Lure_79.bmp,0,1,2
163,1,90,NA,NA,NA,1,0.6783,NA,NA,O_Lure_90.bmp,0,0,2
164,1,132,NA,NA,NA,2,0.4703,NA,NA,S_Image_132.bmp,1,0,3
165,1,123,NA,NA,NA,1,0.54583,NA,NA,S_Image_123.bmp,2,0,3
166,1,27,NA,NA,NA,2,0.54331,NA,NA,F_Lure_27.bmp,0,0,1
167,1,2,NA,NA,NA,1,0.36649,NA,NA,F_Lure_2.bmp,0,0,1
168,1,68,NA,NA,NA,1,0.31712,NA,NA,O_Lure_68.bmp,0,1,2
169,1,11,NA,NA,NA,1,0.32079,NA,NA,F_Image_11.bmp,2,1,1
170,1,119,NA,NA,NA,2,0.31843,NA,NA,S_Image_119.bmp,2,1,3
171,1,43,NA,NA,NA,1,0.39435,NA,NA,F_Lure_43.bmp,0,1,1
172,1,5,NA,NA,NA,1,0.24273,NA,NA,F_Lure_5.bmp,0,1,1
173,1,53,NA,NA,NA,1,0.33578,NA,NA,O_Image_53.bmp,1,1,2
174,1,91,NA,NA,NA,1,0.29833,NA,NA,O_Image_91.bmp,1,0,2
175,1,119,NA,NA,NA,1,0.2673,NA,NA,S_Lure_119.bmp,0,1,3
176,1,32,NA,NA,NA,2,0.43445,NA,NA,F_Lure_32.bmp,0,0,1
177,1,103,NA,NA,NA,1,0.36948,NA,NA,S_Lure_103.bmp,0,0,3
178,1,17,NA,NA,NA,2,0.485,NA,NA,F_Image_17.bmp,2,1,1
179,1,114,NA,NA,NA,1,0.27339,NA,NA,S_Image_114.bmp,1,1,3
180,1,47,NA,NA,NA,1,0.30535,NA,NA,F_Lure_47.bmp,0,0,1
181,1,124,NA,NA,NA,2,0.32074,NA,NA,S_Image_124.bmp,1,1,3
182,1,88,NA,NA,NA,1,0.25115,NA,NA,O_Image_88.bmp,2,1,2
183,1,1,NA,NA,NA,1,0.27962,NA,NA,F_Image_1.bmp,1,0,1
184,1,124,NA,NA,NA,1,0.27332,NA,NA,S_Lure_124.bmp,0,1,3
185,1,71,NA,NA,NA,1,0.26891,NA,NA,O_Image_71.bmp,2,1,2
186,1,4,NA,NA,NA,1,0.32876,NA,NA,F_Image_4.bmp,1,0,1
187,1,121,NA,NA,NA,2,0.26903,NA,NA,S_Image_121.bmp,2,0,3
188,1,83,NA,NA,NA,1,0.29556,NA,NA,O_Lure_83.bmp,0,0,2
189,1,65,NA,NA,NA,1,0.29012,NA,NA,O_Image_65.bmp,2,1,2
190,1,42,NA,NA,NA,1,0.33633,NA,NA,F_Image_42.bmp,2,1,1
191,1,27,NA,NA,NA,1,0.44248,NA,NA,F_Image_27.bmp,1,0,1
192,1,130,NA,NA,NA,2,0.54421,NA,NA,S_Lure_130.bmp,0,1,3
193,1,32,NA,NA,NA,1,0.3841,NA,NA,F_Image_32.bmp,2,0,1
194,1,92,NA,NA,NA,1,0.24381,NA,NA,O_Image_92.bmp,2,0,2
195,1,122,NA,NA,NA,2,0.49034,NA,NA,S_Lure_122.bmp,0,1,3
196,1,28,NA,NA,NA,1,0.30431,NA,NA,F_Image_28.bmp,2,0,1
197,1,86,NA,NA,NA,1,0.39279,NA,NA,O_Lure_86.bmp,0,1,2
198,1,87,NA,NA,NA,1,0.30514,NA,NA,O_Lure_87.bmp,0,1,2
199,1,73,NA,NA,NA,1,0.29554,NA,NA,O_Image_73.bmp,2,1,2
200,1,69,NA,NA,NA,1,0.26002,NA,NA,O_Lure_69.bmp,0,0,2
201,1,139,NA,NA,NA,1,0.32871,NA,NA,S_Lure_139.bmp,0,0,3
202,1,29,NA,NA,NA,1,0.72043,NA,NA,F_Lure_29.bmp,0,0,1
203,1,108,NA,NA,NA,1,0.3303,NA,NA,S_Lure_108.bmp,0,0,3
204,1,13,NA,NA,NA,2,0.40185,NA,NA,F_Lure_13.bmp,0,0,1
205,1,57,NA,NA,NA,1,0.31694,NA,NA,O_Lure_57.bmp,0,0,2
206,1,16,NA,NA,NA,1,0.26137,NA,NA,F_Image_16.bmp,1,0,1
207,1,55,NA,NA,NA,1,0.46859,NA,NA,O_Image_55.bmp,2,0,2
208,1,62,NA,NA,NA,1,0.26332,NA,NA,O_Lure_62.bmp,0,0,2
209,1,141,NA,NA,NA,1,0.35863,NA,NA,S_Image_141.bmp,2,1,3
210,1,55,NA,NA,NA,1,0.42535,NA,NA,O_Lure_55.bmp,0,0,2
211,1,136,NA,NA,NA,1,0.27615,NA,NA,S_Lure_136.bmp,0,1,3
212,1,14,NA,NA,NA,1,0.54235,NA,NA,F_Lure_14.bmp,0,1,1
213,1,44,NA,NA,NA,2,2.0268,NA,NA,F_Image_44.bmp,1,0,1
214,1,60,NA,NA,NA,1,0.50241,NA,NA,O_Lure_60.bmp,0,1,2
215,1,5,NA,NA,NA,1,0.37525,NA,NA,F_Image_5.bmp,1,1,1
216,1,26,NA,NA,NA,1,0.49147,NA,NA,F_Image_26.bmp,2,1,1
217,1,21,NA,NA,NA,1,0.80707,NA,NA,F_Image_21.bmp,1,1,1
218,1,96,NA,NA,NA,1,0.3398,NA,NA,O_Lure_96.bmp,0,0,2
219,1,98,NA,NA,NA,2,0.33319,NA,NA,S_Image_98.bmp,2,0,3
220,1,56,NA,NA,NA,1,0.26177,NA,NA,O_Lure_56.bmp,0,1,2
221,1,40,NA,NA,NA,2,0.35544,NA,NA,F_Lure_40.bmp,0,0,1
222,1,57,NA,NA,NA,1,1.4217,NA,NA,O_Image_57.bmp,1,0,2
223,1,97,NA,NA,NA,2,0.33459,NA,NA,S_Image_97.bmp,1,1,3
224,1,113,NA,NA,NA,2,0.3042,NA,NA,S_Image_113.bmp,1,0,3
225,1,22,NA,NA,NA,2,0.37787,NA,NA,F_Lure_22.bmp,0,0,1
226,1,54,NA,NA,NA,1,0.28125,NA,NA,O_Image_54.bmp,2,1,2
227,1,121,NA,NA,NA,2,0.5895,NA,NA,S_Lure_121.bmp,0,0,3
228,1,58,NA,NA,NA,1,0.33954,NA,NA,O_Lure_58.bmp,0,1,2
229,1,115,NA,NA,NA,2,0.63159,NA,NA,S_Image_115.bmp,1,1,3
230,1,54,NA,NA,NA,1,0.41149,NA,NA,O_Lure_54.bmp,0,1,2
231,1,24,NA,NA,NA,2,0.056421,NA,NA,F_Image_24.bmp,2,0,1
232,1,143,NA,NA,NA,2,0.33559,NA,NA,S_Lure_143.bmp,0,1,3
233,1,111,NA,NA,NA,1,0.30727,NA,NA,S_Lure_111.bmp,0,1,3
234,1,24,NA,NA,NA,1,0.00016483,NA,NA,F_Lure_24.bmp,0,0,1
235,1,12,NA,NA,NA,2,0.24248,NA,NA,F_Lure_12.bmp,0,1,1
236,1,128,NA,NA,NA,2,0.32041,NA,NA,S_Lure_128.bmp,0,1,3
237,1,95,NA,NA,NA,1,0.35843,NA,NA,O_Lure_95.bmp,0,0,2
238,1,110,NA,NA,NA,2,0.36551,NA,NA,S_Image_110.bmp,1,1,3
239,1,93,NA,NA,NA,1,1.479,NA,NA,O_Image_93.bmp,1,0,2
240,1,84,NA,NA,NA,1,0.54704,NA,NA,O_Image_84.bmp,2,0,2
241,1,66,NA,NA,NA,1,0.38591,NA,NA,O_Lure_66.bmp,0,0,2
242,1,143,NA,NA,NA,2,0.37207,NA,NA,S_Image_143.bmp,2,1,3
243,1,2,NA,NA,NA,1,0.35451,NA,NA,F_Image_2.bmp,2,0,1
244,1,71,NA,NA,NA,1,0.35213,NA,NA,O_Lure_71.bmp,0,1,2
245,1,133,NA,NA,NA,2,0.52919,NA,NA,S_Lure_133.bmp,0,1,3
246,1,34,NA,NA,NA,1,0.36667,NA,NA,F_Lure_34.bmp,0,1,1
247,1,46,NA,NA,NA,2,0.63351,NA,NA,F_Lure_46.bmp,0,1,1
248,1,125,NA,NA,NA,1,0.23449,NA,NA,S_Lure_125.bmp,0,0,3
249,1,29,NA,NA,NA,1,0.28397,NA,NA,F_Image_29.bmp,2,0,1
250,1,85,NA,NA,NA,1,0.33659,NA,NA,O_Image_85.bmp,1,1,2
251,1,25,NA,NA,NA,1,0.55361,NA,NA,F_Image_25.bmp,1,0,1
252,1,127,NA,NA,NA,1,0.30297,NA,NA,S_Lure_127.bmp,0,1,3
253,1,13,NA,NA,NA,1,0.41846,NA,NA,F_Image_13.bmp,1,0,1
254,1,102,NA,NA,NA,2,0.6243,NA,NA,S_Lure_102.bmp,0,0,3
255,1,72,NA,NA,NA,1,0.59443,NA,NA,O_Lure_72.bmp,0,0,2
256,1,131,NA,NA,NA,2,1.1057,NA,NA,S_Lure_131.bmp,0,0,3
257,1,9,NA,NA,NA,1,0.35427,NA,NA,F_Image_9.bmp,1,1,1
258,1,61,NA,NA,NA,1,0.70435,NA,NA,O_Image_61.bmp,1,0,2
259,1,8,NA,NA,NA,2,0.00014733,NA,NA,F_Image_8.bmp,2,1,1
260,1,135,NA,NA,NA,1,0.39141,NA,NA,S_Image_135.bmp,1,1,3
261,1,41,NA,NA,NA,2,0.41185,NA,NA,F_Lure_41.bmp,0,0,1
262,1,47,NA,NA,NA,1,0.34452,NA,NA,F_Image_47.bmp,2,0,1
263,1,19,NA,NA,NA,2,0.36876,NA,NA,F_Lure_19.bmp,0,0,1
264,1,144,NA,NA,NA,1,0.56153,NA,NA,S_Image_144.bmp,2,0,3
265,1,12,NA,NA,NA,1,0.41417,NA,NA,F_Image_12.bmp,2,1,1
266,1,61,NA,NA,NA,1,0.38285,NA,NA,O_Lure_61.bmp,0,0,2
267,1,116,NA,NA,NA,1,0.56283,NA,NA,S_Lure_116.bmp,0,0,3
268,1,35,NA,NA,NA,2,0.47685,NA,NA,F_Image_35.bmp,2,1,1
269,1,137,NA,NA,NA,1,0.54829,NA,NA,S_Image_137.bmp,1,1,3
270,1,78,NA,NA,NA,1,0.00015316,NA,NA,O_Lure_78.bmp,0,0,2
271,1,22,NA,NA,NA,1,0.35555,NA,NA,F_Image_22.bmp,1,0,1
272,1,135,NA,NA,NA,1,0.3431,NA,NA,S_Lure_135.bmp,0,1,3
273,1,118,NA,NA,NA,2,0.03293,NA,NA,S_Lure_118.bmp,0,1,3
274,1,102,NA,NA,NA,1,0.00016119,NA,NA,S_Image_102.bmp,1,0,3
275,1,33,NA,NA,NA,1,0.71979,NA,NA,F_Image_33.bmp,1,1,1
276,1,17,NA,NA,NA,1,0.67227,NA,NA,F_Lure_17.bmp,0,1,1
277,1,106,NA,NA,NA,2,0.16321,NA,NA,S_Image_106.bmp,1,0,3
278,1,118,NA,NA,NA,1,0.3946,NA,NA,S_Image_118.bmp,1,1,3
279,1,83,NA,NA,NA,1,0.40092,NA,NA,O_Image_83.bmp,1,0,2
280,1,1,NA,NA,NA,1,0.40343,NA,NA,F_Lure_1.bmp,0,0,1
281,1,40,NA,NA,NA,2,0.23855,NA,NA,F_Image_40.bmp,2,0,1
282,1,126,NA,NA,NA,2,0.52712,NA,NA,S_Image_126.bmp,1,0,3
283,1,46,NA,NA,NA,2,0.43842,NA,NA,F_Image_46.bmp,2,1,1
284,1,81,NA,NA,NA,1,0.32346,NA,NA,O_Image_81.bmp,2,0,2
285,1,26,NA,NA,NA,2,0.48796,NA,NA,F_Lure_26.bmp,0,1,1
286,1,7,NA,NA,NA,1,0.39285,NA,NA,F_Lure_7.bmp,0,1,1
287,1,21,NA,NA,NA,1,0.4451,NA,NA,F_Lure_21.bmp,0,1,1
288,1,137,NA,NA,NA,1,0.2661,NA,NA,S_Lure_137.bmp,0,1,3
289,2,89,steam,1,2,0,3.4997,0,NA,O_Image_89.bmp-O_Lure_89.bmp,1,1,2
290,2,23,sweat,1,1,0,3.4995,0,NA,F_Image_23.bmp-F_Lure_23.bmp,1,0,1
291,2,132,laundry,1,2,0,3.4996,0,NA,S_Image_132.bmp-S_Lure_132.bmp,1,0,3
292,2,112,breakfast,1,2,0,3.4998,0,NA,S_Image_112.bmp-S_Lure_112.bmp,1,0,3
293,2,90,spike,1,2,0,3.4999,0,NA,O_Image_90.bmp-O_Lure_90.bmp,1,0,2
294,2,133,bubble,1,1,0,3.4998,0,NA,S_Image_133.bmp-S_Lure_133.bmp,1,1,3
295,2,75,black,1,1,0,3.4996,0,NA,O_Image_75.bmp-O_Lure_75.bmp,1,1,2
296,2,14,rock,1,1,0,3.5,0,NA,F_Image_14.bmp-F_Lure_14.bmp,1,1,1
297,2,140,paper,1,1,0,3.4996,0,NA,S_Image_140.bmp-S_Lure_140.bmp,1,1,3
298,2,110,army,1,2,0,3.5003,0,NA,S_Image_110.bmp-S_Lure_110.bmp,1,1,3
299,2,5,giant,1,2,0,3.4998,0,NA,F_Image_5.bmp-F_Lure_5.bmp,1,1,1
300,2,122,ghost,1,2,0,3.4997,0,NA,S_Image_122.bmp-S_Lure_122.bmp,1,1,3
301,2,113,snow,1,1,0,3.4995,0,NA,S_Image_113.bmp-S_Lure_113.bmp,1,0,3
302,2,102,rust,1,2,0,3.5001,0,NA,S_Image_102.bmp-S_Lure_102.bmp,1,0,3
303,2,70,tourist,1,1,0,3.4999,0,NA,O_Image_70.bmp-O_Lure_70.bmp,1,1,2
304,2,136,wound,1,2,0,3.4997,0,NA,S_Image_136.bmp-S_Lure_136.bmp,1,1,3
305,2,1,honeymoon,1,1,0,3.5001,0,NA,F_Image_1.bmp-F_Lure_1.bmp,1,0,1
306,2,80,quake,1,1,0,3.4997,0,NA,O_Image_80.bmp-O_Lure_80.bmp,1,1,2
307,2,21,measles,1,2,0,3.4996,0,NA,F_Image_21.bmp-F_Lure_21.bmp,1,1,1
308,2,33,cone,1,2,0,3.4995,0,NA,F_Image_33.bmp-F_Lure_33.bmp,1,1,1
309,2,86,seed,1,1,0,3.4998,0,NA,O_Image_86.bmp-O_Lure_86.bmp,1,1,2
310,2,44,slope,1,1,0,3.5001,0,NA,F_Image_44.bmp-F_Lure_44.bmp,1,0,1
311,2,49,galaxy,1,2,0,3.4997,0,NA,O_Image_49.bmp-O_Lure_49.bmp,1,0,2
312,2,124,scar,1,1,0,3.4995,0,NA,S_Image_124.bmp-S_Lure_124.bmp,1,1,3
313,3,110,army,1,2,0,3.5,0,NA,S_Image_110.bmp-S_Lure_110.bmp,1,1,3
314,3,89,steam,1,2,0,3.4997,0,NA,O_Image_89.bmp-O_Lure_89.bmp,1,1,2
315,3,140,paper,1,1,0,3.4996,0,NA,S_Image_140.bmp-S_Lure_140.bmp,1,1,3
316,3,14,rock,1,2,0,3.5001,0,NA,F_Image_14.bmp-F_Lure_14.bmp,1,1,1
317,3,23,sweat,1,1,0,3.4998,0,NA,F_Image_23.bmp-F_Lure_23.bmp,1,0,1
318,3,136,wound,1,2,0,3.5,0,NA,S_Image_136.bmp-S_Lure_136.bmp,1,1,3
319,3,102,rust,1,1,0,3.5,0,NA,S_Image_102.bmp-S_Lure_102.bmp,1,0,3
320,3,113,snow,1,2,0,3.4998,0,NA,S_Image_113.bmp-S_Lure_113.bmp,1,0,3
321,3,86,seed,1,1,0,3.5001,0,NA,O_Image_86.bmp-O_Lure_86.bmp,1,1,2
322,3,124,scar,1,2,0,3.5,0,NA,S_Image_124.bmp-S_Lure_124.bmp,1,1,3
323,3,21,measles,1,1,0,3.4997,0,NA,F_Image_21.bmp-F_Lure_21.bmp,1,1,1
324,3,90,spike,1,2,0,3.5018,0,NA,O_Image_90.bmp-O_Lure_90.bmp,1,0,2
325,3,70,tourist,1,1,0,3.5005,0,NA,O_Image_70.bmp-O_Lure_70.bmp,1,1,2
326,3,75,black,1,1,0,3.5,0,NA,O_Image_75.bmp-O_Lure_75.bmp,1,1,2
327,3,112,breakfast,1,2,0,3.4999,0,NA,S_Image_112.bmp-S_Lure_112.bmp,1,0,3
328,3,80,quake,1,2,0,3.5013,0,NA,O_Image_80.bmp-O_Lure_80.bmp,1,1,2
329,3,122,ghost,1,1,1,0.86666,1,NA,S_Image_122.bmp-S_Lure_122.bmp,1,1,3
330,3,132,laundry,1,1,2,2.1639,0,NA,S_Image_132.bmp-S_Lure_132.bmp,1,0,3
331,3,133,bubble,1,1,2,1.7028,0,NA,S_Image_133.bmp-S_Lure_133.bmp,1,1,3
332,3,44,slope,1,1,1,1.449,1,NA,F_Image_44.bmp-F_Lure_44.bmp,1,0,1
333,3,49,galaxy,1,1,1,0.85245,1,NA,O_Image_49.bmp-O_Lure_49.bmp,1,0,2
334,3,5,giant,1,2,2,1.1289,1,NA,F_Image_5.bmp-F_Lure_5.bmp,1,1,1
335,3,1,honeymoon,1,1,1,1.0954,1,NA,F_Image_1.bmp-F_Lure_1.bmp,1,0,1
336,3,33,cone,1,1,1,1.0968,1,NA,F_Image_33.bmp-F_Lure_33.bmp,1,1,1
337,2,72,money,2,2,2,1.0859,1,NA,O_Image_72.bmp-O_Lure_72.bmp,1,0,2
338,2,61,magnet,2,1,1,0.74737,1,NA,O_Image_61.bmp-O_Lure_61.bmp,1,0,2
339,2,9,attack,2,2,2,1.8182,1,NA,F_Image_9.bmp-F_Lure_9.bmp,1,1,1
340,2,25,lever,2,1,1,1.0404,1,NA,F_Image_25.bmp-F_Lure_25.bmp,1,0,1
341,2,85,triangle,2,1,1,0.99223,1,NA,O_Image_85.bmp-O_Lure_85.bmp,1,1,2
342,2,66,orchestra,2,1,1,1.1729,1,NA,O_Image_66.bmp-O_Lure_66.bmp,1,0,2
343,2,131,vegetable,2,2,2,2.6033,1,NA,S_Image_131.bmp-S_Lure_131.bmp,1,0,3
344,2,37,crumb,2,1,2,2.1288,0,NA,F_Image_37.bmp-F_Lure_37.bmp,1,0,1
345,2,78,wool,2,2,2,0.87301,1,NA,O_Image_78.bmp-O_Lure_78.bmp,1,0,2
346,2,115,marble,2,2,2,1.3424,1,NA,S_Image_115.bmp-S_Lure_115.bmp,1,1,3
347,2,82,tail,2,1,1,1.4066,1,NA,O_Image_82.bmp-O_Lure_82.bmp,1,1,2
348,2,106,signal,2,1,2,1.8704,0,NA,S_Image_106.bmp-S_Lure_106.bmp,1,0,3
349,2,116,stem,2,1,1,1.1915,1,NA,S_Image_116.bmp-S_Lure_116.bmp,1,0,3
350,2,27,poison,2,1,1,1.0966,1,NA,F_Image_27.bmp-F_Lure_27.bmp,1,0,1
351,2,22,yellow,2,1,1,1.4986,1,NA,F_Image_22.bmp-F_Lure_22.bmp,1,0,1
352,2,57,antique,2,1,1,1.2046,1,NA,O_Image_57.bmp-O_Lure_57.bmp,1,0,2
353,2,3,spray,2,2,2,1.678,1,NA,F_Image_3.bmp-F_Lure_3.bmp,1,1,1
354,2,19,witch,2,2,2,1.1299,1,NA,F_Image_19.bmp-F_Lure_19.bmp,1,0,1
355,2,20,shell,2,1,1,0.91015,1,NA,F_Image_20.bmp-F_Lure_20.bmp,1,0,1
356,2,58,tear,2,2,2,0.82427,1,NA,O_Image_58.bmp-O_Lure_58.bmp,1,1,2
357,2,16,hurricane,2,1,2,1.2091,0,NA,F_Image_16.bmp-F_Lure_16.bmp,1,0,1
358,2,53,angel,2,2,1,1.1679,0,NA,O_Image_53.bmp-O_Lure_53.bmp,1,1,2
359,2,4,sand,2,2,1,1.2372,0,NA,F_Image_4.bmp-F_Lure_4.bmp,1,0,1
360,2,13,board,2,2,2,1.4373,1,NA,F_Image_13.bmp-F_Lure_13.bmp,1,0,1
361,3,20,shell,2,1,1,1.4262,1,NA,F_Image_20.bmp-F_Lure_20.bmp,1,0,1
362,3,37,crumb,2,2,1,0.80154,0,NA,F_Image_37.bmp-F_Lure_37.bmp,1,0,1
363,3,22,yellow,2,2,1,0.67706,0,NA,F_Image_22.bmp-F_Lure_22.bmp,1,0,1
364,3,106,signal,2,1,2,1.1871,0,NA,S_Image_106.bmp-S_Lure_106.bmp,1,0,3
365,3,3,spray,2,2,2,0.76839,1,NA,F_Image_3.bmp-F_Lure_3.bmp,1,1,1
366,3,25,lever,2,2,1,0.58633,0,NA,F_Image_25.bmp-F_Lure_25.bmp,1,0,1
367,3,131,vegetable,2,2,1,1.0237,0,NA,S_Image_131.bmp-S_Lure_131.bmp,1,0,3
368,3,9,attack,2,1,1,0.7391,1,NA,F_Image_9.bmp-F_Lure_9.bmp,1,1,1
369,3,58,tear,2,2,2,0.70468,1,NA,O_Image_58.bmp-O_Lure_58.bmp,1,1,2
370,3,61,magnet,2,1,1,0.56939,1,NA,O_Image_61.bmp-O_Lure_61.bmp,1,0,2
371,3,116,stem,2,2,2,1.0711,1,NA,S_Image_116.bmp-S_Lure_116.bmp,1,0,3
372,3,72,money,2,2,2,0.68935,1,NA,O_Image_72.bmp-O_Lure_72.bmp,1,0,2
373,3,53,angel,2,2,2,0.55994,1,NA,O_Image_53.bmp-O_Lure_53.bmp,1,1,2
374,3,27,poison,2,1,1,0.66666,1,NA,F_Image_27.bmp-F_Lure_27.bmp,1,0,1
375,3,78,wool,2,1,1,0.60993,1,NA,O_Image_78.bmp-O_Lure_78.bmp,1,0,2
376,3,115,marble,2,1,1,1.2931,1,NA,S_Image_115.bmp-S_Lure_115.bmp,1,1,3
377,3,19,witch,2,2,2,1.4843,1,NA,F_Image_19.bmp-F_Lure_19.bmp,1,0,1
378,3,66,orchestra,2,2,2,0.88611,1,NA,O_Image_66.bmp-O_Lure_66.bmp,1,0,2
379,3,4,sand,2,1,1,1.2662,1,NA,F_Image_4.bmp-F_Lure_4.bmp,1,0,1
380,3,82,tail,2,2,2,0.98775,1,NA,O_Image_82.bmp-O_Lure_82.bmp,1,1,2
381,3,57,antique,2,1,1,1.0882,1,NA,O_Image_57.bmp-O_Lure_57.bmp,1,0,2
382,3,13,board,2,2,2,1.6847,1,NA,F_Image_13.bmp-F_Lure_13.bmp,1,0,1
383,3,16,hurricane,2,1,1,0.60519,1,NA,F_Image_16.bmp-F_Lure_16.bmp,1,0,1
384,3,85,triangle,2,1,1,0.59059,1,NA,O_Image_85.bmp-O_Lure_85.bmp,1,1,2
385,2,97,alien,3,2,0,3.5001,0,NA,S_Image_97.bmp-S_Lure_97.bmp,1,1,3
386,2,83,costume,3,1,2,0.60558,0,NA,O_Image_83.bmp-O_Lure_83.bmp,1,0,2
387,2,91,drizzle,3,2,1,0.97168,0,NA,O_Image_91.bmp-O_Lure_91.bmp,1,0,2
388,2,7,arrow,3,2,2,1.3049,1,NA,F_Image_7.bmp-F_Lure_7.bmp,1,1,1
389,2,60,arch,3,2,1,1.0573,0,NA,O_Image_60.bmp-O_Lure_60.bmp,1,1,2
390,2,52,stripe,3,2,1,0.81822,0,NA,O_Image_52.bmp-O_Lure_52.bmp,1,1,2
391,2,130,tube,3,2,2,1.6361,1,NA,S_Image_130.bmp-S_Lure_130.bmp,1,1,3
392,2,18,menu,3,2,2,0.85493,1,NA,F_Image_18.bmp-F_Lure_18.bmp,1,1,1
393,2,34,asphalt,3,2,1,1.3622,0,NA,F_Image_34.bmp-F_Lure_34.bmp,1,1,1
394,2,125,animal,3,2,1,0.92767,0,NA,S_Image_125.bmp-S_Lure_125.bmp,1,0,3
395,2,100,harem,3,1,1,3.082,1,NA,S_Image_100.bmp-S_Lure_100.bmp,1,0,3
396,2,59,hostage,3,2,2,0.81099,1,NA,O_Image_59.bmp-O_Lure_59.bmp,1,0,2
397,2,10,sunshine,3,1,2,0.89047,0,NA,F_Image_10.bmp-F_Lure_10.bmp,1,1,1
398,2,30,corner,3,1,1,0.82931,1,NA,F_Image_30.bmp-F_Lure_30.bmp,1,1,1
399,2,135,fuel,3,1,2,1.0719,0,NA,S_Image_135.bmp-S_Lure_135.bmp,1,1,3
400,2,114,water,3,2,2,1.0998,1,NA,S_Image_114.bmp-S_Lure_114.bmp,1,1,3
401,2,118,flood,3,1,2,1.945,0,NA,S_Image_118.bmp-S_Lure_118.bmp,1,1,3
402,2,126,wreck,3,2,1,2.1379,0,NA,S_Image_126.bmp-S_Lure_126.bmp,1,0,3
403,2,74,fire,3,2,1,2.8126,0,NA,O_Image_74.bmp-O_Lure_74.bmp,1,0,2
404,2,93,shadow,3,2,1,1.1783,0,NA,O_Image_93.bmp-O_Lure_93.bmp,1,0,2
405,2,137,alcohol,3,1,1,1.2769,1,NA,S_Image_137.bmp-S_Lure_137.bmp,1,1,3
406,2,64,corpse,3,2,2,0.87678,1,NA,O_Image_64.bmp-O_Lure_64.bmp,1,1,2
407,2,105,kiss,3,2,1,2.8378,0,NA,S_Image_105.bmp-S_Lure_105.bmp,1,0,3
408,2,15,cloud,3,1,1,1.6577,1,NA,F_Image_15.bmp-F_Lure_15.bmp,1,0,1
409,3,30,corner,3,2,2,1.0161,1,NA,F_Image_30.bmp-F_Lure_30.bmp,1,1,1
410,3,105,kiss,3,2,2,1.9474,1,NA,S_Image_105.bmp-S_Lure_105.bmp,1,0,3
411,3,97,alien,3,2,2,1.7929,1,NA,S_Image_97.bmp-S_Lure_97.bmp,1,1,3
412,3,18,menu,3,1,1,0.84094,1,NA,F_Image_18.bmp-F_Lure_18.bmp,1,1,1
413,3,74,fire,3,1,1,1.2184,1,NA,O_Image_74.bmp-O_Lure_74.bmp,1,0,2
414,3,64,corpse,3,1,1,1.0231,1,NA,O_Image_64.bmp-O_Lure_64.bmp,1,1,2
415,3,59,hostage,3,2,2,0.77018,1,NA,O_Image_59.bmp-O_Lure_59.bmp,1,0,2
416,3,93,shadow,3,1,2,1.1633,0,NA,O_Image_93.bmp-O_Lure_93.bmp,1,0,2
417,3,7,arrow,3,1,1,0.98115,1,NA,F_Image_7.bmp-F_Lure_7.bmp,1,1,1
418,3,83,costume,3,1,1,0.43503,1,NA,O_Image_83.bmp-O_Lure_83.bmp,1,0,2
419,3,118,flood,3,1,2,1.7539,0,NA,S_Image_118.bmp-S_Lure_118.bmp,1,1,3
420,3,126,wreck,3,2,1,3.1382,0,NA,S_Image_126.bmp-S_Lure_126.bmp,1,0,3
421,3,91,drizzle,3,1,1,0.62817,1,NA,O_Image_91.bmp-O_Lure_91.bmp,1,0,2
422,3,60,arch,3,2,2,1.027,1,NA,O_Image_60.bmp-O_Lure_60.bmp,1,1,2
423,3,135,fuel,3,1,2,1.1419,0,NA,S_Image_135.bmp-S_Lure_135.bmp,1,1,3
424,3,100,harem,3,2,2,1.1182,1,NA,S_Image_100.bmp-S_Lure_100.bmp,1,0,3
425,3,137,alcohol,3,1,1,0.81116,1,NA,S_Image_137.bmp-S_Lure_137.bmp,1,1,3
426,3,114,water,3,2,2,2.1033,1,NA,S_Image_114.bmp-S_Lure_114.bmp,1,1,3
427,3,125,animal,3,1,1,1.4337,1,NA,S_Image_125.bmp-S_Lure_125.bmp,1,0,3
428,3,15,cloud,3,2,1,1.157,0,NA,F_Image_15.bmp-F_Lure_15.bmp,1,0,1
429,3,10,sunshine,3,1,1,1.2394,1,NA,F_Image_10.bmp-F_Lure_10.bmp,1,1,1
430,3,52,stripe,3,2,1,0.86027,0,NA,O_Image_52.bmp-O_Lure_52.bmp,1,1,2
431,3,130,tube,3,2,2,1.9805,1,NA,S_Image_130.bmp-S_Lure_130.bmp,1,1,3
432,3,34,asphalt,3,2,2,0.75589,1,NA,F_Image_34.bmp-F_Lure_34.bmp,1,1,1
433,4,134,giant,1,2,2,1.2338,1,NA,S_Image_134.bmp-S_Lure_134.bmp,2,1,3
434,4,99,magnet,1,1,0,3.4998,0,NA,S_Image_99.bmp-S_Lure_99.bmp,2,0,3
435,4,65,alien,1,2,2,1.5445,1,NA,O_Image_65.bmp-O_Lure_65.bmp,2,1,2
436,4,51,fuel,1,2,1,1.3561,0,NA,O_Image_51.bmp-O_Lure_51.bmp,2,1,2
437,4,41,fire,1,1,1,1.1111,1,NA,F_Image_41.bmp-F_Lure_41.bmp,2,0,1
438,4,67,laundry,1,1,1,1.0336,1,NA,O_Image_67.bmp-O_Lure_67.bmp,2,0,2
439,4,109,stripe,1,2,2,1.1751,1,NA,S_Image_109.bmp-S_Lure_109.bmp,2,1,3
440,4,56,attack,1,1,1,0.6071,1,NA,O_Image_56.bmp-O_Lure_56.bmp,2,1,2
441,4,96,breakfast,1,1,1,0.74399,1,NA,O_Image_96.bmp-O_Lure_96.bmp,2,0,2
442,4,26,tail,1,1,1,0.97314,1,NA,F_Image_26.bmp-F_Lure_26.bmp,2,1,1
443,4,101,sand,1,2,1,2.0928,0,NA,S_Image_101.bmp-S_Lure_101.bmp,2,0,3
444,4,123,poison,1,2,2,1.2221,1,NA,S_Image_123.bmp-S_Lure_123.bmp,2,0,3
445,4,54,bubble,1,1,1,0.85327,1,NA,O_Image_54.bmp-O_Lure_54.bmp,2,1,2
446,4,138,arrow,1,2,2,0.95487,1,NA,S_Image_138.bmp-S_Lure_138.bmp,2,1,3
447,4,142,spray,1,2,1,1.6088,0,NA,S_Image_142.bmp-S_Lure_142.bmp,2,1,3
448,4,139,hurricane,1,1,1,1.2704,1,NA,S_Image_139.bmp-S_Lure_139.bmp,2,0,3
449,4,11,alcohol,1,2,2,1.0925,1,NA,F_Image_11.bmp-F_Lure_11.bmp,2,1,1
450,4,111,quake,1,1,2,1.1354,0,NA,S_Image_111.bmp-S_Lure_111.bmp,2,1,3
451,4,48,costume,1,1,1,1.1125,1,NA,F_Image_48.bmp-F_Lure_48.bmp,2,0,1
452,4,95,sweat,1,2,1,1.2269,0,NA,O_Image_95.bmp-O_Lure_95.bmp,2,0,2
453,4,62,snow,1,2,1,1.0273,0,NA,O_Image_62.bmp-O_Lure_62.bmp,2,0,2
454,4,46,seed,1,1,1,1.4423,1,NA,F_Image_46.bmp-F_Lure_46.bmp,2,1,1
455,4,55,board,1,1,1,0.91811,1,NA,O_Image_55.bmp-O_Lure_55.bmp,2,0,2
456,4,8,tourist,1,1,1,1.4394,1,NA,F_Image_8.bmp-F_Lure_8.bmp,2,1,1
457,4,50,rust,2,2,2,2.7874,1,NA,O_Image_50.bmp-O_Lure_50.bmp,2,0,2
458,4,71,measles,2,1,2,0.86359,0,NA,O_Image_71.bmp-O_Lure_71.bmp,2,1,2
459,4,141,steam,2,2,2,1.6586,1,NA,S_Image_141.bmp-S_Lure_141.bmp,2,1,3
460,4,39,hostage,2,2,2,1.7996,1,NA,F_Image_39.bmp-F_Lure_39.bmp,2,0,1
461,4,31,arch,2,2,2,1.3104,1,NA,F_Image_31.bmp-F_Lure_31.bmp,2,1,1
462,4,40,wool,2,2,1,2.4374,0,NA,F_Image_40.bmp-F_Lure_40.bmp,2,0,1
463,4,98,yellow,2,1,2,2.1076,0,NA,S_Image_98.bmp-S_Lure_98.bmp,2,0,3
464,4,6,wreck,2,2,2,0.8794,1,NA,F_Image_6.bmp-F_Lure_6.bmp,2,0,1
465,4,76,scar,2,1,1,0.55119,1,NA,O_Image_76.bmp-O_Lure_76.bmp,2,1,2
466,4,121,slope,2,1,1,1.325,1,NA,S_Image_121.bmp-S_Lure_121.bmp,2,0,3
467,4,69,lever,2,2,2,0.91053,1,NA,O_Image_69.bmp-O_Lure_69.bmp,2,0,2
468,4,87,rock,2,2,2,1.3154,1,NA,O_Image_87.bmp-O_Lure_87.bmp,2,1,2
469,4,144,spike,2,1,1,0.77884,1,NA,S_Image_144.bmp-S_Lure_144.bmp,2,0,3
470,4,47,galaxy,2,1,1,0.65148,1,NA,F_Image_47.bmp-F_Lure_47.bmp,2,0,1
471,4,42,black,2,1,2,1.0646,0,NA,F_Image_42.bmp-F_Lure_42.bmp,2,1,1
472,4,81,signal,2,2,2,1.2238,1,NA,O_Image_81.bmp-O_Lure_81.bmp,2,0,2
473,4,28,harem,2,2,2,1.1009,1,NA,F_Image_28.bmp-F_Lure_28.bmp,2,0,1
474,4,68,tube,2,2,1,1.0422,0,NA,O_Image_68.bmp-O_Lure_68.bmp,2,1,2
475,4,104,shadow,2,2,1,2.9558,0,NA,S_Image_104.bmp-S_Lure_104.bmp,2,0,3
476,4,24,orchestra,2,1,1,1.3652,1,NA,F_Image_24.bmp-F_Lure_24.bmp,2,0,1
477,4,119,angel,2,2,2,1.765,1,NA,S_Image_119.bmp-S_Lure_119.bmp,2,1,3
478,4,2,stem,2,1,1,1.1006,1,NA,F_Image_2.bmp-F_Lure_2.bmp,2,0,1
479,4,77,animal,2,2,1,0.60458,0,NA,O_Image_77.bmp-O_Lure_77.bmp,2,0,2
480,4,63,sunshine,2,2,1,0.93923,0,NA,O_Image_63.bmp-O_Lure_63.bmp,2,1,2
481,4,17,ghost,3,1,2,1.1155,0,NA,F_Image_17.bmp-F_Lure_17.bmp,2,1,1
482,4,38,corpse,3,1,1,1.2489,1,NA,F_Image_38.bmp-F_Lure_38.bmp,2,1,1
483,4,79,marble,3,1,1,0.84527,1,NA,O_Image_79.bmp-O_Lure_79.bmp,2,1,2
484,4,128,cone,3,2,1,1.5876,0,NA,S_Image_128.bmp-S_Lure_128.bmp,2,1,3
485,4,35,wound,3,2,2,1.4368,1,NA,F_Image_35.bmp-F_Lure_35.bmp,2,1,1
486,4,103,witch,3,1,1,1.2715,1,NA,S_Image_103.bmp-S_Lure_103.bmp,2,0,3
487,4,43,flood,3,1,1,1.2251,1,NA,F_Image_43.bmp-F_Lure_43.bmp,2,1,1
488,4,84,honeymoon,3,1,1,0.50321,1,NA,O_Image_84.bmp-O_Lure_84.bmp,2,0,2
489,4,120,cloud,3,1,2,1.6696,0,NA,S_Image_120.bmp-S_Lure_120.bmp,2,0,3
490,4,73,water,3,2,1,0.61106,0,NA,O_Image_73.bmp-O_Lure_73.bmp,2,1,2
491,4,36,money,3,2,2,1.2298,1,NA,F_Image_36.bmp-F_Lure_36.bmp,2,0,1
492,4,32,drizzle,3,1,1,0.87938,1,NA,F_Image_32.bmp-F_Lure_32.bmp,2,0,1
493,4,94,paper,3,2,1,1.4834,0,NA,O_Image_94.bmp-O_Lure_94.bmp,2,1,2
494,4,107,corner,3,1,1,0.52096,1,NA,S_Image_107.bmp-S_Lure_107.bmp,2,1,3
495,4,129,shell,3,1,1,1.1659,1,NA,S_Image_129.bmp-S_Lure_129.bmp,2,0,3
496,4,45,vegetable,3,1,1,0.6547,1,NA,F_Image_45.bmp-F_Lure_45.bmp,2,0,1
497,4,143,tear,3,2,2,1.0029,1,NA,S_Image_143.bmp-S_Lure_143.bmp,2,1,3
498,4,108,crumb,3,2,2,1.8191,1,NA,S_Image_108.bmp-S_Lure_108.bmp,2,0,3
499,4,92,kiss,3,2,2,0.86313,1,NA,O_Image_92.bmp-O_Lure_92.bmp,2,0,2
500,4,117,menu,3,2,2,2.0938,1,NA,S_Image_117.bmp-S_Lure_117.bmp,2,1,3
501,4,127,asphalt,3,2,1,0.8695,0,NA,S_Image_127.bmp-S_Lure_127.bmp,2,1,3
502,4,12,triangle,3,2,2,2.1478,1,NA,F_Image_12.bmp-F_Lure_12.bmp,2,1,1
503,4,88,army,3,1,1,0.79409,1,NA,O_Image_88.bmp-O_Lure_88.bmp,2,1,2
504,4,29,antique,3,2,2,0.8818,1,NA,F_Image_29.bmp-F_Lure_29.bmp,2,0,1
