Trial,Cond,ImageNum,Cue,Block,Correct,Response,RT,Accuracy,CueRep,fName,ImageType,Baseline,Category
1,1,16,NA,NA,NA,1,4.3763,NA,NA,F_Lure_16.bmp,0,1,1
2,1,50,NA,NA,NA,1,1.605,NA,NA,O_Image_50.bmp,1,1,2
3,1,69,NA,NA,NA,1,0.93936,NA,NA,O_Lure_69.bmp,0,0,2
4,1,82,NA,NA,NA,1,2.6921,NA,NA,O_Image_82.bmp,2,0,2
5,1,16,NA,NA,NA,1,0.7333,NA,NA,F_Image_16.bmp,1,1,1
6,1,120,NA,NA,NA,2,1.1078,NA,NA,S_Image_120.bmp,1,0,3
7,1,9,NA,NA,NA,2,0.5085,NA,NA,F_Image_9.bmp,2,0,1
8,1,15,NA,NA,NA,2,0.57183,NA,NA,F_Lure_15.bmp,0,1,1
9,1,122,NA,NA,NA,1,2.6085,NA,NA,S_Image_122.bmp,1,1,3
10,1,108,NA,NA,NA,2,0.64548,NA,NA,S_Image_108.bmp,1,1,3
11,1,23,NA,NA,NA,1,0.41702,NA,NA,F_Lure_23.bmp,0,1,1
12,1,93,NA,NA,NA,1,0.47748,NA,NA,O_Image_93.bmp,2,0,2
13,1,76,NA,NA,NA,1,0.38369,NA,NA,O_Lure_76.bmp,0,0,2
14,1,104,NA,NA,NA,1,2.3175,NA,NA,S_Lure_104.bmp,0,1,3
15,1,64,NA,NA,NA,1,0.44744,NA,NA,O_Lure_64.bmp,0,1,2
16,1,102,NA,NA,NA,2,0.42577,NA,NA,S_Lure_102.bmp,0,1,3
17,1,53,NA,NA,NA,1,0.59711,NA,NA,O_Image_53.bmp,1,0,2
18,1,113,NA,NA,NA,1,0.41862,NA,NA,S_Lure_113.bmp,0,0,3
19,1,58,NA,NA,NA,1,0.32653,NA,NA,O_Image_58.bmp,1,0,2
20,1,56,NA,NA,NA,1,0.078235,NA,NA,O_Image_56.bmp,2,1,2
21,1,89,NA,NA,NA,1,0.71886,NA,NA,O_Lure_89.bmp,0,1,2
22,1,43,NA,NA,NA,1,0.9433,NA,NA,F_Lure_43.bmp,0,0,1
23,1,1,NA,NA,NA,1,0.82124,NA,NA,F_Image_1.bmp,1,1,1
24,1,142,NA,NA,NA,2,0.47407,NA,NA,S_Lure_142.bmp,0,0,3
25,1,57,NA,NA,NA,1,0.43489,NA,NA,O_Image_57.bmp,2,1,2
26,1,100,NA,NA,NA,2,0.51071,NA,NA,S_Image_100.bmp,2,1,3
27,1,115,NA,NA,NA,2,0.53483,NA,NA,S_Lure_115.bmp,0,1,3
28,1,19,NA,NA,NA,2,0.389,NA,NA,F_Image_19.bmp,1,0,1
29,1,11,NA,NA,NA,1,0.63216,NA,NA,F_Image_11.bmp,1,0,1
30,1,41,NA,NA,NA,2,0.45244,NA,NA,F_Lure_41.bmp,0,1,1
31,1,14,NA,NA,NA,1,0.62461,NA,NA,F_Lure_14.bmp,0,1,1
32,1,31,NA,NA,NA,1,0.56424,NA,NA,F_Image_31.bmp,2,0,1
33,1,67,NA,NA,NA,1,0.33912,NA,NA,O_Image_67.bmp,1,1,2
34,1,28,NA,NA,NA,2,0.75438,NA,NA,F_Image_28.bmp,1,0,1
35,1,63,NA,NA,NA,1,0.46568,NA,NA,O_Lure_63.bmp,0,0,2
36,1,96,NA,NA,NA,1,0.43518,NA,NA,O_Image_96.bmp,2,1,2
37,1,139,NA,NA,NA,1,0.51905,NA,NA,S_Lure_139.bmp,0,0,3
38,1,92,NA,NA,NA,1,0.32643,NA,NA,O_Image_92.bmp,2,0,2
39,1,114,NA,NA,NA,1,0.93362,NA,NA,S_Image_114.bmp,1,0,3
40,1,141,NA,NA,NA,1,0.69398,NA,NA,S_Image_141.bmp,1,0,3
41,1,106,NA,NA,NA,1,0.61561,NA,NA,S_Lure_106.bmp,0,1,3
42,1,42,NA,NA,NA,1,0.89986,NA,NA,F_Image_42.bmp,2,0,1
43,1,44,NA,NA,NA,1,1.0355,NA,NA,F_Image_44.bmp,1,1,1
44,1,111,NA,NA,NA,2,1.5022,NA,NA,S_Lure_111.bmp,0,0,3
45,1,102,NA,NA,NA,2,0.77497,NA,NA,S_Image_102.bmp,2,1,3
46,1,113,NA,NA,NA,1,0.28423,NA,NA,S_Image_113.bmp,2,0,3
47,1,18,NA,NA,NA,1,0.46166,NA,NA,F_Lure_18.bmp,0,1,1
48,1,27,NA,NA,NA,1,0.38326,NA,NA,F_Image_27.bmp,1,1,1
49,1,50,NA,NA,NA,1,2.5335,NA,NA,O_Lure_50.bmp,0,1,2
50,1,133,NA,NA,NA,2,0.41374,NA,NA,S_Image_133.bmp,2,0,3
51,1,7,NA,NA,NA,1,0.49846,NA,NA,F_Lure_7.bmp,0,1,1
52,1,70,NA,NA,NA,1,0.47435,NA,NA,O_Lure_70.bmp,0,0,2
53,1,86,NA,NA,NA,1,0.66752,NA,NA,O_Lure_86.bmp,0,1,2
54,1,61,NA,NA,NA,1,0.55741,NA,NA,O_Lure_61.bmp,0,1,2
55,1,110,NA,NA,NA,2,0.57187,NA,NA,S_Image_110.bmp,1,1,3
56,1,86,NA,NA,NA,1,0.38562,NA,NA,O_Image_86.bmp,1,1,2
57,1,35,NA,NA,NA,2,0.43048,NA,NA,F_Image_35.bmp,1,1,1
58,1,97,NA,NA,NA,1,1.2986,NA,NA,S_Lure_97.bmp,0,1,3
59,1,83,NA,NA,NA,1,0.54763,NA,NA,O_Lure_83.bmp,0,1,2
60,1,54,NA,NA,NA,1,1.6272,NA,NA,O_Lure_54.bmp,0,0,2
61,1,114,NA,NA,NA,1,0.47086,NA,NA,S_Lure_114.bmp,0,0,3
62,1,4,NA,NA,NA,1,0.8341,NA,NA,F_Lure_4.bmp,0,1,1
63,1,10,NA,NA,NA,2,0.56624,NA,NA,F_Image_10.bmp,1,0,1
64,1,38,NA,NA,NA,2,0.71643,NA,NA,F_Lure_38.bmp,0,1,1
65,1,37,NA,NA,NA,2,0.55694,NA,NA,F_Lure_37.bmp,0,0,1
66,1,69,NA,NA,NA,1,0.49095,NA,NA,O_Image_69.bmp,2,0,2
67,1,103,NA,NA,NA,1,1.0601,NA,NA,S_Image_103.bmp,2,1,3
68,1,87,NA,NA,NA,1,1.1265,NA,NA,O_Image_87.bmp,1,0,2
69,1,64,NA,NA,NA,1,0.3758,NA,NA,O_Image_64.bmp,2,1,2
70,1,18,NA,NA,NA,1,0.22886,NA,NA,F_Image_18.bmp,2,1,1
71,1,121,NA,NA,NA,1,0.74449,NA,NA,S_Image_121.bmp,2,1,3
72,1,133,NA,NA,NA,2,0.55926,NA,NA,S_Lure_133.bmp,0,0,3
73,1,65,NA,NA,NA,1,0.43813,NA,NA,O_Image_65.bmp,2,1,2
74,1,57,NA,NA,NA,1,0.86631,NA,NA,O_Lure_57.bmp,0,1,2
75,1,26,NA,NA,NA,2,3.0054,NA,NA,F_Lure_26.bmp,0,0,1
76,1,134,NA,NA,NA,1,0.43629,NA,NA,S_Image_134.bmp,2,0,3
77,1,81,NA,NA,NA,1,0.423,NA,NA,O_Lure_81.bmp,0,0,2
78,1,24,NA,NA,NA,2,1.0996,NA,NA,F_Lure_24.bmp,0,0,1
79,1,33,NA,NA,NA,2,1.2439,NA,NA,F_Lure_33.bmp,0,1,1
80,1,142,NA,NA,NA,2,2.6962,NA,NA,S_Image_142.bmp,2,0,3
81,1,130,NA,NA,NA,2,0.76294,NA,NA,S_Image_130.bmp,1,1,3
82,1,62,NA,NA,NA,1,0.59433,NA,NA,O_Lure_62.bmp,0,1,2
83,1,60,NA,NA,NA,1,0.44089,NA,NA,O_Lure_60.bmp,0,0,2
84,1,25,NA,NA,NA,1,0.43691,NA,NA,F_Image_25.bmp,1,1,1
85,1,45,NA,NA,NA,2,0.40807,NA,NA,F_Image_45.bmp,1,0,1
86,1,51,NA,NA,NA,1,0.62939,NA,NA,O_Image_51.bmp,1,1,2
87,1,68,NA,NA,NA,1,0.69752,NA,NA,O_Lure_68.bmp,0,0,2
88,1,49,NA,NA,NA,1,0.65814,NA,NA,O_Image_49.bmp,1,0,2
89,1,53,NA,NA,NA,1,0.51682,NA,NA,O_Lure_53.bmp,0,0,2
90,1,132,NA,NA,NA,2,0.59031,NA,NA,S_Lure_132.bmp,0,1,3
91,1,20,NA,NA,NA,1,0.58892,NA,NA,F_Lure_20.bmp,0,0,1
92,1,128,NA,NA,NA,2,0.61836,NA,NA,S_Lure_128.bmp,0,0,3
93,1,26,NA,NA,NA,2,1.6725,NA,NA,F_Image_26.bmp,2,0,1
94,1,39,NA,NA,NA,2,0.53984,NA,NA,F_Lure_39.bmp,0,1,1
95,1,28,NA,NA,NA,2,0.45252,NA,NA,F_Lure_28.bmp,0,0,1
96,1,12,NA,NA,NA,2,0.52125,NA,NA,F_Image_12.bmp,1,0,1
97,1,83,NA,NA,NA,1,0.53869,NA,NA,O_Image_83.bmp,1,1,2
98,1,132,NA,NA,NA,1,0.89071,NA,NA,S_Image_132.bmp,2,1,3
99,1,98,NA,NA,NA,2,0.60552,NA,NA,S_Image_98.bmp,1,0,3
100,1,126,NA,NA,NA,2,0.22785,NA,NA,S_Image_126.bmp,1,0,3
101,1,88,NA,NA,NA,1,0.28014,NA,NA,O_Lure_88.bmp,0,1,2
102,1,33,NA,NA,NA,1,1.755,NA,NA,F_Image_33.bmp,1,1,1
103,1,99,NA,NA,NA,2,0.6828,NA,NA,S_Lure_99.bmp,0,1,3
104,1,89,NA,NA,NA,1,0.31139,NA,NA,O_Image_89.bmp,2,1,2
105,1,126,NA,NA,NA,2,0.46497,NA,NA,S_Lure_126.bmp,0,0,3
106,1,144,NA,NA,NA,1,0.36366,NA,NA,S_Image_144.bmp,2,1,3
107,1,139,NA,NA,NA,1,0.60979,NA,NA,S_Image_139.bmp,2,0,3
108,1,79,NA,NA,NA,1,0.50299,NA,NA,O_Image_79.bmp,2,1,2
109,1,17,NA,NA,NA,1,0.39158,NA,NA,F_Lure_17.bmp,0,1,1
110,1,136,NA,NA,NA,1,0.5878,NA,NA,S_Image_136.bmp,1,1,3
111,1,121,NA,NA,NA,2,1.0965,NA,NA,S_Lure_121.bmp,0,1,3
112,1,117,NA,NA,NA,2,0.56234,NA,NA,S_Lure_117.bmp,0,0,3
113,1,119,NA,NA,NA,1,0.90524,NA,NA,S_Image_119.bmp,2,0,3
114,1,2,NA,NA,NA,1,0.50598,NA,NA,F_Image_2.bmp,2,1,1
115,1,129,NA,NA,NA,2,0.47531,NA,NA,S_Lure_129.bmp,0,0,3
116,1,51,NA,NA,NA,1,0.80337,NA,NA,O_Lure_51.bmp,0,1,2
117,1,21,NA,NA,NA,1,1.7289,NA,NA,F_Image_21.bmp,1,1,1
118,1,32,NA,NA,NA,2,0.40109,NA,NA,F_Lure_32.bmp,0,0,1
119,1,32,NA,NA,NA,2,0.3021,NA,NA,F_Image_32.bmp,2,0,1
120,1,63,NA,NA,NA,1,0.41359,NA,NA,O_Image_63.bmp,1,0,2
121,1,46,NA,NA,NA,2,0.40979,NA,NA,F_Lure_46.bmp,0,1,1
122,1,94,NA,NA,NA,1,0.46214,NA,NA,O_Image_94.bmp,1,0,2
123,1,96,NA,NA,NA,1,0.53578,NA,NA,O_Lure_96.bmp,0,1,2
124,1,91,NA,NA,NA,1,0.91903,NA,NA,O_Image_91.bmp,1,0,2
125,1,72,NA,NA,NA,1,0.63104,NA,NA,O_Image_72.bmp,1,0,2
126,1,138,NA,NA,NA,2,0.70632,NA,NA,S_Image_138.bmp,2,1,3
127,1,40,NA,NA,NA,1,0.58741,NA,NA,F_Image_40.bmp,2,1,1
128,1,67,NA,NA,NA,1,0.28923,NA,NA,O_Lure_67.bmp,0,1,2
129,1,37,NA,NA,NA,2,0.45839,NA,NA,F_Image_37.bmp,2,0,1
130,1,71,NA,NA,NA,1,0.34938,NA,NA,O_Lure_71.bmp,0,1,2
131,1,60,NA,NA,NA,1,0.29212,NA,NA,O_Image_60.bmp,1,0,2
132,1,13,NA,NA,NA,2,0.3896,NA,NA,F_Image_13.bmp,2,0,1
133,1,120,NA,NA,NA,2,0.32469,NA,NA,S_Lure_120.bmp,0,0,3
134,1,6,NA,NA,NA,1,1.0919,NA,NA,F_Lure_6.bmp,0,1,1
135,1,119,NA,NA,NA,1,0.42835,NA,NA,S_Lure_119.bmp,0,0,3
136,1,80,NA,NA,NA,1,0.83198,NA,NA,O_Lure_80.bmp,0,1,2
137,1,22,NA,NA,NA,2,0.7165,NA,NA,F_Lure_22.bmp,0,0,1
138,1,8,NA,NA,NA,1,0.060059,NA,NA,F_Lure_8.bmp,0,1,1
139,1,70,NA,NA,NA,1,0.16617,NA,NA,O_Image_70.bmp,1,0,2
140,1,52,NA,NA,NA,1,0.49902,NA,NA,O_Image_52.bmp,1,1,2
141,1,130,NA,NA,NA,2,0.63601,NA,NA,S_Lure_130.bmp,0,1,3
142,1,98,NA,NA,NA,2,0.774,NA,NA,S_Lure_98.bmp,0,0,3
143,1,79,NA,NA,NA,1,0.56394,NA,NA,O_Lure_79.bmp,0,1,2
144,1,22,NA,NA,NA,2,0.5539,NA,NA,F_Image_22.bmp,2,0,1
145,1,36,NA,NA,NA,1,0.64855,NA,NA,F_Lure_36.bmp,0,0,1
146,1,75,NA,NA,NA,1,0.6522,NA,NA,O_Image_75.bmp,2,0,2
147,1,143,NA,NA,NA,2,1.3594,NA,NA,S_Image_143.bmp,1,0,3
148,1,48,NA,NA,NA,1,1.2221,NA,NA,F_Lure_48.bmp,0,0,1
149,1,99,NA,NA,NA,2,0.2977,NA,NA,S_Image_99.bmp,2,1,3
150,1,84,NA,NA,NA,1,0.40959,NA,NA,O_Image_84.bmp,2,0,2
151,1,85,NA,NA,NA,1,0.62172,NA,NA,O_Image_85.bmp,2,1,2
152,1,140,NA,NA,NA,1,0.537,NA,NA,S_Image_140.bmp,1,0,3
153,1,65,NA,NA,NA,1,0.84095,NA,NA,O_Lure_65.bmp,0,1,2
154,1,6,NA,NA,NA,1,0.39587,NA,NA,F_Image_6.bmp,2,1,1
155,1,104,NA,NA,NA,1,0.66598,NA,NA,S_Image_104.bmp,2,1,3
156,1,66,NA,NA,NA,1,1.2044,NA,NA,O_Image_66.bmp,1,1,2
157,1,31,NA,NA,NA,1,0.57756,NA,NA,F_Lure_31.bmp,0,0,1
158,1,56,NA,NA,NA,1,0.35808,NA,NA,O_Lure_56.bmp,0,1,2
159,1,5,NA,NA,NA,2,0.36515,NA,NA,F_Lure_5.bmp,0,1,1
160,1,8,NA,NA,NA,2,2.5861,NA,NA,F_Image_8.bmp,2,1,1
161,1,3,NA,NA,NA,2,0.65665,NA,NA,F_Lure_3.bmp,0,0,1
162,1,24,NA,NA,NA,2,0.52145,NA,NA,F_Image_24.bmp,2,0,1
163,1,74,NA,NA,NA,1,0.34554,NA,NA,O_Image_74.bmp,2,0,2
164,1,13,NA,NA,NA,2,0.48081,NA,NA,F_Lure_13.bmp,0,0,1
165,1,66,NA,NA,NA,1,0.3058,NA,NA,O_Lure_66.bmp,0,1,2
166,1,29,NA,NA,NA,1,0.53877,NA,NA,F_Lure_29.bmp,0,1,1
167,1,131,NA,NA,NA,2,0.51366,NA,NA,S_Lure_131.bmp,0,1,3
168,1,45,NA,NA,NA,2,0.32908,NA,NA,F_Lure_45.bmp,0,0,1
169,1,55,NA,NA,NA,1,0.26438,NA,NA,O_Image_55.bmp,2,0,2
170,1,141,NA,NA,NA,1,0.4986,NA,NA,S_Lure_141.bmp,0,0,3
171,1,90,NA,NA,NA,1,0.14969,NA,NA,O_Lure_90.bmp,0,0,2
172,1,84,NA,NA,NA,1,0.24332,NA,NA,O_Lure_84.bmp,0,0,2
173,1,77,NA,NA,NA,1,0.54183,NA,NA,O_Lure_77.bmp,0,0,2
174,1,73,NA,NA,NA,1,0.50927,NA,NA,O_Image_73.bmp,2,0,2
175,1,82,NA,NA,NA,1,0.39794,NA,NA,O_Lure_82.bmp,0,0,2
176,1,101,NA,NA,NA,2,0.10731,NA,NA,S_Image_101.bmp,2,0,3
177,1,11,NA,NA,NA,1,0.41083,NA,NA,F_Lure_11.bmp,0,0,1
178,1,10,NA,NA,NA,2,0.62405,NA,NA,F_Lure_10.bmp,0,0,1
179,1,52,NA,NA,NA,1,1.0036,NA,NA,O_Lure_52.bmp,0,1,2
180,1,93,NA,NA,NA,1,0.28025,NA,NA,O_Lure_93.bmp,0,0,2
181,1,135,NA,NA,NA,2,2.4817,NA,NA,S_Lure_135.bmp,0,0,3
182,1,109,NA,NA,NA,1,0.61002,NA,NA,S_Image_109.bmp,1,1,3
183,1,38,NA,NA,NA,1,0.54172,NA,NA,F_Image_38.bmp,2,1,1
184,1,91,NA,NA,NA,1,0.49387,NA,NA,O_Lure_91.bmp,0,0,2
185,1,107,NA,NA,NA,1,0.32593,NA,NA,S_Lure_107.bmp,0,1,3
186,1,58,NA,NA,NA,1,0.31774,NA,NA,O_Lure_58.bmp,0,0,2
187,1,124,NA,NA,NA,2,2.189,NA,NA,S_Image_124.bmp,1,0,3
188,1,115,NA,NA,NA,2,0.41853,NA,NA,S_Image_115.bmp,1,1,3
189,1,105,NA,NA,NA,2,0.47939,NA,NA,S_Lure_105.bmp,0,0,3
190,1,110,NA,NA,NA,2,1.5185,NA,NA,S_Lure_110.bmp,0,1,3
191,1,48,NA,NA,NA,1,0.54326,NA,NA,F_Image_48.bmp,1,0,1
192,1,123,NA,NA,NA,1,0.87881,NA,NA,S_Image_123.bmp,1,1,3
193,1,112,NA,NA,NA,1,0.43204,NA,NA,S_Image_112.bmp,2,0,3
194,1,9,NA,NA,NA,1,3.548,NA,NA,F_Lure_9.bmp,0,0,1
195,1,72,NA,NA,NA,1,0.32292,NA,NA,O_Lure_72.bmp,0,0,2
196,1,117,NA,NA,NA,2,0.95424,NA,NA,S_Image_117.bmp,2,0,3
197,1,43,NA,NA,NA,1,1.4734,NA,NA,F_Image_43.bmp,2,0,1
198,1,129,NA,NA,NA,2,0.54634,NA,NA,S_Image_129.bmp,2,0,3
199,1,127,NA,NA,NA,1,0.66476,NA,NA,S_Lure_127.bmp,0,0,3
200,1,88,NA,NA,NA,1,0.3548,NA,NA,O_Image_88.bmp,1,1,2
201,1,30,NA,NA,NA,1,0.69799,NA,NA,F_Lure_30.bmp,0,0,1
202,1,34,NA,NA,NA,1,0.78715,NA,NA,F_Lure_34.bmp,0,1,1
203,1,105,NA,NA,NA,2,3.2166,NA,NA,S_Image_105.bmp,1,0,3
204,1,46,NA,NA,NA,1,0.46937,NA,NA,F_Image_46.bmp,2,1,1
205,1,17,NA,NA,NA,1,1.3427,NA,NA,F_Image_17.bmp,2,1,1
206,1,3,NA,NA,NA,2,0.92605,NA,NA,F_Image_3.bmp,1,0,1
207,1,42,NA,NA,NA,1,0.91739,NA,NA,F_Lure_42.bmp,0,0,1
208,1,25,NA,NA,NA,1,0.3753,NA,NA,F_Lure_25.bmp,0,1,1
209,1,85,NA,NA,NA,1,0.34891,NA,NA,O_Lure_85.bmp,0,1,2
210,1,54,NA,NA,NA,1,0.46822,NA,NA,O_Image_54.bmp,2,0,2
211,1,35,NA,NA,NA,2,1.0383,NA,NA,F_Lure_35.bmp,0,1,1
212,1,108,NA,NA,NA,2,0.70509,NA,NA,S_Lure_108.bmp,0,1,3
213,1,78,NA,NA,NA,1,1.178,NA,NA,O_Lure_78.bmp,0,1,2
214,1,112,NA,NA,NA,1,0.44075,NA,NA,S_Lure_112.bmp,0,0,3
215,1,116,NA,NA,NA,1,0.49141,NA,NA,S_Lure_116.bmp,0,0,3
216,1,144,NA,NA,NA,1,0.10852,NA,NA,S_Lure_144.bmp,0,1,3
217,1,118,NA,NA,NA,1,0.948,NA,NA,S_Lure_118.bmp,0,0,3
218,1,138,NA,NA,NA,1,1.2835,NA,NA,S_Lure_138.bmp,0,1,3
219,1,47,NA,NA,NA,1,1.0852,NA,NA,F_Image_47.bmp,1,0,1
220,1,124,NA,NA,NA,2,3.4074,NA,NA,S_Lure_124.bmp,0,0,3
221,1,140,NA,NA,NA,1,0.63633,NA,NA,S_Lure_140.bmp,0,0,3
222,1,59,NA,NA,NA,1,2.6335,NA,NA,O_Image_59.bmp,2,1,2
223,1,61,NA,NA,NA,1,0.98153,NA,NA,O_Image_61.bmp,2,1,2
224,1,123,NA,NA,NA,1,0.4993,NA,NA,S_Lure_123.bmp,0,1,3
225,1,29,NA,NA,NA,1,0.25228,NA,NA,F_Image_29.bmp,1,1,1
226,1,15,NA,NA,NA,2,0.4238,NA,NA,F_Image_15.bmp,1,1,1
227,1,94,NA,NA,NA,1,0.55703,NA,NA,O_Lure_94.bmp,0,0,2
228,1,100,NA,NA,NA,2,0.64394,NA,NA,S_Lure_100.bmp,0,1,3
229,1,44,NA,NA,NA,2,0.5112,NA,NA,F_Lure_44.bmp,0,1,1
230,1,20,NA,NA,NA,1,0.68202,NA,NA,F_Image_20.bmp,2,0,1
231,1,128,NA,NA,NA,2,0.94095,NA,NA,S_Image_128.bmp,2,0,3
232,1,107,NA,NA,NA,1,0.50952,NA,NA,S_Image_107.bmp,2,1,3
233,1,125,NA,NA,NA,1,0.82471,NA,NA,S_Image_125.bmp,1,1,3
234,1,76,NA,NA,NA,1,0.50159,NA,NA,O_Image_76.bmp,2,0,2
235,1,118,NA,NA,NA,1,0.46281,NA,NA,S_Image_118.bmp,2,0,3
236,1,90,NA,NA,NA,1,0.49862,NA,NA,O_Image_90.bmp,1,0,2
237,1,137,NA,NA,NA,1,1.619,NA,NA,S_Lure_137.bmp,0,1,3
238,1,103,NA,NA,NA,1,0.45567,NA,NA,S_Lure_103.bmp,0,1,3
239,1,92,NA,NA,NA,1,0.62019,NA,NA,O_Lure_92.bmp,0,0,2
240,1,106,NA,NA,NA,1,0.76155,NA,NA,S_Image_106.bmp,2,1,3
241,1,81,NA,NA,NA,1,0.3351,NA,NA,O_Image_81.bmp,2,0,2
242,1,75,NA,NA,NA,1,0.279,NA,NA,O_Lure_75.bmp,0,0,2
243,1,116,NA,NA,NA,1,0.36109,NA,NA,S_Image_116.bmp,1,0,3
244,1,78,NA,NA,NA,1,0.46587,NA,NA,O_Image_78.bmp,1,1,2
245,1,74,NA,NA,NA,1,0.30849,NA,NA,O_Lure_74.bmp,0,0,2
246,1,5,NA,NA,NA,2,0.46915,NA,NA,F_Image_5.bmp,1,1,1
247,1,101,NA,NA,NA,1,1.1757,NA,NA,S_Lure_101.bmp,0,0,3
248,1,87,NA,NA,NA,1,0.33254,NA,NA,O_Lure_87.bmp,0,0,2
249,1,77,NA,NA,NA,1,0.404,NA,NA,O_Image_77.bmp,1,0,2
250,1,137,NA,NA,NA,1,0.626,NA,NA,S_Image_137.bmp,1,1,3
251,1,55,NA,NA,NA,1,0.79125,NA,NA,O_Lure_55.bmp,0,0,2
252,1,7,NA,NA,NA,1,0.62096,NA,NA,F_Image_7.bmp,1,1,1
253,1,95,NA,NA,NA,1,1.0735,NA,NA,O_Image_95.bmp,2,1,2
254,1,1,NA,NA,NA,1,0.41988,NA,NA,F_Lure_1.bmp,0,1,1
255,1,49,NA,NA,NA,1,1.2712,NA,NA,O_Lure_49.bmp,0,0,2
256,1,14,NA,NA,NA,1,0.60905,NA,NA,F_Image_14.bmp,1,1,1
257,1,40,NA,NA,NA,1,0.4779,NA,NA,F_Lure_40.bmp,0,1,1
258,1,135,NA,NA,NA,1,1.5747,NA,NA,S_Image_135.bmp,1,0,3
259,1,80,NA,NA,NA,1,0.89273,NA,NA,O_Image_80.bmp,1,1,2
260,1,143,NA,NA,NA,2,2.8463,NA,NA,S_Lure_143.bmp,0,0,3
261,1,47,NA,NA,NA,1,0.33012,NA,NA,F_Lure_47.bmp,0,0,1
262,1,68,NA,NA,NA,1,0.94601,NA,NA,O_Image_68.bmp,1,0,2
263,1,131,NA,NA,NA,1,1.3055,NA,NA,S_Image_131.bmp,1,1,3
264,1,109,NA,NA,NA,1,0.48244,NA,NA,S_Lure_109.bmp,0,1,3
265,1,21,NA,NA,NA,1,0.6754,NA,NA,F_Lure_21.bmp,0,1,1
266,1,111,NA,NA,NA,2,0.42139,NA,NA,S_Image_111.bmp,1,0,3
267,1,41,NA,NA,NA,2,0.49079,NA,NA,F_Image_41.bmp,1,1,1
268,1,136,NA,NA,NA,1,0.6049,NA,NA,S_Lure_136.bmp,0,1,3
269,1,4,NA,NA,NA,1,1.0821,NA,NA,F_Image_4.bmp,2,1,1
270,1,97,NA,NA,NA,1,2.0109,NA,NA,S_Image_97.bmp,2,1,3
271,1,95,NA,NA,NA,1,0.3993,NA,NA,O_Lure_95.bmp,0,1,2
272,1,62,NA,NA,NA,1,0.77146,NA,NA,O_Image_62.bmp,2,1,2
273,1,39,NA,NA,NA,2,0.55373,NA,NA,F_Image_39.bmp,2,1,1
274,1,36,NA,NA,NA,1,0.4988,NA,NA,F_Image_36.bmp,2,0,1
275,1,59,NA,NA,NA,1,0.43578,NA,NA,O_Lure_59.bmp,0,1,2
276,1,125,NA,NA,NA,1,0.79177,NA,NA,S_Lure_125.bmp,0,1,3
277,1,12,NA,NA,NA,2,0.38954,NA,NA,F_Lure_12.bmp,0,0,1
278,1,122,NA,NA,NA,2,1.8118,NA,NA,S_Lure_122.bmp,0,1,3
279,1,23,NA,NA,NA,1,0.14588,NA,NA,F_Image_23.bmp,2,1,1
280,1,19,NA,NA,NA,2,0.6341,NA,NA,F_Lure_19.bmp,0,0,1
281,1,34,NA,NA,NA,1,0.52553,NA,NA,F_Image_34.bmp,2,1,1
282,1,73,NA,NA,NA,1,1.1177,NA,NA,O_Lure_73.bmp,0,0,2
283,1,71,NA,NA,NA,1,0.46894,NA,NA,O_Image_71.bmp,1,1,2
284,1,27,NA,NA,NA,1,1.9676,NA,NA,F_Lure_27.bmp,0,1,1
285,1,2,NA,NA,NA,1,0.67037,NA,NA,F_Lure_2.bmp,0,1,1
286,1,134,NA,NA,NA,1,2.3352,NA,NA,S_Lure_134.bmp,0,0,3
287,1,127,NA,NA,NA,1,0.57423,NA,NA,S_Image_127.bmp,1,0,3
288,1,30,NA,NA,NA,2,0.15677,NA,NA,F_Image_30.bmp,1,0,1
289,2,47,tear,1,1,0,3.5,0,NA,F_Image_47.bmp-F_Lure_47.bmp,1,0,1
290,2,111,cone,1,1,0,3.5,0,NA,S_Image_111.bmp-S_Lure_111.bmp,1,0,3
291,2,50,army,1,1,0,3.4999,0,NA,O_Image_50.bmp-O_Lure_50.bmp,1,1,2
292,2,125,spike,1,1,0,3.4996,0,NA,S_Image_125.bmp-S_Lure_125.bmp,1,1,3
293,2,87,vegetable,1,1,1,0.86636,1,NA,O_Image_87.bmp-O_Lure_87.bmp,1,0,2
294,2,98,harem,1,1,1,1.6931,1,NA,S_Image_98.bmp-S_Lure_98.bmp,1,0,3
295,2,67,sand,1,2,1,0.75079,0,NA,O_Image_67.bmp-O_Lure_67.bmp,1,1,2
296,2,110,money,1,1,2,2.3818,0,NA,S_Image_110.bmp-S_Lure_110.bmp,1,1,3
297,2,27,wound,1,2,2,1.956,1,NA,F_Image_27.bmp-F_Lure_27.bmp,1,1,1
298,2,11,seed,1,2,2,1.1872,1,NA,F_Image_11.bmp-F_Lure_11.bmp,1,0,1
299,2,80,triangle,1,1,1,0.92947,1,NA,O_Image_80.bmp-O_Lure_80.bmp,1,1,2
300,2,51,marble,1,2,2,0.84968,1,NA,O_Image_51.bmp-O_Lure_51.bmp,1,1,2
301,2,49,asphalt,1,1,1,1.1735,1,NA,O_Image_49.bmp-O_Lure_49.bmp,1,0,2
302,2,143,honeymoon,1,1,1,1.0202,1,NA,S_Image_143.bmp-S_Lure_143.bmp,1,0,3
303,2,1,witch,1,2,2,0.97653,1,NA,F_Image_1.bmp-F_Lure_1.bmp,1,1,1
304,2,48,black,1,1,1,0.71053,1,NA,F_Image_48.bmp-F_Lure_48.bmp,1,0,1
305,2,91,galaxy,1,2,2,0.7835,1,NA,O_Image_91.bmp-O_Lure_91.bmp,1,0,2
306,2,41,drizzle,1,1,2,0.72528,0,NA,F_Image_41.bmp-F_Lure_41.bmp,1,1,1
307,2,25,laundry,1,2,2,1.0627,1,NA,F_Image_25.bmp-F_Lure_25.bmp,1,1,1
308,2,140,fire,1,1,1,1.1851,1,NA,S_Image_140.bmp-S_Lure_140.bmp,1,0,3
309,2,88,board,1,2,2,0.89485,1,NA,O_Image_88.bmp-O_Lure_88.bmp,1,1,2
310,2,94,wreck,1,1,1,0.96057,1,NA,O_Image_94.bmp-O_Lure_94.bmp,1,0,2
311,2,14,tourist,1,2,2,0.89506,1,NA,F_Image_14.bmp-F_Lure_14.bmp,1,1,1
312,2,30,scar,1,1,1,0.82462,1,NA,F_Image_30.bmp-F_Lure_30.bmp,1,0,1
313,3,98,harem,1,2,2,1.2489,1,NA,S_Image_98.bmp-S_Lure_98.bmp,1,0,3
314,3,87,vegetable,1,1,1,0.58838,1,NA,O_Image_87.bmp-O_Lure_87.bmp,1,0,2
315,3,125,spike,1,1,1,0.87415,1,NA,S_Image_125.bmp-S_Lure_125.bmp,1,1,3
316,3,110,money,1,2,2,0.97307,1,NA,S_Image_110.bmp-S_Lure_110.bmp,1,1,3
317,3,30,scar,1,2,2,0.71583,1,NA,F_Image_30.bmp-F_Lure_30.bmp,1,0,1
318,3,80,triangle,1,1,1,0.82863,1,NA,O_Image_80.bmp-O_Lure_80.bmp,1,1,2
319,3,41,drizzle,1,1,1,0.80922,1,NA,F_Image_41.bmp-F_Lure_41.bmp,1,1,1
320,3,111,cone,1,2,2,0.82966,1,NA,S_Image_111.bmp-S_Lure_111.bmp,1,0,3
321,3,49,asphalt,1,1,1,0.80979,1,NA,O_Image_49.bmp-O_Lure_49.bmp,1,0,2
322,3,67,sand,1,1,2,0.5744,0,NA,O_Image_67.bmp-O_Lure_67.bmp,1,1,2
323,3,14,tourist,1,2,2,0.62892,1,NA,F_Image_14.bmp-F_Lure_14.bmp,1,1,1
324,3,27,wound,1,2,2,1.273,1,NA,F_Image_27.bmp-F_Lure_27.bmp,1,1,1
325,3,88,board,1,1,2,0.5961,0,NA,O_Image_88.bmp-O_Lure_88.bmp,1,1,2
326,3,11,seed,1,1,1,0.72115,1,NA,F_Image_11.bmp-F_Lure_11.bmp,1,0,1
327,3,50,army,1,1,1,0.72188,1,NA,O_Image_50.bmp-O_Lure_50.bmp,1,1,2
328,3,25,laundry,1,2,2,0.62662,1,NA,F_Image_25.bmp-F_Lure_25.bmp,1,1,1
329,3,51,marble,1,2,2,0.51102,1,NA,O_Image_51.bmp-O_Lure_51.bmp,1,1,2
330,3,48,black,1,1,1,0.83982,1,NA,F_Image_48.bmp-F_Lure_48.bmp,1,0,1
331,3,143,honeymoon,1,1,1,0.69156,1,NA,S_Image_143.bmp-S_Lure_143.bmp,1,0,3
332,3,1,witch,1,1,1,0.96586,1,NA,F_Image_1.bmp-F_Lure_1.bmp,1,1,1
333,3,140,fire,1,2,2,0.65246,1,NA,S_Image_140.bmp-S_Lure_140.bmp,1,0,3
334,3,91,galaxy,1,1,1,0.50388,1,NA,O_Image_91.bmp-O_Lure_91.bmp,1,0,2
335,3,94,wreck,1,2,2,0.96943,1,NA,O_Image_94.bmp-O_Lure_94.bmp,1,0,2
336,3,47,tear,1,1,1,0.70406,1,NA,F_Image_47.bmp-F_Lure_47.bmp,1,0,1
337,2,116,sunshine,2,2,1,0.9299,0,NA,S_Image_116.bmp-S_Lure_116.bmp,1,0,3
338,2,16,cloud,2,2,2,0.82552,1,NA,F_Image_16.bmp-F_Lure_16.bmp,1,1,1
339,2,21,poison,2,1,1,0.83065,1,NA,F_Image_21.bmp-F_Lure_21.bmp,1,1,1
340,2,131,fuel,2,1,1,0.81798,1,NA,S_Image_131.bmp-S_Lure_131.bmp,1,1,3
341,2,141,signal,2,1,2,0.79872,0,NA,S_Image_141.bmp-S_Lure_141.bmp,1,0,3
342,2,77,quake,2,1,1,0.69999,1,NA,O_Image_77.bmp-O_Lure_77.bmp,1,0,2
343,2,29,kiss,2,1,1,1.4216,1,NA,F_Image_29.bmp-F_Lure_29.bmp,1,1,1
344,2,130,stripe,2,1,1,0.77033,1,NA,S_Image_130.bmp-S_Lure_130.bmp,1,1,3
345,2,124,slope,2,1,1,0.78504,1,NA,S_Image_124.bmp-S_Lure_124.bmp,1,0,3
346,2,3,lever,2,2,1,1.7511,0,NA,F_Image_3.bmp-F_Lure_3.bmp,1,0,1
347,2,86,tube,2,1,1,0.85482,1,NA,O_Image_86.bmp-O_Lure_86.bmp,1,1,2
348,2,137,orchestra,2,2,2,0.88205,1,NA,S_Image_137.bmp-S_Lure_137.bmp,1,1,3
349,2,109,alcohol,2,2,2,0.70806,1,NA,S_Image_109.bmp-S_Lure_109.bmp,1,1,3
350,2,7,measles,2,2,2,0.70941,1,NA,F_Image_7.bmp-F_Lure_7.bmp,1,1,1
351,2,114,arrow,2,2,2,1.0942,1,NA,S_Image_114.bmp-S_Lure_114.bmp,1,0,3
352,2,71,animal,2,1,1,0.72004,1,NA,O_Image_71.bmp-O_Lure_71.bmp,1,1,2
353,2,60,tail,2,2,2,0.88032,1,NA,O_Image_60.bmp-O_Lure_60.bmp,1,0,2
354,2,44,wool,2,1,1,1.1387,1,NA,F_Image_44.bmp-F_Lure_44.bmp,1,1,1
355,2,126,magnet,2,2,1,1.0026,0,NA,S_Image_126.bmp-S_Lure_126.bmp,1,0,3
356,2,108,crumb,2,2,2,1.1287,1,NA,S_Image_108.bmp-S_Lure_108.bmp,1,1,3
357,2,120,giant,2,1,1,0.81616,1,NA,S_Image_120.bmp-S_Lure_120.bmp,1,0,3
358,2,35,hostage,2,2,2,0.8769,1,NA,F_Image_35.bmp-F_Lure_35.bmp,1,1,1
359,2,53,rock,2,2,2,1.087,1,NA,O_Image_53.bmp-O_Lure_53.bmp,1,0,2
360,2,12,bubble,2,1,1,1.129,1,NA,F_Image_12.bmp-F_Lure_12.bmp,1,0,1
361,3,16,cloud,2,1,2,1.1164,0,NA,F_Image_16.bmp-F_Lure_16.bmp,1,1,1
362,3,7,measles,2,1,1,0.82148,1,NA,F_Image_7.bmp-F_Lure_7.bmp,1,1,1
363,3,124,slope,2,2,1,1.0504,0,NA,S_Image_124.bmp-S_Lure_124.bmp,1,0,3
364,3,53,rock,2,1,1,0.9254,1,NA,O_Image_53.bmp-O_Lure_53.bmp,1,0,2
365,3,137,orchestra,2,1,1,0.80571,1,NA,S_Image_137.bmp-S_Lure_137.bmp,1,1,3
366,3,126,magnet,2,2,1,0.97905,0,NA,S_Image_126.bmp-S_Lure_126.bmp,1,0,3
367,3,71,animal,2,2,2,0.73724,1,NA,O_Image_71.bmp-O_Lure_71.bmp,1,1,2
368,3,60,tail,2,1,1,0.77724,1,NA,O_Image_60.bmp-O_Lure_60.bmp,1,0,2
369,3,86,tube,2,2,2,0.73546,1,NA,O_Image_86.bmp-O_Lure_86.bmp,1,1,2
370,3,35,hostage,2,1,1,0.60775,1,NA,F_Image_35.bmp-F_Lure_35.bmp,1,1,1
371,3,29,kiss,2,2,1,0.74908,0,NA,F_Image_29.bmp-F_Lure_29.bmp,1,1,1
372,3,77,quake,2,1,1,0.66871,1,NA,O_Image_77.bmp-O_Lure_77.bmp,1,0,2
373,3,141,signal,2,1,1,0.79124,1,NA,S_Image_141.bmp-S_Lure_141.bmp,1,0,3
374,3,12,bubble,2,1,1,0.98108,1,NA,F_Image_12.bmp-F_Lure_12.bmp,1,0,1
375,3,114,arrow,2,1,1,0.85901,1,NA,S_Image_114.bmp-S_Lure_114.bmp,1,0,3
376,3,120,giant,2,2,2,0.67805,1,NA,S_Image_120.bmp-S_Lure_120.bmp,1,0,3
377,3,44,wool,2,2,2,1.0886,1,NA,F_Image_44.bmp-F_Lure_44.bmp,1,1,1
378,3,108,crumb,2,2,1,1.2827,0,NA,S_Image_108.bmp-S_Lure_108.bmp,1,1,3
379,3,3,lever,2,1,1,1.2442,1,NA,F_Image_3.bmp-F_Lure_3.bmp,1,0,1
380,3,109,alcohol,2,2,2,0.75153,1,NA,S_Image_109.bmp-S_Lure_109.bmp,1,1,3
381,3,131,fuel,2,2,2,0.9041,1,NA,S_Image_131.bmp-S_Lure_131.bmp,1,1,3
382,3,21,poison,2,1,1,0.6725,1,NA,F_Image_21.bmp-F_Lure_21.bmp,1,1,1
383,3,116,sunshine,2,2,1,1.0275,0,NA,S_Image_116.bmp-S_Lure_116.bmp,1,0,3
384,3,130,stripe,2,2,2,0.6793,1,NA,S_Image_130.bmp-S_Lure_130.bmp,1,1,3
385,2,136,alien,3,2,2,0.82549,1,NA,S_Image_136.bmp-S_Lure_136.bmp,1,1,3
386,2,68,shell,3,1,1,0.49399,1,NA,O_Image_68.bmp-O_Lure_68.bmp,1,0,2
387,2,90,snow,3,1,2,0.70319,0,NA,O_Image_90.bmp-O_Lure_90.bmp,1,0,2
388,2,135,flood,3,1,1,0.76054,1,NA,S_Image_135.bmp-S_Lure_135.bmp,1,0,3
389,2,83,water,3,2,2,1.0235,1,NA,O_Image_83.bmp-O_Lure_83.bmp,1,1,2
390,2,15,yellow,3,2,2,1.068,1,NA,F_Image_15.bmp-F_Lure_15.bmp,1,1,1
391,2,70,corpse,3,1,1,1.015,1,NA,O_Image_70.bmp-O_Lure_70.bmp,1,0,2
392,2,105,corner,3,2,2,0.69955,1,NA,S_Image_105.bmp-S_Lure_105.bmp,1,0,3
393,2,122,steam,3,2,2,0.86097,1,NA,S_Image_122.bmp-S_Lure_122.bmp,1,1,3
394,2,66,paper,3,1,1,0.67197,1,NA,O_Image_66.bmp-O_Lure_66.bmp,1,1,2
395,2,58,shadow,3,2,2,0.86691,1,NA,O_Image_58.bmp-O_Lure_58.bmp,1,0,2
396,2,115,angel,3,1,2,1.0772,0,NA,S_Image_115.bmp-S_Lure_115.bmp,1,1,3
397,2,72,antique,3,2,2,0.90333,1,NA,O_Image_72.bmp-O_Lure_72.bmp,1,0,2
398,2,123,costume,3,1,1,1.1132,1,NA,S_Image_123.bmp-S_Lure_123.bmp,1,1,3
399,2,28,spray,3,1,1,0.72961,1,NA,F_Image_28.bmp-F_Lure_28.bmp,1,0,1
400,2,45,menu,3,2,2,1.1536,1,NA,F_Image_45.bmp-F_Lure_45.bmp,1,0,1
401,2,5,hurricane,3,1,1,0.75334,1,NA,F_Image_5.bmp-F_Lure_5.bmp,1,1,1
402,2,127,arch,3,2,2,1.1688,1,NA,S_Image_127.bmp-S_Lure_127.bmp,1,0,3
403,2,63,breakfast,3,2,2,0.9192,1,NA,O_Image_63.bmp-O_Lure_63.bmp,1,0,2
404,2,52,sweat,3,1,2,0.84032,0,NA,O_Image_52.bmp-O_Lure_52.bmp,1,1,2
405,2,10,ghost,3,1,1,0.86029,1,NA,F_Image_10.bmp-F_Lure_10.bmp,1,0,1
406,2,33,attack,3,1,1,0.863,1,NA,F_Image_33.bmp-F_Lure_33.bmp,1,1,1
407,2,78,rust,3,2,2,0.74558,1,NA,O_Image_78.bmp-O_Lure_78.bmp,1,1,2
408,2,19,stem,3,2,2,0.78513,1,NA,F_Image_19.bmp-F_Lure_19.bmp,1,0,1
409,3,78,rust,3,2,2,0.66629,1,NA,O_Image_78.bmp-O_Lure_78.bmp,1,1,2
410,3,58,shadow,3,2,2,0.69321,1,NA,O_Image_58.bmp-O_Lure_58.bmp,1,0,2
411,3,5,hurricane,3,1,1,0.81474,1,NA,F_Image_5.bmp-F_Lure_5.bmp,1,1,1
412,3,136,alien,3,2,2,0.84342,1,NA,S_Image_136.bmp-S_Lure_136.bmp,1,1,3
413,3,127,arch,3,1,1,0.95075,1,NA,S_Image_127.bmp-S_Lure_127.bmp,1,0,3
414,3,90,snow,3,1,1,0.93415,1,NA,O_Image_90.bmp-O_Lure_90.bmp,1,0,2
415,3,28,spray,3,1,1,0.56636,1,NA,F_Image_28.bmp-F_Lure_28.bmp,1,0,1
416,3,135,flood,3,2,2,0.83746,1,NA,S_Image_135.bmp-S_Lure_135.bmp,1,0,3
417,3,33,attack,3,1,1,1.3937,1,NA,F_Image_33.bmp-F_Lure_33.bmp,1,1,1
418,3,83,water,3,1,1,0.80672,1,NA,O_Image_83.bmp-O_Lure_83.bmp,1,1,2
419,3,15,yellow,3,1,1,0.84426,1,NA,F_Image_15.bmp-F_Lure_15.bmp,1,1,1
420,3,19,stem,3,1,1,0.75176,1,NA,F_Image_19.bmp-F_Lure_19.bmp,1,0,1
421,3,123,costume,3,1,1,0.84725,1,NA,S_Image_123.bmp-S_Lure_123.bmp,1,1,3
422,3,66,paper,3,1,1,0.65033,1,NA,O_Image_66.bmp-O_Lure_66.bmp,1,1,2
423,3,63,breakfast,3,2,2,0.81368,1,NA,O_Image_63.bmp-O_Lure_63.bmp,1,0,2
424,3,68,shell,3,1,1,0.99473,1,NA,O_Image_68.bmp-O_Lure_68.bmp,1,0,2
425,3,72,antique,3,1,1,0.70417,1,NA,O_Image_72.bmp-O_Lure_72.bmp,1,0,2
426,3,70,corpse,3,1,1,0.66557,1,NA,O_Image_70.bmp-O_Lure_70.bmp,1,0,2
427,3,52,sweat,3,2,1,0.79624,0,NA,O_Image_52.bmp-O_Lure_52.bmp,1,1,2
428,3,105,corner,3,1,1,0.77757,1,NA,S_Image_105.bmp-S_Lure_105.bmp,1,0,3
429,3,10,ghost,3,1,1,0.62362,1,NA,F_Image_10.bmp-F_Lure_10.bmp,1,0,1
430,3,45,menu,3,2,2,0.93304,1,NA,F_Image_45.bmp-F_Lure_45.bmp,1,0,1
431,3,115,angel,3,1,1,0.86858,1,NA,S_Image_115.bmp-S_Lure_115.bmp,1,1,3
432,3,122,steam,3,1,1,0.87918,1,NA,S_Image_122.bmp-S_Lure_122.bmp,1,1,3
433,4,93,signal,1,2,2,2.0014,1,NA,O_Image_93.bmp-O_Lure_93.bmp,2,0,2
434,4,23,alien,1,2,2,0.74274,1,NA,F_Image_23.bmp-F_Lure_23.bmp,2,1,1
435,4,39,triangle,1,2,2,0.73431,1,NA,F_Image_39.bmp-F_Lure_39.bmp,2,1,1
436,4,38,rust,1,2,2,0.78236,1,NA,F_Image_38.bmp-F_Lure_38.bmp,2,1,1
437,4,121,marble,1,2,2,0.68486,1,NA,S_Image_121.bmp-S_Lure_121.bmp,2,1,3
438,4,128,bubble,1,1,1,0.7029,1,NA,S_Image_128.bmp-S_Lure_128.bmp,2,0,3
439,4,24,wreck,1,2,2,0.63197,1,NA,F_Image_24.bmp-F_Lure_24.bmp,2,0,1
440,4,17,army,1,2,1,1.0047,0,NA,F_Image_17.bmp-F_Lure_17.bmp,2,1,1
441,4,32,magnet,1,1,1,1.3537,1,NA,F_Image_32.bmp-F_Lure_32.bmp,2,0,1
442,4,55,flood,1,2,2,0.84109,1,NA,O_Image_55.bmp-O_Lure_55.bmp,2,0,2
443,4,79,kiss,1,2,2,0.81321,1,NA,O_Image_79.bmp-O_Lure_79.bmp,2,1,2
444,4,20,snow,1,2,2,0.8098,1,NA,F_Image_20.bmp-F_Lure_20.bmp,2,0,1
445,4,31,arrow,1,1,1,0.69449,1,NA,F_Image_31.bmp-F_Lure_31.bmp,2,0,1
446,4,84,arch,1,2,2,0.87236,1,NA,O_Image_84.bmp-O_Lure_84.bmp,2,0,2
447,4,138,attack,1,2,2,0.73885,1,NA,S_Image_138.bmp-S_Lure_138.bmp,2,1,3
448,4,6,steam,1,2,2,0.86675,1,NA,F_Image_6.bmp-F_Lure_6.bmp,2,1,1
449,4,104,paper,1,2,2,0.74217,1,NA,S_Image_104.bmp-S_Lure_104.bmp,2,1,3
450,4,129,shadow,1,2,2,0.77284,1,NA,S_Image_129.bmp-S_Lure_129.bmp,2,0,3
451,4,134,vegetable,1,1,2,0.89969,0,NA,S_Image_134.bmp-S_Lure_134.bmp,2,0,3
452,4,118,stem,1,2,2,1.3172,1,NA,S_Image_118.bmp-S_Lure_118.bmp,2,0,3
453,4,101,tail,1,1,1,1.3261,1,NA,S_Image_101.bmp-S_Lure_101.bmp,2,0,3
454,4,43,slope,1,1,1,0.75004,1,NA,F_Image_43.bmp-F_Lure_43.bmp,2,0,1
455,4,57,measles,1,2,2,1.3096,1,NA,O_Image_57.bmp-O_Lure_57.bmp,2,1,2
456,4,75,fire,1,2,2,1.3342,1,NA,O_Image_75.bmp-O_Lure_75.bmp,2,0,2
457,4,102,hostage,2,1,1,1.1509,1,NA,S_Image_102.bmp-S_Lure_102.bmp,2,1,3
458,4,46,sweat,2,1,1,0.77405,1,NA,F_Image_46.bmp-F_Lure_46.bmp,2,1,1
459,4,99,drizzle,2,1,1,1.0925,1,NA,S_Image_99.bmp-S_Lure_99.bmp,2,1,3
460,4,8,angel,2,2,2,0.72622,1,NA,F_Image_8.bmp-F_Lure_8.bmp,2,1,1
461,4,56,money,2,2,2,0.53454,1,NA,O_Image_56.bmp-O_Lure_56.bmp,2,1,2
462,4,92,lever,2,1,1,0.75826,1,NA,O_Image_92.bmp-O_Lure_92.bmp,2,0,2
463,4,97,tube,2,2,2,0.99759,1,NA,S_Image_97.bmp-S_Lure_97.bmp,2,1,3
464,4,144,hurricane,2,2,2,1.139,1,NA,S_Image_144.bmp-S_Lure_144.bmp,2,1,3
465,4,37,rock,2,1,1,1.2911,1,NA,F_Image_37.bmp-F_Lure_37.bmp,2,0,1
466,4,81,corner,2,1,1,0.85357,1,NA,O_Image_81.bmp-O_Lure_81.bmp,2,0,2
467,4,62,wool,2,1,1,0.88061,1,NA,O_Image_62.bmp-O_Lure_62.bmp,2,1,2
468,4,107,water,2,2,2,1.1948,1,NA,S_Image_107.bmp-S_Lure_107.bmp,2,1,3
469,4,96,crumb,2,1,1,0.70446,1,NA,O_Image_96.bmp-O_Lure_96.bmp,2,1,2
470,4,2,sand,2,2,2,1.034,1,NA,F_Image_2.bmp-F_Lure_2.bmp,2,1,1
471,4,59,alcohol,2,1,2,0.94967,0,NA,O_Image_59.bmp-O_Lure_59.bmp,2,1,2
472,4,119,black,2,1,1,0.99726,1,NA,S_Image_119.bmp-S_Lure_119.bmp,2,0,3
473,4,4,costume,2,2,2,1.5949,1,NA,F_Image_4.bmp-F_Lure_4.bmp,2,1,1
474,4,112,galaxy,2,1,2,0.74394,0,NA,S_Image_112.bmp-S_Lure_112.bmp,2,0,3
475,4,85,poison,2,2,2,0.73579,1,NA,O_Image_85.bmp-O_Lure_85.bmp,2,1,2
476,4,64,stripe,2,1,1,0.81597,1,NA,O_Image_64.bmp-O_Lure_64.bmp,2,1,2
477,4,54,sunshine,2,1,2,1.3245,0,NA,O_Image_54.bmp-O_Lure_54.bmp,2,0,2
478,4,82,spray,2,1,1,0.87732,1,NA,O_Image_82.bmp-O_Lure_82.bmp,2,0,2
479,4,103,cloud,2,2,2,0.8872,1,NA,S_Image_103.bmp-S_Lure_103.bmp,2,1,3
480,4,76,giant,2,1,1,1.0975,1,NA,O_Image_76.bmp-O_Lure_76.bmp,2,0,2
481,4,36,antique,3,2,2,1.0428,1,NA,F_Image_36.bmp-F_Lure_36.bmp,2,0,1
482,4,113,asphalt,3,1,1,1.0306,1,NA,S_Image_113.bmp-S_Lure_113.bmp,2,0,3
483,4,100,tourist,3,1,1,1.059,1,NA,S_Image_100.bmp-S_Lure_100.bmp,2,1,3
484,4,34,animal,3,2,2,0.71726,1,NA,F_Image_34.bmp-F_Lure_34.bmp,2,1,1
485,4,18,orchestra,3,1,1,1.022,1,NA,F_Image_18.bmp-F_Lure_18.bmp,2,1,1
486,4,106,board,3,2,2,0.99476,1,NA,S_Image_106.bmp-S_Lure_106.bmp,2,1,3
487,4,74,ghost,3,2,1,0.64843,0,NA,O_Image_74.bmp-O_Lure_74.bmp,2,0,2
488,4,95,wound,3,1,1,0.87575,1,NA,O_Image_95.bmp-O_Lure_95.bmp,2,1,2
489,4,117,seed,3,2,2,0.88576,1,NA,S_Image_117.bmp-S_Lure_117.bmp,2,0,3
490,4,73,scar,3,1,1,1.2483,1,NA,O_Image_73.bmp-O_Lure_73.bmp,2,0,2
491,4,22,corpse,3,1,1,0.86729,1,NA,F_Image_22.bmp-F_Lure_22.bmp,2,0,1
492,4,89,spike,3,2,2,1.1098,1,NA,O_Image_89.bmp-O_Lure_89.bmp,2,1,2
493,4,26,honeymoon,3,2,2,0.87888,1,NA,F_Image_26.bmp-F_Lure_26.bmp,2,0,1
494,4,61,laundry,3,2,2,1.4006,1,NA,O_Image_61.bmp-O_Lure_61.bmp,2,1,2
495,4,9,quake,3,2,2,0.87833,1,NA,F_Image_9.bmp-F_Lure_9.bmp,2,0,1
496,4,40,fuel,3,2,2,1.5123,1,NA,F_Image_40.bmp-F_Lure_40.bmp,2,1,1
497,4,142,menu,3,1,1,0.96918,1,NA,S_Image_142.bmp-S_Lure_142.bmp,2,0,3
498,4,139,breakfast,3,1,2,1.3999,0,NA,S_Image_139.bmp-S_Lure_139.bmp,2,0,3
499,4,65,yellow,3,2,2,1.3651,1,NA,O_Image_65.bmp-O_Lure_65.bmp,2,1,2
500,4,13,cone,3,2,2,1.1563,1,NA,F_Image_13.bmp-F_Lure_13.bmp,2,0,1
501,4,69,harem,3,2,2,1.1956,1,NA,O_Image_69.bmp-O_Lure_69.bmp,2,0,2
502,4,132,witch,3,2,2,1.0407,1,NA,S_Image_132.bmp-S_Lure_132.bmp,2,1,3
503,4,42,shell,3,2,2,0.86107,1,NA,F_Image_42.bmp-F_Lure_42.bmp,2,0,1
504,4,133,tear,3,1,1,1.3597,1,NA,S_Image_133.bmp-S_Lure_133.bmp,2,0,3
