Trial,Cond,ImageNum,Cue,Block,Correct,Response,RT,Accuracy,CueRep,fName,ImageType,Baseline,Category
1,5,7.9,triangle,NA,1,1,2.3194,1,1,F_Image_7.bmp-O_Lure_90.bmp,NA,0,1.2
2,5,2.3,signal,NA,1,1,0.59832,1,1,F_Image_1.bmp-S_Lure_130.bmp,NA,0,1.3
3,5,84.46,steam,NA,2,1,0.88243,0,1,O_Image_84.bmp-F_Lure_46.bmp,NA,0,2.1
4,5,132.92,magnet,NA,3,3,0.9553,1,1,S_Image_132.bmp-O_Lure_92.bmp,NA,0,3.2
5,5,119.47,cloud,NA,3,2,0.95289,0,1,S_Image_119.bmp-F_Lure_47.bmp,NA,0,3.1
6,5,99.45,breakfast,NA,3,3,1.6174,1,1,S_Image_99.bmp-F_Lure_45.bmp,NA,0,3.1
7,5,2.3,signal,NA,1,1,0.40104,1,2,F_Image_1.bmp-S_Lure_130.bmp,NA,0,1.3
8,5,133.38,honeymoon,NA,3,3,0.27596,1,1,S_Image_133.bmp-F_Lure_38.bmp,NA,0,3.1
9,5,52.09,bubble,NA,2,2,0.28688,1,1,O_Image_51.bmp-S_Lure_109.bmp,NA,0,2.3
10,5,80.12,menu,NA,2,3,0.26856,0,1,O_Image_79.bmp-S_Lure_112.bmp,NA,0,2.3
11,5,31.95,attack,NA,1,1,0.59303,1,1,F_Image_31.bmp-O_Lure_95.bmp,NA,0,1.2
12,5,22.69,sunshine,NA,1,1,0.25897,1,1,F_Image_22.bmp-O_Lure_69.bmp,NA,0,1.2
13,5,57.12,army,NA,2,2,0.29307,1,1,O_Image_57.bmp-F_Lure_12.bmp,NA,0,2.1
14,5,25.15,hostage,NA,1,3,0.31275,0,1,F_Image_24.bmp-S_Lure_115.bmp,NA,0,1.3
15,5,28.62,seed,NA,1,1,0.00033041,1,1,F_Image_28.bmp-O_Lure_62.bmp,NA,0,1.2
16,5,62.2,rust,NA,2,2,0.23288,1,1,O_Image_61.bmp-S_Lure_120.bmp,NA,0,2.3
17,5,103.63,paper,NA,3,3,0.21644,1,1,S_Image_103.bmp-O_Lure_63.bmp,NA,0,3.2
18,5,123.02,money,NA,3,3,0.32147,1,1,S_Image_123.bmp-F_Lure_2.bmp,NA,0,3.1
19,5,111.6,kiss,NA,3,3,0.37066,1,1,S_Image_111.bmp-O_Lure_60.bmp,NA,0,3.2
20,5,14.53,lever,NA,1,1,0.21406,1,1,F_Image_14.bmp-O_Lure_53.bmp,NA,0,1.2
21,5,117.54,spike,NA,3,3,0.28072,1,1,S_Image_117.bmp-O_Lure_54.bmp,NA,0,3.2
22,5,16.68,poison,NA,1,1,0.59461,1,1,F_Image_16.bmp-O_Lure_68.bmp,NA,0,1.2
23,5,31.95,attack,NA,1,1,0.26915,1,2,F_Image_31.bmp-O_Lure_95.bmp,NA,0,1.2
24,5,22.69,sunshine,NA,1,1,0.26321,1,2,F_Image_22.bmp-O_Lure_69.bmp,NA,0,1.2
25,5,103.63,paper,NA,3,3,0.32279,1,2,S_Image_103.bmp-O_Lure_63.bmp,NA,0,3.2
26,5,116.19,wound,NA,3,2,0.34605,0,1,S_Image_116.bmp-F_Lure_19.bmp,NA,0,3.1
27,5,14.53,lever,NA,1,1,0.23797,1,2,F_Image_14.bmp-O_Lure_53.bmp,NA,0,1.2
28,5,97.32,yellow,NA,3,3,0.28794,1,1,S_Image_97.bmp-F_Lure_32.bmp,NA,0,3.1
29,5,84.27,corner,NA,2,3,0.33996,0,1,O_Image_83.bmp-S_Lure_127.bmp,NA,0,2.3
30,5,12.24,fire,NA,1,1,0.31671,1,1,F_Image_11.bmp-S_Lure_124.bmp,NA,0,1.3
31,5,78.13,ghost,NA,2,4,0.33731,0,1,O_Image_78.bmp-F_Lure_13.bmp,NA,0,2.1
32,5,66.35,cone,NA,2,2,0.35503,1,1,O_Image_65.bmp-S_Lure_135.bmp,NA,0,2.3
33,5,25.15,hostage,NA,1,1,0.47132,1,2,F_Image_24.bmp-S_Lure_115.bmp,NA,0,1.3
34,5,74.42,spray,NA,2,2,0.28712,1,1,O_Image_74.bmp-F_Lure_42.bmp,NA,0,2.1
35,5,9.98,scar,NA,1,1,0.33783,1,1,F_Image_9.bmp-S_Lure_98.bmp,NA,0,1.3
36,5,84.27,corner,NA,2,2,0.29989,1,2,O_Image_83.bmp-S_Lure_127.bmp,NA,0,2.3
37,5,116.19,wound,NA,3,3,0.22124,1,2,S_Image_116.bmp-F_Lure_19.bmp,NA,0,3.1
38,5,133.38,honeymoon,NA,3,3,0.29063,1,2,S_Image_133.bmp-F_Lure_38.bmp,NA,0,3.1
39,5,116.19,wound,NA,3,3,0.50215,1,3,S_Image_116.bmp-F_Lure_19.bmp,NA,0,3.1
40,5,25.15,hostage,NA,1,1,0.37026,1,3,F_Image_24.bmp-S_Lure_115.bmp,NA,0,1.3
41,5,52.09,bubble,NA,2,2,0.26528,1,2,O_Image_51.bmp-S_Lure_109.bmp,NA,0,2.3
42,5,126.89,orchestra,NA,3,3,0.41622,1,1,S_Image_126.bmp-O_Lure_89.bmp,NA,0,3.2
43,5,134.58,hurricane,NA,3,3,0.27255,1,1,S_Image_134.bmp-O_Lure_58.bmp,NA,0,3.2
44,5,16.68,poison,NA,1,1,0.26756,1,2,F_Image_16.bmp-O_Lure_68.bmp,NA,0,1.2
45,5,102.43,wreck,NA,3,1,0.38372,0,1,S_Image_102.bmp-F_Lure_43.bmp,NA,0,3.1
46,5,18.96,alcohol,NA,1,1,0.35711,1,1,F_Image_18.bmp-O_Lure_96.bmp,NA,0,1.2
47,5,123.02,money,NA,3,2,0.86822,0,2,S_Image_123.bmp-F_Lure_2.bmp,NA,0,3.1
48,5,14.53,lever,NA,1,1,0.33556,1,3,F_Image_14.bmp-O_Lure_53.bmp,NA,0,1.2
49,5,134.58,hurricane,NA,3,3,0.2818,1,2,S_Image_134.bmp-O_Lure_58.bmp,NA,0,3.2
50,5,102.43,wreck,NA,3,3,0.27688,1,2,S_Image_102.bmp-F_Lure_43.bmp,NA,0,3.1
51,5,7.9,triangle,NA,1,1,0.39603,1,2,F_Image_7.bmp-O_Lure_90.bmp,NA,0,1.2
52,5,28.62,seed,NA,1,1,1.3473,1,2,F_Image_28.bmp-O_Lure_62.bmp,NA,0,1.2
53,5,142.21,harem,NA,3,3,0.26533,1,1,S_Image_142.bmp-F_Lure_21.bmp,NA,0,3.1
54,5,134.58,hurricane,NA,3,3,0.24124,1,3,S_Image_134.bmp-O_Lure_58.bmp,NA,0,3.2
55,5,116.19,wound,NA,3,3,0.36384,1,4,S_Image_116.bmp-F_Lure_19.bmp,NA,0,3.1
56,5,18.96,alcohol,NA,1,1,0.042954,1,2,F_Image_18.bmp-O_Lure_96.bmp,NA,0,1.2
57,5,7.9,triangle,NA,1,1,0.2882,1,3,F_Image_7.bmp-O_Lure_90.bmp,NA,0,1.2
58,5,62.2,rust,NA,2,2,0.27866,1,2,O_Image_61.bmp-S_Lure_120.bmp,NA,0,2.3
59,5,31.95,attack,NA,1,1,0.33862,1,3,F_Image_31.bmp-O_Lure_95.bmp,NA,0,1.2
60,5,12.24,fire,NA,1,1,0.37288,1,2,F_Image_11.bmp-S_Lure_124.bmp,NA,0,1.3
61,5,84.27,corner,NA,2,2,1.4513,1,3,O_Image_83.bmp-S_Lure_127.bmp,NA,0,2.3
62,5,78.13,ghost,NA,2,3,0.33155,0,2,O_Image_78.bmp-F_Lure_13.bmp,NA,0,2.1
63,5,12.24,fire,NA,1,1,0.46757,1,3,F_Image_11.bmp-S_Lure_124.bmp,NA,0,1.3
64,5,102.43,wreck,NA,3,3,0.24077,1,3,S_Image_102.bmp-F_Lure_43.bmp,NA,0,3.1
65,5,9.98,scar,NA,1,2,0.68807,0,2,F_Image_9.bmp-S_Lure_98.bmp,NA,0,1.3
66,5,126.89,orchestra,NA,3,3,0.38365,1,2,S_Image_126.bmp-O_Lure_89.bmp,NA,0,3.2
67,5,103.63,paper,NA,3,1,0.36616,0,3,S_Image_103.bmp-O_Lure_63.bmp,NA,0,3.2
68,5,132.92,magnet,NA,3,3,0.32061,1,2,S_Image_132.bmp-O_Lure_92.bmp,NA,0,3.2
69,5,144.15,laundry,NA,3,3,0.34104,1,1,S_Image_144.bmp-F_Lure_15.bmp,NA,0,3.1
70,5,111.6,kiss,NA,3,3,0.4288,1,2,S_Image_111.bmp-O_Lure_60.bmp,NA,0,3.2
71,5,9.98,scar,NA,1,1,0.55374,1,3,F_Image_9.bmp-S_Lure_98.bmp,NA,0,1.3
72,5,28.62,seed,NA,1,1,0.0003329,1,3,F_Image_28.bmp-O_Lure_62.bmp,NA,0,1.2
73,5,31.95,attack,NA,1,1,0.32415,1,4,F_Image_31.bmp-O_Lure_95.bmp,NA,0,1.2
74,5,57.12,army,NA,2,2,0.29237,1,2,O_Image_57.bmp-F_Lure_12.bmp,NA,0,2.1
75,5,16.68,poison,NA,1,1,0.36331,1,3,F_Image_16.bmp-O_Lure_68.bmp,NA,0,1.2
76,5,123.02,money,NA,3,3,0.85619,1,3,S_Image_123.bmp-F_Lure_2.bmp,NA,0,3.1
77,5,80.12,menu,NA,2,2,0.34494,1,2,O_Image_79.bmp-S_Lure_112.bmp,NA,0,2.3
78,5,62.2,rust,NA,2,2,0.36447,1,3,O_Image_61.bmp-S_Lure_120.bmp,NA,0,2.3
79,5,12.24,fire,NA,1,3,1.7596,0,4,F_Image_11.bmp-S_Lure_124.bmp,NA,0,1.3
80,5,74.42,spray,NA,2,2,0.29024,1,2,O_Image_74.bmp-F_Lure_42.bmp,NA,0,2.1
81,5,133.38,honeymoon,NA,3,3,0.30661,1,3,S_Image_133.bmp-F_Lure_38.bmp,NA,0,3.1
82,5,111.6,kiss,NA,3,3,0.34506,1,3,S_Image_111.bmp-O_Lure_60.bmp,NA,0,3.2
83,5,66.35,cone,NA,2,2,1.4934,1,2,O_Image_65.bmp-S_Lure_135.bmp,NA,0,2.3
84,5,103.63,paper,NA,3,1,0.47393,0,4,S_Image_103.bmp-O_Lure_63.bmp,NA,0,3.2
85,5,142.21,harem,NA,3,2,0.39685,0,2,S_Image_142.bmp-F_Lure_21.bmp,NA,0,3.1
86,5,97.32,yellow,NA,3,3,0.29764,1,2,S_Image_97.bmp-F_Lure_32.bmp,NA,0,3.1
87,5,99.45,breakfast,NA,3,1,0.27403,0,2,S_Image_99.bmp-F_Lure_45.bmp,NA,0,3.1
88,5,78.13,ghost,NA,2,2,0.30948,1,3,O_Image_78.bmp-F_Lure_13.bmp,NA,0,2.1
89,5,78.13,ghost,NA,2,2,0.29576,1,4,O_Image_78.bmp-F_Lure_13.bmp,NA,0,2.1
90,5,117.54,spike,NA,3,3,0.41959,1,2,S_Image_117.bmp-O_Lure_54.bmp,NA,0,3.2
91,5,119.47,cloud,NA,3,3,0.45135,1,2,S_Image_119.bmp-F_Lure_47.bmp,NA,0,3.1
92,5,99.45,breakfast,NA,3,3,1.0881,1,3,S_Image_99.bmp-F_Lure_45.bmp,NA,0,3.1
93,5,52.09,bubble,NA,2,2,0.36689,1,3,O_Image_51.bmp-S_Lure_109.bmp,NA,0,2.3
94,5,133.38,honeymoon,NA,3,3,0.31043,1,4,S_Image_133.bmp-F_Lure_38.bmp,NA,0,3.1
95,5,111.6,kiss,NA,3,3,0.35715,1,4,S_Image_111.bmp-O_Lure_60.bmp,NA,0,3.2
96,5,119.47,cloud,NA,3,3,0.55857,1,3,S_Image_119.bmp-F_Lure_47.bmp,NA,0,3.1
97,5,28.62,seed,NA,1,1,0.1163,1,4,F_Image_28.bmp-O_Lure_62.bmp,NA,0,1.2
98,5,84.46,steam,NA,2,2,1.1773,1,2,O_Image_84.bmp-F_Lure_46.bmp,NA,0,2.1
99,5,144.15,laundry,NA,3,3,0.4253,1,2,S_Image_144.bmp-F_Lure_15.bmp,NA,0,3.1
100,5,93.26,slope,NA,2,2,0.39439,1,1,O_Image_93.bmp-F_Lure_26.bmp,NA,0,2.1
101,5,80.12,menu,NA,2,2,0.37277,1,3,O_Image_79.bmp-S_Lure_112.bmp,NA,0,2.3
102,5,84.46,steam,NA,2,2,0.28197,1,3,O_Image_84.bmp-F_Lure_46.bmp,NA,0,2.1
103,5,80.12,menu,NA,2,2,0.3145,1,4,O_Image_79.bmp-S_Lure_112.bmp,NA,0,2.3
104,5,93.26,slope,NA,2,2,0.30127,1,2,O_Image_93.bmp-F_Lure_26.bmp,NA,0,2.1
105,5,66.35,cone,NA,2,2,0.3077,1,3,O_Image_65.bmp-S_Lure_135.bmp,NA,0,2.3
106,5,22.69,sunshine,NA,1,1,0.39483,1,3,F_Image_22.bmp-O_Lure_69.bmp,NA,0,1.2
107,5,18.96,alcohol,NA,1,1,0.38309,1,3,F_Image_18.bmp-O_Lure_96.bmp,NA,0,1.2
108,5,9.98,scar,NA,1,1,0.25586,1,4,F_Image_9.bmp-S_Lure_98.bmp,NA,0,1.3
109,5,16.68,poison,NA,1,1,0.30483,1,4,F_Image_16.bmp-O_Lure_68.bmp,NA,0,1.2
110,5,132.92,magnet,NA,3,3,0.3442,1,3,S_Image_132.bmp-O_Lure_92.bmp,NA,0,3.2
111,5,144.15,laundry,NA,3,3,0.28961,1,3,S_Image_144.bmp-F_Lure_15.bmp,NA,0,3.1
112,5,126.89,orchestra,NA,3,3,0.46682,1,3,S_Image_126.bmp-O_Lure_89.bmp,NA,0,3.2
113,5,2.3,signal,NA,1,1,0.34845,1,3,F_Image_1.bmp-S_Lure_130.bmp,NA,0,1.3
114,5,18.96,alcohol,NA,1,1,0.31716,1,4,F_Image_18.bmp-O_Lure_96.bmp,NA,0,1.2
115,5,119.47,cloud,NA,3,3,0.32871,1,4,S_Image_119.bmp-F_Lure_47.bmp,NA,0,3.1
116,5,142.21,harem,NA,3,2,0.27595,0,3,S_Image_142.bmp-F_Lure_21.bmp,NA,0,3.1
117,5,62.2,rust,NA,2,2,0.34346,1,4,O_Image_61.bmp-S_Lure_120.bmp,NA,0,2.3
118,5,99.45,breakfast,NA,3,3,0.8257,1,4,S_Image_99.bmp-F_Lure_45.bmp,NA,0,3.1
119,5,74.42,spray,NA,2,2,0.32639,1,3,O_Image_74.bmp-F_Lure_42.bmp,NA,0,2.1
120,5,84.46,steam,NA,2,2,0.34045,1,4,O_Image_84.bmp-F_Lure_46.bmp,NA,0,2.1
121,5,66.35,cone,NA,2,2,0.40883,1,4,O_Image_65.bmp-S_Lure_135.bmp,NA,0,2.3
122,5,132.92,magnet,NA,3,3,0.34454,1,4,S_Image_132.bmp-O_Lure_92.bmp,NA,0,3.2
123,5,57.12,army,NA,2,2,0.6154,1,3,O_Image_57.bmp-F_Lure_12.bmp,NA,0,2.1
124,5,126.89,orchestra,NA,3,3,0.69635,1,4,S_Image_126.bmp-O_Lure_89.bmp,NA,0,3.2
125,5,97.32,yellow,NA,3,3,0.00033262,1,3,S_Image_97.bmp-F_Lure_32.bmp,NA,0,3.1
126,5,84.27,corner,NA,2,2,0.29749,1,4,O_Image_83.bmp-S_Lure_127.bmp,NA,0,2.3
127,5,142.21,harem,NA,3,3,0.26037,1,4,S_Image_142.bmp-F_Lure_21.bmp,NA,0,3.1
128,5,22.69,sunshine,NA,1,1,0.4081,1,4,F_Image_22.bmp-O_Lure_69.bmp,NA,0,1.2
129,5,123.02,money,NA,3,3,0.68214,1,4,S_Image_123.bmp-F_Lure_2.bmp,NA,0,3.1
130,5,7.9,triangle,NA,1,1,0.33979,1,4,F_Image_7.bmp-O_Lure_90.bmp,NA,0,1.2
131,5,134.58,hurricane,NA,3,3,0.39287,1,4,S_Image_134.bmp-O_Lure_58.bmp,NA,0,3.2
132,5,14.53,lever,NA,1,1,1.4454,1,4,F_Image_14.bmp-O_Lure_53.bmp,NA,0,1.2
133,5,93.26,slope,NA,2,2,0.7288,1,3,O_Image_93.bmp-F_Lure_26.bmp,NA,0,2.1
134,5,117.54,spike,NA,3,3,0.38665,1,3,S_Image_117.bmp-O_Lure_54.bmp,NA,0,3.2
135,5,102.43,wreck,NA,3,3,1.3407,1,4,S_Image_102.bmp-F_Lure_43.bmp,NA,0,3.1
136,5,57.12,army,NA,2,2,0.3374,1,4,O_Image_57.bmp-F_Lure_12.bmp,NA,0,2.1
137,5,52.09,bubble,NA,2,2,0.34116,1,4,O_Image_51.bmp-S_Lure_109.bmp,NA,0,2.3
138,5,25.15,hostage,NA,1,1,1.2938,1,4,F_Image_24.bmp-S_Lure_115.bmp,NA,0,1.3
139,5,144.15,laundry,NA,3,3,1.5425,1,4,S_Image_144.bmp-F_Lure_15.bmp,NA,0,3.1
140,5,97.32,yellow,NA,3,3,0.00032513,1,4,S_Image_97.bmp-F_Lure_32.bmp,NA,0,3.1
141,5,93.26,slope,NA,2,2,0.36991,1,4,O_Image_93.bmp-F_Lure_26.bmp,NA,0,2.1
142,5,74.42,spray,NA,2,2,0.30591,1,4,O_Image_74.bmp-F_Lure_42.bmp,NA,0,2.1
143,5,117.54,spike,NA,3,3,0.61331,1,4,S_Image_117.bmp-O_Lure_54.bmp,NA,0,3.2
144,5,2.3,signal,NA,1,1,0.73741,1,4,F_Image_1.bmp-S_Lure_130.bmp,NA,0,1.3
145,6,112,menu,NA,2,2,0.85628,1,NA,S_Image_112.bmp-S_Lure_112.bmp,1,0,3
146,6,18,alcohol,NA,1,2,0.84546,0,NA,F_Image_18.bmp-F_Lure_18.bmp,1,0,1
147,6,9,scar,NA,1,1,0.62355,1,NA,F_Image_9.bmp-F_Lure_9.bmp,1,0,1
148,6,75,alien,NA,2,2,0.70468,1,NA,O_Image_75.bmp-O_Lure_75.bmp,1,1,2
149,6,114,witch,NA,2,1,0.84116,0,NA,S_Image_114.bmp-S_Lure_114.bmp,1,1,3
150,6,86,fuel,NA,1,1,0.69435,1,NA,O_Image_86.bmp-O_Lure_86.bmp,1,1,2
151,6,52,stem,NA,1,2,0.63783,0,NA,O_Image_52.bmp-O_Lure_52.bmp,1,1,2
152,6,15,laundry,NA,2,2,0.9559,1,NA,F_Image_15.bmp-F_Lure_15.bmp,1,0,1
153,6,60,kiss,NA,1,1,0.5898,1,NA,O_Image_60.bmp-O_Lure_60.bmp,1,0,2
154,6,137,water,NA,1,1,0.77127,1,NA,S_Image_137.bmp-S_Lure_137.bmp,1,1,3
155,6,127,corner,NA,1,1,0.66132,1,NA,S_Image_127.bmp-S_Lure_127.bmp,1,0,3
156,6,94,angel,NA,2,2,0.64321,1,NA,O_Image_94.bmp-O_Lure_94.bmp,1,1,2
157,6,120,rust,NA,2,2,0.77568,1,NA,S_Image_120.bmp-S_Lure_120.bmp,1,0,3
158,6,79,menu,NA,1,1,0.60635,1,NA,O_Image_79.bmp-O_Lure_79.bmp,1,0,2
159,6,80,shell,NA,2,1,0.85276,0,NA,O_Image_80.bmp-O_Lure_80.bmp,1,1,2
160,6,12,army,NA,2,2,1.0627,1,NA,F_Image_12.bmp-F_Lure_12.bmp,1,0,1
161,6,65,cone,NA,2,2,0.73452,1,NA,O_Image_65.bmp-O_Lure_65.bmp,1,0,2
162,6,116,wound,NA,1,1,1.0152,1,NA,S_Image_116.bmp-S_Lure_116.bmp,1,0,3
163,6,33,stem,NA,1,1,1.0146,1,NA,F_Image_33.bmp-F_Lure_33.bmp,1,1,1
164,6,98,scar,NA,2,2,1.2817,1,NA,S_Image_98.bmp-S_Lure_98.bmp,1,0,3
165,6,53,lever,NA,2,2,0.94735,1,NA,O_Image_53.bmp-O_Lure_53.bmp,1,0,2
166,6,113,antique,NA,2,2,0.85433,1,NA,S_Image_113.bmp-S_Lure_113.bmp,1,1,3
167,6,89,orchestra,NA,2,2,0.75358,1,NA,O_Image_89.bmp-O_Lure_89.bmp,1,0,2
168,6,34,stripe,NA,1,1,0.75863,1,NA,F_Image_34.bmp-F_Lure_34.bmp,1,1,1
169,6,49,vegetable,NA,2,2,0.74406,1,NA,O_Image_49.bmp-O_Lure_49.bmp,1,1,2
170,6,4,angel,NA,1,1,0.74927,1,NA,F_Image_4.bmp-F_Lure_4.bmp,1,1,1
171,6,76,costume,NA,1,1,0.81539,1,NA,O_Image_76.bmp-O_Lure_76.bmp,1,1,2
172,6,11,fire,NA,2,1,0.95064,0,NA,F_Image_11.bmp-F_Lure_11.bmp,1,0,1
173,6,108,tear,NA,1,2,0.82484,0,NA,S_Image_108.bmp-S_Lure_108.bmp,1,1,3
174,6,129,arrow,NA,1,2,1.1408,0,NA,S_Image_129.bmp-S_Lure_129.bmp,1,1,3
175,6,109,bubble,NA,1,1,0.89952,1,NA,S_Image_109.bmp-S_Lure_109.bmp,1,0,3
176,6,28,seed,NA,1,1,0.81321,1,NA,F_Image_28.bmp-F_Lure_28.bmp,1,0,1
177,6,122,quake,NA,1,1,1.0783,1,NA,S_Image_122.bmp-S_Lure_122.bmp,1,1,3
178,6,68,poison,NA,1,1,0.74185,1,NA,O_Image_68.bmp-O_Lure_68.bmp,1,0,2
179,6,45,breakfast,NA,2,2,1.0144,1,NA,F_Image_45.bmp-F_Lure_45.bmp,1,0,1
180,6,106,marble,NA,2,2,1.039,1,NA,S_Image_106.bmp-S_Lure_106.bmp,1,1,3
181,6,8,tube,NA,1,1,0.78928,1,NA,F_Image_8.bmp-F_Lure_8.bmp,1,1,1
182,6,105,shadow,NA,2,2,1.1007,1,NA,S_Image_105.bmp-S_Lure_105.bmp,1,1,3
183,6,107,tourist,NA,2,2,0.97616,1,NA,S_Image_107.bmp-S_Lure_107.bmp,1,1,3
184,6,5,tear,NA,2,2,0.85834,1,NA,F_Image_5.bmp-F_Lure_5.bmp,1,1,1
185,6,82,stripe,NA,2,1,0.67572,0,NA,O_Image_82.bmp-O_Lure_82.bmp,1,1,2
186,6,73,drizzle,NA,1,1,0.79504,1,NA,O_Image_73.bmp-O_Lure_73.bmp,1,1,2
187,6,20,black,NA,2,2,1.0068,1,NA,F_Image_20.bmp-F_Lure_20.bmp,1,1,1
188,6,47,cloud,NA,2,2,0.95885,1,NA,F_Image_47.bmp-F_Lure_47.bmp,1,0,1
189,6,101,drizzle,NA,1,1,1.4453,1,NA,S_Image_101.bmp-S_Lure_101.bmp,1,1,3
190,6,123,money,NA,1,2,1.782,0,NA,S_Image_123.bmp-S_Lure_123.bmp,1,0,3
191,6,118,alien,NA,1,2,1.4936,0,NA,S_Image_118.bmp-S_Lure_118.bmp,1,1,3
192,6,37,shadow,NA,2,1,1.3327,0,NA,F_Image_37.bmp-F_Lure_37.bmp,1,1,1
193,6,3,wool,NA,2,2,1.3079,1,NA,F_Image_3.bmp-F_Lure_3.bmp,1,1,1
194,6,91,galaxy,NA,2,1,0.77064,0,NA,O_Image_91.bmp-O_Lure_91.bmp,1,1,2
195,6,27,board,NA,2,1,1.4074,0,NA,F_Image_27.bmp-F_Lure_27.bmp,1,1,1
196,6,48,corpse,NA,1,1,0.82743,1,NA,F_Image_48.bmp-F_Lure_48.bmp,1,1,1
197,6,50,rock,NA,2,2,0.71873,1,NA,O_Image_50.bmp-O_Lure_50.bmp,1,1,2
198,6,141,galaxy,NA,1,1,1.2,1,NA,S_Image_141.bmp-S_Lure_141.bmp,1,1,3
199,6,46,steam,NA,1,1,0.90412,1,NA,F_Image_46.bmp-F_Lure_46.bmp,1,0,1
200,6,56,antique,NA,1,1,0.93761,1,NA,O_Image_56.bmp-O_Lure_56.bmp,1,1,2
201,6,25,flood,NA,1,1,1.2938,1,NA,F_Image_25.bmp-F_Lure_25.bmp,1,1,1
202,6,90,triangle,NA,1,1,1.2297,1,NA,O_Image_90.bmp-O_Lure_90.bmp,1,0,2
203,6,32,yellow,NA,1,1,0.94567,1,NA,F_Image_32.bmp-F_Lure_32.bmp,1,0,1
204,6,121,fuel,NA,1,1,1.0862,1,NA,S_Image_121.bmp-S_Lure_121.bmp,1,1,3
205,6,69,sunshine,NA,1,1,0.75374,1,NA,O_Image_69.bmp-O_Lure_69.bmp,1,0,2
206,6,81,flood,NA,1,1,0.76629,1,NA,O_Image_81.bmp-O_Lure_81.bmp,1,1,2
207,6,16,poison,NA,2,2,1.3955,1,NA,F_Image_16.bmp-F_Lure_16.bmp,1,0,1
208,6,26,slope,NA,1,1,1.1214,1,NA,F_Image_26.bmp-F_Lure_26.bmp,1,0,1
209,6,51,bubble,NA,1,1,0.76912,1,NA,O_Image_51.bmp-O_Lure_51.bmp,1,0,2
210,6,95,attack,NA,1,2,0.96308,0,NA,O_Image_95.bmp-O_Lure_95.bmp,1,0,2
211,6,59,corpse,NA,1,1,1.2042,1,NA,O_Image_59.bmp-O_Lure_59.bmp,1,1,2
212,6,39,measles,NA,2,2,1.1297,1,NA,F_Image_39.bmp-F_Lure_39.bmp,1,1,1
213,6,2,money,NA,1,1,1.4929,1,NA,F_Image_2.bmp-F_Lure_2.bmp,1,0,1
214,6,111,kiss,NA,1,1,1.4177,1,NA,S_Image_111.bmp-S_Lure_111.bmp,1,0,3
215,6,100,sand,NA,1,1,1.1469,1,NA,S_Image_100.bmp-S_Lure_100.bmp,1,1,3
216,6,93,slope,NA,1,1,0.88494,1,NA,O_Image_93.bmp-O_Lure_93.bmp,1,0,2
217,6,83,corner,NA,1,1,0.89177,1,NA,O_Image_83.bmp-O_Lure_83.bmp,1,0,2
218,6,117,spike,NA,1,1,1.6987,1,NA,S_Image_117.bmp-S_Lure_117.bmp,1,0,3
219,6,41,asphalt,NA,2,2,0.89804,1,NA,F_Image_41.bmp-F_Lure_41.bmp,1,1,1
220,6,78,ghost,NA,1,1,0.81944,1,NA,O_Image_78.bmp-O_Lure_78.bmp,1,0,2
221,6,72,marble,NA,1,1,0.84598,1,NA,O_Image_72.bmp-O_Lure_72.bmp,1,1,2
222,6,38,honeymoon,NA,2,2,0.95066,1,NA,F_Image_38.bmp-F_Lure_38.bmp,1,0,1
223,6,132,magnet,NA,2,2,1.7688,1,NA,S_Image_132.bmp-S_Lure_132.bmp,1,0,3
224,6,44,rock,NA,1,1,1.4809,1,NA,F_Image_44.bmp-F_Lure_44.bmp,1,1,1
225,6,57,army,NA,2,2,1.2768,1,NA,O_Image_57.bmp-O_Lure_57.bmp,1,0,2
226,6,134,hurricane,NA,2,2,1.3541,1,NA,S_Image_134.bmp-S_Lure_134.bmp,1,0,3
227,6,6,sweat,NA,1,1,1.3016,1,NA,F_Image_6.bmp-F_Lure_6.bmp,1,1,1
228,6,103,paper,NA,1,1,1.0964,1,NA,S_Image_103.bmp-S_Lure_103.bmp,1,0,3
229,6,31,attack,NA,1,1,1.1254,1,NA,F_Image_31.bmp-F_Lure_31.bmp,1,0,1
230,6,58,hurricane,NA,1,1,0.89032,1,NA,O_Image_58.bmp-O_Lure_58.bmp,1,0,2
231,6,42,spray,NA,2,2,1.5329,1,NA,F_Image_42.bmp-F_Lure_42.bmp,1,0,1
232,6,135,cone,NA,1,1,0.81543,1,NA,S_Image_135.bmp-S_Lure_135.bmp,1,0,3
233,6,99,breakfast,NA,2,2,1.2239,1,NA,S_Image_99.bmp-S_Lure_99.bmp,1,0,3
234,6,88,giant,NA,1,1,0.87771,1,NA,O_Image_88.bmp-O_Lure_88.bmp,1,1,2
235,6,35,vegetable,NA,1,2,1.1162,0,NA,F_Image_35.bmp-F_Lure_35.bmp,1,1,1
236,6,144,laundry,NA,1,1,1.6251,1,NA,S_Image_144.bmp-S_Lure_144.bmp,1,0,3
237,6,77,arch,NA,2,2,0.78467,1,NA,O_Image_77.bmp-O_Lure_77.bmp,1,1,2
238,6,97,yellow,NA,2,1,1.599,0,NA,S_Image_97.bmp-S_Lure_97.bmp,1,0,3
239,6,71,measles,NA,2,2,0.95551,1,NA,O_Image_71.bmp-O_Lure_71.bmp,1,1,2
240,6,66,animal,NA,2,2,0.74895,1,NA,O_Image_66.bmp-O_Lure_66.bmp,1,1,2
241,6,64,sand,NA,2,2,0.80513,1,NA,O_Image_64.bmp-O_Lure_64.bmp,1,1,2
242,6,139,wool,NA,1,2,1.0142,0,NA,S_Image_139.bmp-S_Lure_139.bmp,1,1,3
243,6,136,crumb,NA,1,2,1.0964,0,NA,S_Image_136.bmp-S_Lure_136.bmp,1,1,3
244,6,84,steam,NA,2,2,0.84884,1,NA,O_Image_84.bmp-O_Lure_84.bmp,1,0,2
245,6,14,lever,NA,1,1,1.0535,1,NA,F_Image_14.bmp-F_Lure_14.bmp,1,0,1
246,6,23,tail,NA,2,2,1.7322,1,NA,F_Image_23.bmp-F_Lure_23.bmp,1,1,1
247,6,140,shell,NA,1,1,1.2612,1,NA,S_Image_140.bmp-S_Lure_140.bmp,1,1,3
248,6,85,tail,NA,1,1,0.66909,1,NA,O_Image_85.bmp-O_Lure_85.bmp,1,1,2
249,6,138,tube,NA,1,1,0.8002,1,NA,S_Image_138.bmp-S_Lure_138.bmp,1,1,3
250,6,40,animal,NA,1,1,0.98204,1,NA,F_Image_40.bmp-F_Lure_40.bmp,1,1,1
251,6,133,honeymoon,NA,2,2,0.98996,1,NA,S_Image_133.bmp-S_Lure_133.bmp,1,0,3
252,6,126,orchestra,NA,1,1,1.1964,1,NA,S_Image_126.bmp-S_Lure_126.bmp,1,0,3
253,6,54,spike,NA,2,2,0.77249,1,NA,O_Image_54.bmp-O_Lure_54.bmp,1,0,2
254,6,131,arch,NA,2,2,0.7408,1,NA,S_Image_131.bmp-S_Lure_131.bmp,1,1,3
255,6,142,harem,NA,1,1,1.303,1,NA,S_Image_142.bmp-S_Lure_142.bmp,1,0,3
256,6,63,paper,NA,1,1,0.72103,1,NA,O_Image_63.bmp-O_Lure_63.bmp,1,0,2
257,6,36,arrow,NA,2,2,0.98615,1,NA,F_Image_36.bmp-F_Lure_36.bmp,1,1,1
258,6,87,water,NA,1,1,0.77055,1,NA,O_Image_87.bmp-O_Lure_87.bmp,1,1,2
259,6,124,fire,NA,1,2,1.1019,0,NA,S_Image_124.bmp-S_Lure_124.bmp,1,0,3
260,6,17,costume,NA,1,1,1.3109,1,NA,F_Image_17.bmp-F_Lure_17.bmp,1,1,1
261,6,74,spray,NA,1,1,0.83837,1,NA,O_Image_74.bmp-O_Lure_74.bmp,1,0,2
262,6,61,rust,NA,2,2,0.77886,1,NA,O_Image_61.bmp-O_Lure_61.bmp,1,0,2
263,6,115,hostage,NA,1,2,1.5047,0,NA,S_Image_115.bmp-S_Lure_115.bmp,1,0,3
264,6,70,witch,NA,2,2,1.6242,1,NA,O_Image_70.bmp-O_Lure_70.bmp,1,1,2
265,6,30,snow,NA,1,1,0.83145,1,NA,F_Image_30.bmp-F_Lure_30.bmp,1,1,1
266,6,67,asphalt,NA,1,1,1.3022,1,NA,O_Image_67.bmp-O_Lure_67.bmp,1,1,2
267,6,128,board,NA,1,1,1.3971,1,NA,S_Image_128.bmp-S_Lure_128.bmp,1,1,3
268,6,1,signal,NA,1,1,0.83979,1,NA,F_Image_1.bmp-F_Lure_1.bmp,1,0,1
269,6,130,signal,NA,2,2,1.7778,1,NA,S_Image_130.bmp-S_Lure_130.bmp,1,0,3
270,6,29,crumb,NA,2,2,1.7278,1,NA,F_Image_29.bmp-F_Lure_29.bmp,1,1,1
271,6,104,giant,NA,1,1,0.97018,1,NA,S_Image_104.bmp-S_Lure_104.bmp,1,1,3
272,6,143,sweat,NA,2,2,1.258,1,NA,S_Image_143.bmp-S_Lure_143.bmp,1,1,3
273,6,125,black,NA,1,1,0.94517,1,NA,S_Image_125.bmp-S_Lure_125.bmp,1,1,3
274,6,19,wound,NA,2,2,1.1958,1,NA,F_Image_19.bmp-F_Lure_19.bmp,1,0,1
275,6,62,seed,NA,2,2,1.1682,1,NA,O_Image_62.bmp-O_Lure_62.bmp,1,0,2
276,6,110,snow,NA,2,2,2.4728,1,NA,S_Image_110.bmp-S_Lure_110.bmp,1,1,3
277,6,96,alcohol,NA,1,1,0.81098,1,NA,O_Image_96.bmp-O_Lure_96.bmp,1,0,2
278,6,102,wreck,NA,1,2,0.80568,0,NA,S_Image_102.bmp-S_Lure_102.bmp,1,0,3
279,6,43,wreck,NA,1,1,1.3177,1,NA,F_Image_43.bmp-F_Lure_43.bmp,1,0,1
280,6,13,ghost,NA,2,2,0.9573,1,NA,F_Image_13.bmp-F_Lure_13.bmp,1,0,1
281,6,24,hostage,NA,2,2,1.0679,1,NA,F_Image_24.bmp-F_Lure_24.bmp,1,0,1
282,6,22,sunshine,NA,2,2,1.8779,1,NA,F_Image_22.bmp-F_Lure_22.bmp,1,0,1
283,6,92,magnet,NA,2,2,1.036,1,NA,O_Image_92.bmp-O_Lure_92.bmp,1,0,2
284,6,21,harem,NA,1,1,1.0519,1,NA,F_Image_21.bmp-F_Lure_21.bmp,1,0,1
285,6,7,triangle,NA,1,1,0.75621,1,NA,F_Image_7.bmp-F_Lure_7.bmp,1,0,1
286,6,10,tourist,NA,2,2,1.1965,1,NA,F_Image_10.bmp-F_Lure_10.bmp,1,1,1
287,6,55,quake,NA,1,1,0.99741,1,NA,O_Image_55.bmp-O_Lure_55.bmp,1,1,2
288,6,119,cloud,NA,1,1,1.2149,1,NA,S_Image_119.bmp-S_Lure_119.bmp,1,0,3
