Trial,Cond,ImageNum,Cue,Block,Correct,Response,RT,Accuracy,CueRep,fName,ImageType,Baseline,Category
1,1,66,NA,NA,NA,1,4.4951,NA,NA,O_Lure_66.bmp,0,1,2
2,1,112,NA,NA,NA,1,0.44937,NA,NA,S_Image_112.bmp,1,1,3
3,1,73,NA,NA,NA,1,1.0933,NA,NA,O_Lure_73.bmp,0,0,2
4,1,78,NA,NA,NA,1,0.69491,NA,NA,O_Image_78.bmp,2,1,2
5,1,48,NA,NA,NA,1,0.68882,NA,NA,F_Lure_48.bmp,0,0,1
6,1,59,NA,NA,NA,1,0.61079,NA,NA,O_Image_59.bmp,1,0,2
7,1,42,NA,NA,NA,2,0.28827,NA,NA,F_Image_42.bmp,2,1,1
8,1,114,NA,NA,NA,1,0.77046,NA,NA,S_Lure_114.bmp,0,0,3
9,1,2,NA,NA,NA,1,0.25696,NA,NA,F_Image_2.bmp,2,0,1
10,1,60,NA,NA,NA,1,0.26078,NA,NA,O_Image_60.bmp,1,1,2
11,1,23,NA,NA,NA,1,0.24038,NA,NA,F_Image_23.bmp,2,1,1
12,1,46,NA,NA,NA,2,0.34104,NA,NA,F_Lure_46.bmp,0,0,1
13,1,93,NA,NA,NA,1,0.60506,NA,NA,O_Image_93.bmp,2,0,2
14,1,83,NA,NA,NA,1,0.37143,NA,NA,O_Image_83.bmp,1,0,2
15,1,14,NA,NA,NA,1,0.26664,NA,NA,F_Lure_14.bmp,0,1,1
16,1,24,NA,NA,NA,1,0.32604,NA,NA,F_Image_24.bmp,1,0,1
17,1,71,NA,NA,NA,1,0.59081,NA,NA,O_Image_71.bmp,1,0,2
18,1,28,NA,NA,NA,2,0.26062,NA,NA,F_Lure_28.bmp,0,1,1
19,1,42,NA,NA,NA,2,0.97674,NA,NA,F_Lure_42.bmp,0,1,1
20,1,47,NA,NA,NA,1,0.22414,NA,NA,F_Image_47.bmp,2,1,1
21,1,98,NA,NA,NA,1,0.00012164,NA,NA,S_Image_98.bmp,2,1,3
22,1,121,NA,NA,NA,1,0.37148,NA,NA,S_Lure_121.bmp,0,0,3
23,1,111,NA,NA,NA,1,0.2748,NA,NA,S_Image_111.bmp,1,0,3
24,1,87,NA,NA,NA,1,0.00013734,NA,NA,O_Lure_87.bmp,0,0,2
25,1,119,NA,NA,NA,1,0.28224,NA,NA,S_Image_119.bmp,2,0,3
26,1,50,NA,NA,NA,1,0.36426,NA,NA,O_Image_50.bmp,2,0,2
27,1,70,NA,NA,NA,1,0.3797,NA,NA,O_Lure_70.bmp,0,1,2
28,1,61,NA,NA,NA,1,0.50569,NA,NA,O_Image_61.bmp,2,1,2
29,1,110,NA,NA,NA,1,0.34704,NA,NA,S_Lure_110.bmp,0,1,3
30,1,67,NA,NA,NA,1,0.28247,NA,NA,O_Image_67.bmp,2,1,2
31,1,55,NA,NA,NA,1,0.0030366,NA,NA,O_Image_55.bmp,2,0,2
32,1,136,NA,NA,NA,2,0.26979,NA,NA,S_Lure_136.bmp,0,1,3
33,1,20,NA,NA,NA,1,0.31327,NA,NA,F_Image_20.bmp,1,0,1
34,1,43,NA,NA,NA,1,0.25798,NA,NA,F_Image_43.bmp,1,1,1
35,1,104,NA,NA,NA,1,0.37433,NA,NA,S_Image_104.bmp,2,1,3
36,1,84,NA,NA,NA,1,0.22858,NA,NA,O_Lure_84.bmp,0,1,2
37,1,74,NA,NA,NA,1,0.28937,NA,NA,O_Image_74.bmp,1,0,2
38,1,18,NA,NA,NA,1,0.29,NA,NA,F_Image_18.bmp,2,0,1
39,1,95,NA,NA,NA,1,0.25211,NA,NA,O_Image_95.bmp,2,0,2
40,1,53,NA,NA,NA,1,0.25485,NA,NA,O_Image_53.bmp,2,0,2
41,1,8,NA,NA,NA,1,0.22752,NA,NA,F_Lure_8.bmp,0,0,1
42,1,137,NA,NA,NA,1,0.19094,NA,NA,S_Image_137.bmp,2,0,3
43,1,143,NA,NA,NA,2,0.2596,NA,NA,S_Lure_143.bmp,0,1,3
44,1,141,NA,NA,NA,1,0.27899,NA,NA,S_Lure_141.bmp,0,1,3
45,1,125,NA,NA,NA,1,0.31317,NA,NA,S_Image_125.bmp,1,1,3
46,1,78,NA,NA,NA,1,0.3463,NA,NA,O_Lure_78.bmp,0,1,2
47,1,41,NA,NA,NA,1,0.20325,NA,NA,F_Lure_41.bmp,0,1,1
48,1,89,NA,NA,NA,1,0.27265,NA,NA,O_Image_89.bmp,1,0,2
49,1,11,NA,NA,NA,1,0.22713,NA,NA,F_Image_11.bmp,1,1,1
50,1,81,NA,NA,NA,1,0.087924,NA,NA,O_Image_81.bmp,1,1,2
51,1,143,NA,NA,NA,1,0.26256,NA,NA,S_Image_143.bmp,2,1,3
52,1,32,NA,NA,NA,2,0.71317,NA,NA,F_Image_32.bmp,1,0,1
53,1,38,NA,NA,NA,1,0.27398,NA,NA,F_Image_38.bmp,1,1,1
54,1,72,NA,NA,NA,1,0.25997,NA,NA,O_Image_72.bmp,1,1,2
55,1,119,NA,NA,NA,1,0.286,NA,NA,S_Lure_119.bmp,0,0,3
56,1,88,NA,NA,NA,1,0.094714,NA,NA,O_Image_88.bmp,2,0,2
57,1,136,NA,NA,NA,1,0.12627,NA,NA,S_Image_136.bmp,2,1,3
58,1,5,NA,NA,NA,1,0.31023,NA,NA,F_Lure_5.bmp,0,0,1
59,1,124,NA,NA,NA,2,0.2863,NA,NA,S_Image_124.bmp,1,0,3
60,1,11,NA,NA,NA,1,0.20016,NA,NA,F_Lure_11.bmp,0,1,1
61,1,67,NA,NA,NA,1,0.2517,NA,NA,O_Lure_67.bmp,0,1,2
62,1,130,NA,NA,NA,2,0.33232,NA,NA,S_Image_130.bmp,2,0,3
63,1,82,NA,NA,NA,1,0.2204,NA,NA,O_Image_82.bmp,1,1,2
64,1,69,NA,NA,NA,1,0.34577,NA,NA,O_Image_69.bmp,1,1,2
65,1,113,NA,NA,NA,1,0.28109,NA,NA,S_Lure_113.bmp,0,0,3
66,1,132,NA,NA,NA,2,0.33925,NA,NA,S_Image_132.bmp,2,1,3
67,1,123,NA,NA,NA,2,0.73189,NA,NA,S_Lure_123.bmp,0,1,3
68,1,90,NA,NA,NA,1,0.33268,NA,NA,O_Lure_90.bmp,0,0,2
69,1,20,NA,NA,NA,1,0.16384,NA,NA,F_Lure_20.bmp,0,0,1
70,1,88,NA,NA,NA,1,0.20254,NA,NA,O_Lure_88.bmp,0,0,2
71,1,108,NA,NA,NA,2,0.30191,NA,NA,S_Image_108.bmp,2,1,3
72,1,111,NA,NA,NA,1,0.26948,NA,NA,S_Lure_111.bmp,0,0,3
73,1,8,NA,NA,NA,2,0.184,NA,NA,F_Image_8.bmp,2,0,1
74,1,31,NA,NA,NA,1,0.093483,NA,NA,F_Image_31.bmp,2,0,1
75,1,16,NA,NA,NA,1,0.00012617,NA,NA,F_Lure_16.bmp,0,1,1
76,1,141,NA,NA,NA,1,0.2196,NA,NA,S_Image_141.bmp,1,1,3
77,1,75,NA,NA,NA,1,0.00014277,NA,NA,O_Lure_75.bmp,0,1,2
78,1,15,NA,NA,NA,2,0.045763,NA,NA,F_Image_15.bmp,2,1,1
79,1,86,NA,NA,NA,1,0.24778,NA,NA,O_Image_86.bmp,1,0,2
80,1,68,NA,NA,NA,1,0.28224,NA,NA,O_Image_68.bmp,1,1,2
81,1,6,NA,NA,NA,1,0.20243,NA,NA,F_Lure_6.bmp,0,1,1
82,1,62,NA,NA,NA,1,0.1184,NA,NA,O_Image_62.bmp,1,1,2
83,1,65,NA,NA,NA,1,0.18035,NA,NA,O_Lure_65.bmp,0,0,2
84,1,29,NA,NA,NA,1,0.38585,NA,NA,F_Image_29.bmp,2,1,1
85,1,49,NA,NA,NA,1,0.16589,NA,NA,O_Image_49.bmp,2,0,2
86,1,68,NA,NA,NA,1,0.47385,NA,NA,O_Lure_68.bmp,0,1,2
87,1,142,NA,NA,NA,2,0.25193,NA,NA,S_Image_142.bmp,1,1,3
88,1,130,NA,NA,NA,2,0.344,NA,NA,S_Lure_130.bmp,0,0,3
89,1,44,NA,NA,NA,1,0.08607,NA,NA,F_Lure_44.bmp,0,1,1
90,1,63,NA,NA,NA,1,0.23875,NA,NA,O_Image_63.bmp,2,1,2
91,1,19,NA,NA,NA,1,0.25735,NA,NA,F_Image_19.bmp,1,0,1
92,1,124,NA,NA,NA,1,0.25216,NA,NA,S_Lure_124.bmp,0,0,3
93,1,105,NA,NA,NA,2,0.59878,NA,NA,S_Image_105.bmp,2,1,3
94,1,52,NA,NA,NA,1,0.00011712,NA,NA,O_Lure_52.bmp,0,1,2
95,1,135,NA,NA,NA,2,1.2695,NA,NA,S_Lure_135.bmp,0,0,3
96,1,144,NA,NA,NA,1,0.22363,NA,NA,S_Lure_144.bmp,0,1,3
97,1,33,NA,NA,NA,1,0.0046514,NA,NA,F_Lure_33.bmp,0,1,1
98,1,94,NA,NA,NA,1,0.12757,NA,NA,O_Image_94.bmp,2,0,2
99,1,75,NA,NA,NA,1,0.21381,NA,NA,O_Image_75.bmp,1,1,2
100,1,101,NA,NA,NA,2,1.0658,NA,NA,S_Image_101.bmp,1,0,3
101,1,30,NA,NA,NA,2,0.26849,NA,NA,F_Lure_30.bmp,0,1,1
102,1,32,NA,NA,NA,1,0.58264,NA,NA,F_Lure_32.bmp,0,0,1
103,1,56,NA,NA,NA,1,0.22055,NA,NA,O_Image_56.bmp,2,0,2
104,1,50,NA,NA,NA,1,0.19332,NA,NA,O_Lure_50.bmp,0,0,2
105,1,132,NA,NA,NA,1,0.00011742,NA,NA,S_Lure_132.bmp,0,1,3
106,1,120,NA,NA,NA,2,0.29662,NA,NA,S_Image_120.bmp,2,0,3
107,1,90,NA,NA,NA,1,0.22666,NA,NA,O_Image_90.bmp,2,0,2
108,1,48,NA,NA,NA,1,0.27148,NA,NA,F_Image_48.bmp,1,0,1
109,1,26,NA,NA,NA,1,0.38629,NA,NA,F_Lure_26.bmp,0,0,1
110,1,49,NA,NA,NA,1,0.24026,NA,NA,O_Lure_49.bmp,0,0,2
111,1,39,NA,NA,NA,2,2.8833,NA,NA,F_Image_39.bmp,2,0,1
112,1,128,NA,NA,NA,2,0.24484,NA,NA,S_Image_128.bmp,1,1,3
113,1,31,NA,NA,NA,1,0.28823,NA,NA,F_Lure_31.bmp,0,0,1
114,1,142,NA,NA,NA,1,0.64226,NA,NA,S_Lure_142.bmp,0,1,3
115,1,53,NA,NA,NA,1,0.35044,NA,NA,O_Lure_53.bmp,0,0,2
116,1,117,NA,NA,NA,2,0.23836,NA,NA,S_Lure_117.bmp,0,1,3
117,1,64,NA,NA,NA,1,0.32381,NA,NA,O_Image_64.bmp,1,0,2
118,1,73,NA,NA,NA,1,0.045766,NA,NA,O_Image_73.bmp,1,0,2
119,1,59,NA,NA,NA,1,0.40048,NA,NA,O_Lure_59.bmp,0,0,2
120,1,77,NA,NA,NA,1,0.30191,NA,NA,O_Image_77.bmp,2,1,2
121,1,118,NA,NA,NA,1,0.32078,NA,NA,S_Lure_118.bmp,0,1,3
122,1,131,NA,NA,NA,2,0.64126,NA,NA,S_Lure_131.bmp,0,0,3
123,1,5,NA,NA,NA,1,0.10939,NA,NA,F_Image_5.bmp,2,0,1
124,1,91,NA,NA,NA,1,0.35074,NA,NA,O_Lure_91.bmp,0,1,2
125,1,25,NA,NA,NA,1,0.27093,NA,NA,F_Lure_25.bmp,0,0,1
126,1,116,NA,NA,NA,1,0.3135,NA,NA,S_Image_116.bmp,2,0,3
127,1,125,NA,NA,NA,1,0.29749,NA,NA,S_Lure_125.bmp,0,1,3
128,1,19,NA,NA,NA,1,0.27501,NA,NA,F_Lure_19.bmp,0,0,1
129,1,36,NA,NA,NA,1,0.00011983,NA,NA,F_Lure_36.bmp,0,1,1
130,1,55,NA,NA,NA,1,0.23574,NA,NA,O_Lure_55.bmp,0,0,2
131,1,102,NA,NA,NA,2,0.26158,NA,NA,S_Image_102.bmp,2,0,3
132,1,79,NA,NA,NA,1,0.24102,NA,NA,O_Lure_79.bmp,0,0,2
133,1,134,NA,NA,NA,2,0.45232,NA,NA,S_Lure_134.bmp,0,1,3
134,1,92,NA,NA,NA,1,0.22394,NA,NA,O_Lure_92.bmp,0,0,2
135,1,54,NA,NA,NA,1,0.2684,NA,NA,O_Image_54.bmp,2,0,2
136,1,26,NA,NA,NA,1,0.23924,NA,NA,F_Image_26.bmp,1,0,1
137,1,34,NA,NA,NA,1,0.22717,NA,NA,F_Image_34.bmp,2,1,1
138,1,138,NA,NA,NA,1,0.28718,NA,NA,S_Image_138.bmp,2,0,3
139,1,66,NA,NA,NA,1,0.14531,NA,NA,O_Image_66.bmp,1,1,2
140,1,122,NA,NA,NA,2,0.26391,NA,NA,S_Lure_122.bmp,0,0,3
141,1,123,NA,NA,NA,2,0.39468,NA,NA,S_Image_123.bmp,2,1,3
142,1,57,NA,NA,NA,1,0.21607,NA,NA,O_Lure_57.bmp,0,0,2
143,1,110,NA,NA,NA,2,0.66939,NA,NA,S_Image_110.bmp,1,1,3
144,1,4,NA,NA,NA,1,0.25677,NA,NA,F_Image_4.bmp,2,1,1
145,1,101,NA,NA,NA,2,0.3069,NA,NA,S_Lure_101.bmp,0,0,3
146,1,140,NA,NA,NA,1,0.26023,NA,NA,S_Image_140.bmp,1,0,3
147,1,40,NA,NA,NA,1,0.25505,NA,NA,F_Image_40.bmp,1,1,1
148,1,63,NA,NA,NA,1,0.22432,NA,NA,O_Lure_63.bmp,0,1,2
149,1,72,NA,NA,NA,1,0.20442,NA,NA,O_Lure_72.bmp,0,1,2
150,1,54,NA,NA,NA,1,0.20786,NA,NA,O_Lure_54.bmp,0,0,2
151,1,99,NA,NA,NA,2,0.3004,NA,NA,S_Image_99.bmp,2,1,3
152,1,126,NA,NA,NA,2,0.7745,NA,NA,S_Lure_126.bmp,0,1,3
153,1,14,NA,NA,NA,1,0.20511,NA,NA,F_Image_14.bmp,1,1,1
154,1,113,NA,NA,NA,1,0.00011319,NA,NA,S_Image_113.bmp,2,0,3
155,1,6,NA,NA,NA,1,0.19932,NA,NA,F_Image_6.bmp,2,1,1
156,1,81,NA,NA,NA,1,0.027972,NA,NA,O_Lure_81.bmp,0,1,2
157,1,41,NA,NA,NA,1,0.23273,NA,NA,F_Image_41.bmp,1,1,1
158,1,30,NA,NA,NA,2,0.15601,NA,NA,F_Image_30.bmp,2,1,1
159,1,47,NA,NA,NA,1,0.28269,NA,NA,F_Lure_47.bmp,0,1,1
160,1,60,NA,NA,NA,1,0.3408,NA,NA,O_Lure_60.bmp,0,1,2
161,1,58,NA,NA,NA,1,0.00011681,NA,NA,O_Lure_58.bmp,0,0,2
162,1,86,NA,NA,NA,1,0.13893,NA,NA,O_Lure_86.bmp,0,0,2
163,1,9,NA,NA,NA,1,0.29178,NA,NA,F_Lure_9.bmp,0,1,1
164,1,45,NA,NA,NA,2,0.070876,NA,NA,F_Lure_45.bmp,0,0,1
165,1,139,NA,NA,NA,1,0.24893,NA,NA,S_Lure_139.bmp,0,1,3
166,1,15,NA,NA,NA,1,0.26975,NA,NA,F_Lure_15.bmp,0,1,1
167,1,40,NA,NA,NA,1,0.44167,NA,NA,F_Lure_40.bmp,0,1,1
168,1,23,NA,NA,NA,1,0.78984,NA,NA,F_Lure_23.bmp,0,1,1
169,1,128,NA,NA,NA,1,0.36381,NA,NA,S_Lure_128.bmp,0,1,3
170,1,106,NA,NA,NA,2,0.33197,NA,NA,S_Image_106.bmp,1,0,3
171,1,97,NA,NA,NA,2,0.54784,NA,NA,S_Image_97.bmp,1,1,3
172,1,13,NA,NA,NA,1,0.34655,NA,NA,F_Lure_13.bmp,0,0,1
173,1,27,NA,NA,NA,1,0.44801,NA,NA,F_Image_27.bmp,1,0,1
174,1,46,NA,NA,NA,2,0.26599,NA,NA,F_Image_46.bmp,2,0,1
175,1,24,NA,NA,NA,1,0.27868,NA,NA,F_Lure_24.bmp,0,0,1
176,1,16,NA,NA,NA,1,0.2727,NA,NA,F_Image_16.bmp,1,1,1
177,1,71,NA,NA,NA,1,0.27537,NA,NA,O_Lure_71.bmp,0,0,2
178,1,126,NA,NA,NA,2,0.32748,NA,NA,S_Image_126.bmp,1,1,3
179,1,58,NA,NA,NA,1,0.00011591,NA,NA,O_Image_58.bmp,2,0,2
180,1,3,NA,NA,NA,1,0.68618,NA,NA,F_Lure_3.bmp,0,1,1
181,1,35,NA,NA,NA,2,0.71218,NA,NA,F_Image_35.bmp,2,0,1
182,1,35,NA,NA,NA,2,0.52233,NA,NA,F_Lure_35.bmp,0,0,1
183,1,85,NA,NA,NA,1,0.37113,NA,NA,O_Image_85.bmp,1,1,2
184,1,108,NA,NA,NA,2,0.33776,NA,NA,S_Lure_108.bmp,0,1,3
185,1,103,NA,NA,NA,1,0.31432,NA,NA,S_Lure_103.bmp,0,1,3
186,1,37,NA,NA,NA,2,0.30773,NA,NA,F_Lure_37.bmp,0,0,1
187,1,92,NA,NA,NA,1,0.020473,NA,NA,O_Image_92.bmp,1,0,2
188,1,100,NA,NA,NA,2,0.56919,NA,NA,S_Lure_100.bmp,0,0,3
189,1,115,NA,NA,NA,2,0.32856,NA,NA,S_Image_115.bmp,1,0,3
190,1,98,NA,NA,NA,1,0.28851,NA,NA,S_Lure_98.bmp,0,1,3
191,1,96,NA,NA,NA,1,0.00011349,NA,NA,O_Lure_96.bmp,0,1,2
192,1,77,NA,NA,NA,1,0.0020281,NA,NA,O_Lure_77.bmp,0,1,2
193,1,13,NA,NA,NA,1,0.31145,NA,NA,F_Image_13.bmp,2,0,1
194,1,94,NA,NA,NA,1,0.22551,NA,NA,O_Lure_94.bmp,0,0,2
195,1,115,NA,NA,NA,2,0.23735,NA,NA,S_Lure_115.bmp,0,0,3
196,1,105,NA,NA,NA,2,0.39343,NA,NA,S_Lure_105.bmp,0,1,3
197,1,117,NA,NA,NA,2,0.26304,NA,NA,S_Image_117.bmp,1,1,3
198,1,4,NA,NA,NA,1,0.21905,NA,NA,F_Lure_4.bmp,0,1,1
199,1,70,NA,NA,NA,1,0.15156,NA,NA,O_Image_70.bmp,2,1,2
200,1,3,NA,NA,NA,1,0.025015,NA,NA,F_Image_3.bmp,1,1,1
201,1,109,NA,NA,NA,1,0.28498,NA,NA,S_Image_109.bmp,1,0,3
202,1,25,NA,NA,NA,1,0.26177,NA,NA,F_Image_25.bmp,1,0,1
203,1,91,NA,NA,NA,1,0.2077,NA,NA,O_Image_91.bmp,2,1,2
204,1,104,NA,NA,NA,2,0.20461,NA,NA,S_Lure_104.bmp,0,1,3
205,1,62,NA,NA,NA,1,0.23509,NA,NA,O_Lure_62.bmp,0,1,2
206,1,33,NA,NA,NA,1,0.23184,NA,NA,F_Image_33.bmp,2,1,1
207,1,133,NA,NA,NA,2,0.29273,NA,NA,S_Image_133.bmp,1,1,3
208,1,7,NA,NA,NA,1,0.1673,NA,NA,F_Image_7.bmp,1,1,1
209,1,133,NA,NA,NA,1,0.29456,NA,NA,S_Lure_133.bmp,0,1,3
210,1,140,NA,NA,NA,1,0.2021,NA,NA,S_Lure_140.bmp,0,0,3
211,1,39,NA,NA,NA,2,0.17558,NA,NA,F_Lure_39.bmp,0,0,1
212,1,118,NA,NA,NA,1,0.69406,NA,NA,S_Image_118.bmp,2,1,3
213,1,7,NA,NA,NA,1,0.16819,NA,NA,F_Lure_7.bmp,0,1,1
214,1,12,NA,NA,NA,1,0.30971,NA,NA,F_Image_12.bmp,2,1,1
215,1,17,NA,NA,NA,1,0.28628,NA,NA,F_Image_17.bmp,1,0,1
216,1,17,NA,NA,NA,1,0.24891,NA,NA,F_Lure_17.bmp,0,0,1
217,1,107,NA,NA,NA,1,0.00012225,NA,NA,S_Lure_107.bmp,0,0,3
218,1,129,NA,NA,NA,2,0.00011863,NA,NA,S_Image_129.bmp,1,1,3
219,1,97,NA,NA,NA,1,0.0089817,NA,NA,S_Lure_97.bmp,0,1,3
220,1,52,NA,NA,NA,1,0.1891,NA,NA,O_Image_52.bmp,2,1,2
221,1,139,NA,NA,NA,1,0.34516,NA,NA,S_Image_139.bmp,1,1,3
222,1,93,NA,NA,NA,1,0.18386,NA,NA,O_Lure_93.bmp,0,0,2
223,1,22,NA,NA,NA,2,0.00011772,NA,NA,F_Lure_22.bmp,0,1,1
224,1,45,NA,NA,NA,2,0.091827,NA,NA,F_Image_45.bmp,1,0,1
225,1,106,NA,NA,NA,1,0.23597,NA,NA,S_Lure_106.bmp,0,0,3
226,1,120,NA,NA,NA,2,0.0001153,NA,NA,S_Lure_120.bmp,0,0,3
227,1,137,NA,NA,NA,1,0.12401,NA,NA,S_Lure_137.bmp,0,0,3
228,1,51,NA,NA,NA,1,0.028015,NA,NA,O_Lure_51.bmp,0,0,2
229,1,36,NA,NA,NA,2,0.24803,NA,NA,F_Image_36.bmp,2,1,1
230,1,100,NA,NA,NA,2,0.12405,NA,NA,S_Image_100.bmp,1,0,3
231,1,82,NA,NA,NA,1,0.00011349,NA,NA,O_Lure_82.bmp,0,1,2
232,1,9,NA,NA,NA,1,0.00012074,NA,NA,F_Image_9.bmp,1,1,1
233,1,38,NA,NA,NA,1,0.27367,NA,NA,F_Lure_38.bmp,0,1,1
234,1,127,NA,NA,NA,1,0.44442,NA,NA,S_Image_127.bmp,2,1,3
235,1,87,NA,NA,NA,1,0.25571,NA,NA,O_Image_87.bmp,1,0,2
236,1,43,NA,NA,NA,1,0.050345,NA,NA,F_Lure_43.bmp,0,1,1
237,1,99,NA,NA,NA,2,0.3239,NA,NA,S_Lure_99.bmp,0,1,3
238,1,56,NA,NA,NA,1,0.25197,NA,NA,O_Lure_56.bmp,0,0,2
239,1,103,NA,NA,NA,1,0.19054,NA,NA,S_Image_103.bmp,2,1,3
240,1,127,NA,NA,NA,1,0.43725,NA,NA,S_Lure_127.bmp,0,1,3
241,1,144,NA,NA,NA,1,0.38512,NA,NA,S_Image_144.bmp,2,1,3
242,1,131,NA,NA,NA,2,1.0233,NA,NA,S_Image_131.bmp,2,0,3
243,1,83,NA,NA,NA,1,0.22852,NA,NA,O_Lure_83.bmp,0,0,2
244,1,138,NA,NA,NA,1,0.098706,NA,NA,S_Lure_138.bmp,0,0,3
245,1,79,NA,NA,NA,1,0.066752,NA,NA,O_Image_79.bmp,1,0,2
246,1,76,NA,NA,NA,1,0.11532,NA,NA,O_Image_76.bmp,1,1,2
247,1,12,NA,NA,NA,1,0.29144,NA,NA,F_Lure_12.bmp,0,1,1
248,1,28,NA,NA,NA,2,1.5895,NA,NA,F_Image_28.bmp,1,1,1
249,1,102,NA,NA,NA,2,0.060213,NA,NA,S_Lure_102.bmp,0,0,3
250,1,74,NA,NA,NA,1,0.055412,NA,NA,O_Lure_74.bmp,0,0,2
251,1,10,NA,NA,NA,1,0.21751,NA,NA,F_Lure_10.bmp,0,0,1
252,1,51,NA,NA,NA,1,0.2704,NA,NA,O_Image_51.bmp,2,0,2
253,1,80,NA,NA,NA,1,0.22633,NA,NA,O_Lure_80.bmp,0,0,2
254,1,29,NA,NA,NA,1,0.5252,NA,NA,F_Lure_29.bmp,0,1,1
255,1,85,NA,NA,NA,1,0.092567,NA,NA,O_Lure_85.bmp,0,1,2
256,1,27,NA,NA,NA,1,0.24591,NA,NA,F_Lure_27.bmp,0,0,1
257,1,21,NA,NA,NA,1,0.26518,NA,NA,F_Image_21.bmp,1,0,1
258,1,64,NA,NA,NA,1,0.16402,NA,NA,O_Lure_64.bmp,0,0,2
259,1,122,NA,NA,NA,2,0.19315,NA,NA,S_Image_122.bmp,1,0,3
260,1,80,NA,NA,NA,1,0.00011832,NA,NA,O_Image_80.bmp,2,0,2
261,1,65,NA,NA,NA,1,0.094529,NA,NA,O_Image_65.bmp,1,0,2
262,1,61,NA,NA,NA,1,0.30291,NA,NA,O_Lure_61.bmp,0,1,2
263,1,76,NA,NA,NA,1,0.16738,NA,NA,O_Lure_76.bmp,0,1,2
264,1,112,NA,NA,NA,1,0.26075,NA,NA,S_Lure_112.bmp,0,1,3
265,1,134,NA,NA,NA,1,0.25475,NA,NA,S_Image_134.bmp,1,1,3
266,1,1,NA,NA,NA,1,0.15278,NA,NA,F_Lure_1.bmp,0,0,1
267,1,96,NA,NA,NA,1,0.006199,NA,NA,O_Image_96.bmp,1,1,2
268,1,22,NA,NA,NA,1,0.55218,NA,NA,F_Image_22.bmp,2,1,1
269,1,57,NA,NA,NA,1,0.27028,NA,NA,O_Image_57.bmp,2,0,2
270,1,89,NA,NA,NA,1,0.3703,NA,NA,O_Lure_89.bmp,0,0,2
271,1,18,NA,NA,NA,1,0.36245,NA,NA,F_Lure_18.bmp,0,0,1
272,1,114,NA,NA,NA,1,0.00012376,NA,NA,S_Image_114.bmp,1,0,3
273,1,2,NA,NA,NA,1,0.2806,NA,NA,F_Lure_2.bmp,0,0,1
274,1,135,NA,NA,NA,1,0.55448,NA,NA,S_Image_135.bmp,2,0,3
275,1,44,NA,NA,NA,1,0.13859,NA,NA,F_Image_44.bmp,2,1,1
276,1,10,NA,NA,NA,1,0.083116,NA,NA,F_Image_10.bmp,2,0,1
277,1,34,NA,NA,NA,1,0.2766,NA,NA,F_Lure_34.bmp,0,1,1
278,1,37,NA,NA,NA,1,0.44663,NA,NA,F_Image_37.bmp,1,0,1
279,1,21,NA,NA,NA,1,0.088168,NA,NA,F_Lure_21.bmp,0,0,1
280,1,1,NA,NA,NA,1,0.28197,NA,NA,F_Image_1.bmp,1,0,1
281,1,129,NA,NA,NA,2,0.39532,NA,NA,S_Lure_129.bmp,0,1,3
282,1,95,NA,NA,NA,1,0.85553,NA,NA,O_Lure_95.bmp,0,0,2
283,1,116,NA,NA,NA,1,0.0095253,NA,NA,S_Lure_116.bmp,0,0,3
284,1,69,NA,NA,NA,1,0.14171,NA,NA,O_Lure_69.bmp,0,1,2
285,1,84,NA,NA,NA,1,0.59547,NA,NA,O_Image_84.bmp,2,1,2
286,1,109,NA,NA,NA,1,0.36757,NA,NA,S_Lure_109.bmp,0,0,3
287,1,121,NA,NA,NA,1,0.013672,NA,NA,S_Image_121.bmp,1,0,3
288,1,107,NA,NA,NA,1,0.47233,NA,NA,S_Image_107.bmp,2,0,3
289,2,73,flood,1,2,0,3.5,0,NA,O_Image_73.bmp-O_Lure_73.bmp,1,0,2
290,2,64,costume,1,1,1,1.5722,1,NA,O_Image_64.bmp-O_Lure_64.bmp,1,0,2
291,2,124,asphalt,1,2,1,0.94732,0,NA,S_Image_124.bmp-S_Lure_124.bmp,1,0,3
292,2,82,antique,1,1,1,0.69857,1,NA,O_Image_82.bmp-O_Lure_82.bmp,1,1,2
293,2,74,measles,1,2,1,1.2038,0,NA,O_Image_74.bmp-O_Lure_74.bmp,1,0,2
294,2,87,sand,1,1,1,0.92934,1,NA,O_Image_87.bmp-O_Lure_87.bmp,1,0,2
295,2,62,menu,1,2,2,1.4415,1,NA,O_Image_62.bmp-O_Lure_62.bmp,1,1,2
296,2,109,black,1,2,2,0.94969,1,NA,S_Image_109.bmp-S_Lure_109.bmp,1,0,3
297,2,92,alcohol,1,1,1,0.86901,1,NA,O_Image_92.bmp-O_Lure_92.bmp,1,0,2
298,2,66,paper,1,1,1,0.664,1,NA,O_Image_66.bmp-O_Lure_66.bmp,1,1,2
299,2,79,corner,1,1,1,0.3785,1,NA,O_Image_79.bmp-O_Lure_79.bmp,1,0,2
300,2,11,tube,1,1,1,0.8966,1,NA,F_Image_11.bmp-F_Lure_11.bmp,1,1,1
301,2,71,drizzle,1,1,1,0.77847,1,NA,O_Image_71.bmp-O_Lure_71.bmp,1,0,2
302,2,121,corpse,1,2,2,0.95228,1,NA,S_Image_121.bmp-S_Lure_121.bmp,1,0,3
303,2,25,magnet,1,2,2,0.91953,1,NA,F_Image_25.bmp-F_Lure_25.bmp,1,0,1
304,2,40,army,1,1,1,1.0162,1,NA,F_Image_40.bmp-F_Lure_40.bmp,1,1,1
305,2,28,money,1,1,1,0.8769,1,NA,F_Image_28.bmp-F_Lure_28.bmp,1,1,1
306,2,85,attack,1,2,2,0.62391,1,NA,O_Image_85.bmp-O_Lure_85.bmp,1,1,2
307,2,112,cone,1,2,2,0.94066,1,NA,S_Image_112.bmp-S_Lure_112.bmp,1,1,3
308,2,76,shell,1,1,1,1.1964,1,NA,O_Image_76.bmp-O_Lure_76.bmp,1,1,2
309,2,41,sunshine,1,1,2,1.8903,0,NA,F_Image_41.bmp-F_Lure_41.bmp,1,1,1
310,2,128,steam,1,2,2,1.3881,1,NA,S_Image_128.bmp-S_Lure_128.bmp,1,1,3
311,2,129,wreck,1,2,2,0.82626,1,NA,S_Image_129.bmp-S_Lure_129.bmp,1,1,3
312,2,97,water,1,2,2,0.93489,1,NA,S_Image_97.bmp-S_Lure_97.bmp,1,1,3
313,3,74,measles,1,2,2,0.89822,1,NA,O_Image_74.bmp-O_Lure_74.bmp,1,0,2
314,3,128,steam,1,2,2,0.76387,1,NA,S_Image_128.bmp-S_Lure_128.bmp,1,1,3
315,3,41,sunshine,1,2,2,1.0027,1,NA,F_Image_41.bmp-F_Lure_41.bmp,1,1,1
316,3,71,drizzle,1,2,2,0.69608,1,NA,O_Image_71.bmp-O_Lure_71.bmp,1,0,2
317,3,85,attack,1,1,1,0.96984,1,NA,O_Image_85.bmp-O_Lure_85.bmp,1,1,2
318,3,73,flood,1,2,1,1.0167,0,NA,O_Image_73.bmp-O_Lure_73.bmp,1,0,2
319,3,25,magnet,1,1,1,0.86134,1,NA,F_Image_25.bmp-F_Lure_25.bmp,1,0,1
320,3,124,asphalt,1,1,1,1.1675,1,NA,S_Image_124.bmp-S_Lure_124.bmp,1,0,3
321,3,129,wreck,1,1,1,1.7108,1,NA,S_Image_129.bmp-S_Lure_129.bmp,1,1,3
322,3,66,paper,1,2,2,0.79978,1,NA,O_Image_66.bmp-O_Lure_66.bmp,1,1,2
323,3,79,corner,1,1,1,0.58952,1,NA,O_Image_79.bmp-O_Lure_79.bmp,1,0,2
324,3,109,black,1,1,1,1.0115,1,NA,S_Image_109.bmp-S_Lure_109.bmp,1,0,3
325,3,82,antique,1,2,2,0.86424,1,NA,O_Image_82.bmp-O_Lure_82.bmp,1,1,2
326,3,40,army,1,1,1,0.61883,1,NA,F_Image_40.bmp-F_Lure_40.bmp,1,1,1
327,3,11,tube,1,2,2,1.2717,1,NA,F_Image_11.bmp-F_Lure_11.bmp,1,1,1
328,3,76,shell,1,1,2,0.61057,0,NA,O_Image_76.bmp-O_Lure_76.bmp,1,1,2
329,3,92,alcohol,1,1,1,0.62386,1,NA,O_Image_92.bmp-O_Lure_92.bmp,1,0,2
330,3,121,corpse,1,2,2,1.9409,1,NA,S_Image_121.bmp-S_Lure_121.bmp,1,0,3
331,3,62,menu,1,1,2,1.4286,0,NA,O_Image_62.bmp-O_Lure_62.bmp,1,1,2
332,3,28,money,1,1,1,0.76128,1,NA,F_Image_28.bmp-F_Lure_28.bmp,1,1,1
333,3,87,sand,1,1,1,1.1676,1,NA,O_Image_87.bmp-O_Lure_87.bmp,1,0,2
334,3,97,water,1,1,1,1.2463,1,NA,S_Image_97.bmp-S_Lure_97.bmp,1,1,3
335,3,64,costume,1,2,2,0.93814,1,NA,O_Image_64.bmp-O_Lure_64.bmp,1,0,2
336,3,112,cone,1,2,2,1.05,1,NA,S_Image_112.bmp-S_Lure_112.bmp,1,1,3
337,2,65,sweat,2,1,1,0.66978,1,NA,O_Image_65.bmp-O_Lure_65.bmp,1,0,2
338,2,21,tail,2,1,1,0.65657,1,NA,F_Image_21.bmp-F_Lure_21.bmp,1,0,1
339,2,86,shadow,2,2,2,0.91552,1,NA,O_Image_86.bmp-O_Lure_86.bmp,1,0,2
340,2,69,wound,2,2,2,0.90858,1,NA,O_Image_69.bmp-O_Lure_69.bmp,1,1,2
341,2,100,tear,2,1,1,0.70191,1,NA,S_Image_100.bmp-S_Lure_100.bmp,1,0,3
342,2,1,lever,2,2,2,1.5192,1,NA,F_Image_1.bmp-F_Lure_1.bmp,1,0,1
343,2,142,vegetable,2,2,2,0.98385,1,NA,S_Image_142.bmp-S_Lure_142.bmp,1,1,3
344,2,7,crumb,2,1,1,0.82241,1,NA,F_Image_7.bmp-F_Lure_7.bmp,1,1,1
345,2,20,rust,2,2,2,1.011,1,NA,F_Image_20.bmp-F_Lure_20.bmp,1,0,1
346,2,14,triangle,2,1,1,1.128,1,NA,F_Image_14.bmp-F_Lure_14.bmp,1,1,1
347,2,38,breakfast,2,1,1,1.1519,1,NA,F_Image_38.bmp-F_Lure_38.bmp,1,1,1
348,2,9,arrow,2,1,2,0.8871,0,NA,F_Image_9.bmp-F_Lure_9.bmp,1,1,1
349,2,43,hurricane,2,1,1,1.4094,1,NA,F_Image_43.bmp-F_Lure_43.bmp,1,1,1
350,2,17,scar,2,2,2,1.375,1,NA,F_Image_17.bmp-F_Lure_17.bmp,1,0,1
351,2,133,signal,2,1,1,0.82977,1,NA,S_Image_133.bmp-S_Lure_133.bmp,1,1,3
352,2,111,laundry,2,1,1,0.76153,1,NA,S_Image_111.bmp-S_Lure_111.bmp,1,0,3
353,2,140,yellow,2,1,1,2.1601,1,NA,S_Image_140.bmp-S_Lure_140.bmp,1,0,3
354,2,37,honeymoon,2,1,1,1.7519,1,NA,F_Image_37.bmp-F_Lure_37.bmp,1,0,1
355,2,96,spray,2,2,2,0.73515,1,NA,O_Image_96.bmp-O_Lure_96.bmp,1,1,2
356,2,139,rock,2,1,1,0.93541,1,NA,S_Image_139.bmp-S_Lure_139.bmp,1,1,3
357,2,122,stem,2,2,2,1.0953,1,NA,S_Image_122.bmp-S_Lure_122.bmp,1,0,3
358,2,48,arch,2,1,1,1.1771,1,NA,F_Image_48.bmp-F_Lure_48.bmp,1,0,1
359,2,101,bubble,2,2,2,0.82355,1,NA,S_Image_101.bmp-S_Lure_101.bmp,1,0,3
360,2,60,seed,2,1,1,1.2049,1,NA,O_Image_60.bmp-O_Lure_60.bmp,1,1,2
361,3,69,wound,2,1,1,0.5491,1,NA,O_Image_69.bmp-O_Lure_69.bmp,1,1,2
362,3,43,hurricane,2,1,1,0.96462,1,NA,F_Image_43.bmp-F_Lure_43.bmp,1,1,1
363,3,20,rust,2,1,1,0.77951,1,NA,F_Image_20.bmp-F_Lure_20.bmp,1,0,1
364,3,17,scar,2,1,1,1.3696,1,NA,F_Image_17.bmp-F_Lure_17.bmp,1,0,1
365,3,101,bubble,2,2,2,1.1519,1,NA,S_Image_101.bmp-S_Lure_101.bmp,1,0,3
366,3,96,spray,2,1,1,0.92771,1,NA,O_Image_96.bmp-O_Lure_96.bmp,1,1,2
367,3,60,seed,2,2,2,0.63163,1,NA,O_Image_60.bmp-O_Lure_60.bmp,1,1,2
368,3,100,tear,2,2,2,0.98771,1,NA,S_Image_100.bmp-S_Lure_100.bmp,1,0,3
369,3,86,shadow,2,1,1,0.85772,1,NA,O_Image_86.bmp-O_Lure_86.bmp,1,0,2
370,3,122,stem,2,2,2,1.1173,1,NA,S_Image_122.bmp-S_Lure_122.bmp,1,0,3
371,3,7,crumb,2,1,1,1.3102,1,NA,F_Image_7.bmp-F_Lure_7.bmp,1,1,1
372,3,111,laundry,2,1,1,1.0557,1,NA,S_Image_111.bmp-S_Lure_111.bmp,1,0,3
373,3,9,arrow,2,2,2,1.2351,1,NA,F_Image_9.bmp-F_Lure_9.bmp,1,1,1
374,3,37,honeymoon,2,2,2,1.823,1,NA,F_Image_37.bmp-F_Lure_37.bmp,1,0,1
375,3,142,vegetable,2,2,2,1.0357,1,NA,S_Image_142.bmp-S_Lure_142.bmp,1,1,3
376,3,140,yellow,2,1,1,1.5677,1,NA,S_Image_140.bmp-S_Lure_140.bmp,1,0,3
377,3,65,sweat,2,2,2,2.0463,1,NA,O_Image_65.bmp-O_Lure_65.bmp,1,0,2
378,3,133,signal,2,2,2,1.0662,1,NA,S_Image_133.bmp-S_Lure_133.bmp,1,1,3
379,3,21,tail,2,1,1,1.8526,1,NA,F_Image_21.bmp-F_Lure_21.bmp,1,0,1
380,3,38,breakfast,2,1,1,2.945,1,NA,F_Image_38.bmp-F_Lure_38.bmp,1,1,1
381,3,14,triangle,2,1,1,1.8235,1,NA,F_Image_14.bmp-F_Lure_14.bmp,1,1,1
382,3,1,lever,2,1,1,1.2526,1,NA,F_Image_1.bmp-F_Lure_1.bmp,1,0,1
383,3,48,arch,2,2,1,1.0323,0,NA,F_Image_48.bmp-F_Lure_48.bmp,1,0,1
384,3,139,rock,2,2,2,1.3719,1,NA,S_Image_139.bmp-S_Lure_139.bmp,1,1,3
385,2,24,board,3,1,2,1.3307,0,NA,F_Image_24.bmp-F_Lure_24.bmp,1,0,1
386,2,16,galaxy,3,2,2,0.9069,1,NA,F_Image_16.bmp-F_Lure_16.bmp,1,1,1
387,2,125,giant,3,1,1,1.3004,1,NA,S_Image_125.bmp-S_Lure_125.bmp,1,1,3
388,2,81,orchestra,3,2,2,0.44577,1,NA,O_Image_81.bmp-O_Lure_81.bmp,1,1,2
389,2,27,witch,3,1,1,1.0731,1,NA,F_Image_27.bmp-F_Lure_27.bmp,1,0,1
390,2,75,fire,3,2,2,0.74014,1,NA,O_Image_75.bmp-O_Lure_75.bmp,1,1,2
391,2,114,poison,3,2,2,0.77258,1,NA,S_Image_114.bmp-S_Lure_114.bmp,1,0,3
392,2,3,tourist,3,2,2,1.0427,1,NA,F_Image_3.bmp-F_Lure_3.bmp,1,1,1
393,2,106,stripe,3,2,2,0.82283,1,NA,S_Image_106.bmp-S_Lure_106.bmp,1,0,3
394,2,110,spike,3,2,2,0.77992,1,NA,S_Image_110.bmp-S_Lure_110.bmp,1,1,3
395,2,45,alien,3,2,2,1.13,1,NA,F_Image_45.bmp-F_Lure_45.bmp,1,0,1
396,2,59,angel,3,1,2,0.63389,0,NA,O_Image_59.bmp-O_Lure_59.bmp,1,0,2
397,2,68,fuel,3,1,1,0.6382,1,NA,O_Image_68.bmp-O_Lure_68.bmp,1,1,2
398,2,134,ghost,3,1,1,0.9222,1,NA,S_Image_134.bmp-S_Lure_134.bmp,1,1,3
399,2,126,hostage,3,1,1,0.78711,1,NA,S_Image_126.bmp-S_Lure_126.bmp,1,1,3
400,2,83,animal,3,2,2,0.65693,1,NA,O_Image_83.bmp-O_Lure_83.bmp,1,0,2
401,2,26,harem,3,1,1,0.79634,1,NA,F_Image_26.bmp-F_Lure_26.bmp,1,0,1
402,2,32,quake,3,1,1,1.1541,1,NA,F_Image_32.bmp-F_Lure_32.bmp,1,0,1
403,2,117,wool,3,1,1,1.3371,1,NA,S_Image_117.bmp-S_Lure_117.bmp,1,1,3
404,2,19,slope,3,1,1,1.4495,1,NA,F_Image_19.bmp-F_Lure_19.bmp,1,0,1
405,2,141,cloud,3,2,2,0.78081,1,NA,S_Image_141.bmp-S_Lure_141.bmp,1,1,3
406,2,89,marble,3,2,1,0.86723,0,NA,O_Image_89.bmp-O_Lure_89.bmp,1,0,2
407,2,72,snow,3,1,1,0.66996,1,NA,O_Image_72.bmp-O_Lure_72.bmp,1,1,2
408,2,115,kiss,3,2,2,1.3126,1,NA,S_Image_115.bmp-S_Lure_115.bmp,1,0,3
409,3,114,poison,3,2,2,0.91677,1,NA,S_Image_114.bmp-S_Lure_114.bmp,1,0,3
410,3,83,animal,3,1,1,0.7732,1,NA,O_Image_83.bmp-O_Lure_83.bmp,1,0,2
411,3,32,quake,3,1,1,1.1165,1,NA,F_Image_32.bmp-F_Lure_32.bmp,1,0,1
412,3,141,cloud,3,1,1,1.0293,1,NA,S_Image_141.bmp-S_Lure_141.bmp,1,1,3
413,3,81,orchestra,3,2,2,0.86503,1,NA,O_Image_81.bmp-O_Lure_81.bmp,1,1,2
414,3,45,alien,3,2,2,0.62798,1,NA,F_Image_45.bmp-F_Lure_45.bmp,1,0,1
415,3,125,giant,3,2,2,1.1916,1,NA,S_Image_125.bmp-S_Lure_125.bmp,1,1,3
416,3,75,fire,3,2,2,0.72604,1,NA,O_Image_75.bmp-O_Lure_75.bmp,1,1,2
417,3,89,marble,3,1,2,1.2064,0,NA,O_Image_89.bmp-O_Lure_89.bmp,1,0,2
418,3,59,angel,3,2,2,1.0759,1,NA,O_Image_59.bmp-O_Lure_59.bmp,1,0,2
419,3,27,witch,3,2,2,0.72705,1,NA,F_Image_27.bmp-F_Lure_27.bmp,1,0,1
420,3,72,snow,3,2,2,0.49558,1,NA,O_Image_72.bmp-O_Lure_72.bmp,1,1,2
421,3,16,galaxy,3,1,1,1.4891,1,NA,F_Image_16.bmp-F_Lure_16.bmp,1,1,1
422,3,106,stripe,3,1,1,1.0432,1,NA,S_Image_106.bmp-S_Lure_106.bmp,1,0,3
423,3,19,slope,3,2,2,1.2553,1,NA,F_Image_19.bmp-F_Lure_19.bmp,1,0,1
424,3,3,tourist,3,1,1,0.83488,1,NA,F_Image_3.bmp-F_Lure_3.bmp,1,1,1
425,3,68,fuel,3,2,2,0.64652,1,NA,O_Image_68.bmp-O_Lure_68.bmp,1,1,2
426,3,26,harem,3,2,2,1.8903,1,NA,F_Image_26.bmp-F_Lure_26.bmp,1,0,1
427,3,126,hostage,3,2,1,1.2444,0,NA,S_Image_126.bmp-S_Lure_126.bmp,1,1,3
428,3,117,wool,3,2,2,1.0396,1,NA,S_Image_117.bmp-S_Lure_117.bmp,1,1,3
429,3,24,board,3,2,2,1.1318,1,NA,F_Image_24.bmp-F_Lure_24.bmp,1,0,1
430,3,115,kiss,3,1,2,1.8437,0,NA,S_Image_115.bmp-S_Lure_115.bmp,1,0,3
431,3,134,ghost,3,1,1,0.97619,1,NA,S_Image_134.bmp-S_Lure_134.bmp,1,1,3
432,3,110,spike,3,2,2,1.1425,1,NA,S_Image_110.bmp-S_Lure_110.bmp,1,1,3
433,4,5,yellow,1,2,2,0.82857,1,NA,F_Image_5.bmp-F_Lure_5.bmp,2,0,1
434,4,99,seed,1,1,1,1.1845,1,NA,S_Image_99.bmp-S_Lure_99.bmp,2,1,3
435,4,132,orchestra,1,2,2,0.67049,1,NA,S_Image_132.bmp-S_Lure_132.bmp,2,1,3
436,4,57,black,1,1,1,0.56125,1,NA,O_Image_57.bmp-O_Lure_57.bmp,2,0,2
437,4,31,sand,1,2,2,0.97605,1,NA,F_Image_31.bmp-F_Lure_31.bmp,2,0,1
438,4,95,rust,1,1,1,0.53529,1,NA,O_Image_95.bmp-O_Lure_95.bmp,2,0,2
439,4,2,measles,1,1,1,0.8552,1,NA,F_Image_2.bmp-F_Lure_2.bmp,2,0,1
440,4,107,alcohol,1,1,1,1.1142,1,NA,S_Image_107.bmp-S_Lure_107.bmp,2,0,3
441,4,56,stripe,1,2,2,0.66734,1,NA,O_Image_56.bmp-O_Lure_56.bmp,2,0,2
442,4,23,snow,1,2,2,1.3579,1,NA,F_Image_23.bmp-F_Lure_23.bmp,2,1,1
443,4,98,tourist,1,2,2,0.71751,1,NA,S_Image_98.bmp-S_Lure_98.bmp,2,1,3
444,4,119,animal,1,2,2,1.0461,1,NA,S_Image_119.bmp-S_Lure_119.bmp,2,0,3
445,4,91,water,1,2,2,0.53759,1,NA,O_Image_91.bmp-O_Lure_91.bmp,2,1,2
446,4,47,cone,1,2,2,1.5621,1,NA,F_Image_47.bmp-F_Lure_47.bmp,2,1,1
447,4,84,cloud,1,2,2,0.93656,1,NA,O_Image_84.bmp-O_Lure_84.bmp,2,1,2
448,4,144,arrow,1,2,2,0.71276,1,NA,S_Image_144.bmp-S_Lure_144.bmp,2,1,3
449,4,13,poison,1,1,1,0.94534,1,NA,F_Image_13.bmp-F_Lure_13.bmp,2,0,1
450,4,4,steam,1,1,2,1.1928,0,NA,F_Image_4.bmp-F_Lure_4.bmp,2,1,1
451,4,44,rock,1,1,1,1.4549,1,NA,F_Image_44.bmp-F_Lure_44.bmp,2,1,1
452,4,77,tube,1,2,2,0.45037,1,NA,O_Image_77.bmp-O_Lure_77.bmp,2,1,2
453,4,113,angel,1,1,1,1.0535,1,NA,S_Image_113.bmp-S_Lure_113.bmp,2,0,3
454,4,18,kiss,1,1,1,0.91323,1,NA,F_Image_18.bmp-F_Lure_18.bmp,2,0,1
455,4,49,witch,1,1,1,0.46573,1,NA,O_Image_49.bmp-O_Lure_49.bmp,2,0,2
456,4,143,paper,1,2,2,0.62899,1,NA,S_Image_143.bmp-S_Lure_143.bmp,2,1,3
457,4,137,scar,2,2,2,1.6165,1,NA,S_Image_137.bmp-S_Lure_137.bmp,2,0,3
458,4,63,galaxy,2,1,1,1.1254,1,NA,O_Image_63.bmp-O_Lure_63.bmp,2,1,2
459,4,127,crumb,2,2,2,0.9024,1,NA,S_Image_127.bmp-S_Lure_127.bmp,2,1,3
460,4,36,fire,2,2,2,1.3997,1,NA,F_Image_36.bmp-F_Lure_36.bmp,2,1,1
461,4,120,sweat,2,2,2,0.58138,1,NA,S_Image_120.bmp-S_Lure_120.bmp,2,0,3
462,4,33,fuel,2,2,2,1.1793,1,NA,F_Image_33.bmp-F_Lure_33.bmp,2,1,1
463,4,70,breakfast,2,2,2,0.51357,1,NA,O_Image_70.bmp-O_Lure_70.bmp,2,1,2
464,4,135,harem,2,2,2,0.64202,1,NA,S_Image_135.bmp-S_Lure_135.bmp,2,0,3
465,4,51,alien,2,1,1,0.80601,1,NA,O_Image_51.bmp-O_Lure_51.bmp,2,0,2
466,4,78,army,2,2,2,0.97191,1,NA,O_Image_78.bmp-O_Lure_78.bmp,2,1,2
467,4,116,marble,2,2,2,0.87468,1,NA,S_Image_116.bmp-S_Lure_116.bmp,2,0,3
468,4,103,attack,2,2,2,0.97324,1,NA,S_Image_103.bmp-S_Lure_103.bmp,2,1,3
469,4,80,laundry,2,1,1,0.91614,1,NA,O_Image_80.bmp-O_Lure_80.bmp,2,0,2
470,4,118,hurricane,2,1,1,1.6847,1,NA,S_Image_118.bmp-S_Lure_118.bmp,2,1,3
471,4,105,shell,2,1,2,1.4791,0,NA,S_Image_105.bmp-S_Lure_105.bmp,2,1,3
472,4,15,spray,2,2,2,0.849,1,NA,F_Image_15.bmp-F_Lure_15.bmp,2,1,1
473,4,22,signal,2,1,2,1.0362,0,NA,F_Image_22.bmp-F_Lure_22.bmp,2,1,1
474,4,136,menu,2,2,2,0.63243,1,NA,S_Image_136.bmp-S_Lure_136.bmp,2,1,3
475,4,58,tail,2,1,1,0.65275,1,NA,O_Image_58.bmp-O_Lure_58.bmp,2,0,2
476,4,108,money,2,2,2,1.0479,1,NA,S_Image_108.bmp-S_Lure_108.bmp,2,1,3
477,4,29,wreck,2,1,1,0.75567,1,NA,F_Image_29.bmp-F_Lure_29.bmp,2,1,1
478,4,104,antique,2,1,1,0.69089,1,NA,S_Image_104.bmp-S_Lure_104.bmp,2,1,3
479,4,55,quake,2,2,1,0.68474,0,NA,O_Image_55.bmp-O_Lure_55.bmp,2,0,2
480,4,8,flood,2,1,1,0.92693,1,NA,F_Image_8.bmp-F_Lure_8.bmp,2,0,1
481,4,94,bubble,3,2,2,1.8236,1,NA,O_Image_94.bmp-O_Lure_94.bmp,2,0,2
482,4,90,stem,3,1,1,1.2047,1,NA,O_Image_90.bmp-O_Lure_90.bmp,2,0,2
483,4,131,lever,3,1,1,0.85046,1,NA,S_Image_131.bmp-S_Lure_131.bmp,2,0,3
484,4,102,arch,3,1,1,0.50165,1,NA,S_Image_102.bmp-S_Lure_102.bmp,2,0,3
485,4,54,board,3,2,2,1.0708,1,NA,O_Image_54.bmp-O_Lure_54.bmp,2,0,2
486,4,61,ghost,3,2,2,0.81793,1,NA,O_Image_61.bmp-O_Lure_61.bmp,2,1,2
487,4,67,giant,3,1,1,0.61457,1,NA,O_Image_67.bmp-O_Lure_67.bmp,2,1,2
488,4,123,sunshine,3,2,2,0.72323,1,NA,S_Image_123.bmp-S_Lure_123.bmp,2,1,3
489,4,30,spike,3,1,1,1.148,1,NA,F_Image_30.bmp-F_Lure_30.bmp,2,1,1
490,4,10,tear,3,2,1,1.1715,0,NA,F_Image_10.bmp-F_Lure_10.bmp,2,0,1
491,4,39,drizzle,3,2,2,0.67445,1,NA,F_Image_39.bmp-F_Lure_39.bmp,2,0,1
492,4,138,corner,3,2,2,1.4367,1,NA,S_Image_138.bmp-S_Lure_138.bmp,2,0,3
493,4,42,wound,3,1,2,1.1534,0,NA,F_Image_42.bmp-F_Lure_42.bmp,2,1,1
494,4,50,corpse,3,2,2,0.62462,1,NA,O_Image_50.bmp-O_Lure_50.bmp,2,0,2
495,4,34,vegetable,3,1,1,0.86913,1,NA,F_Image_34.bmp-F_Lure_34.bmp,2,1,1
496,4,35,shadow,3,2,2,0.87206,1,NA,F_Image_35.bmp-F_Lure_35.bmp,2,0,1
497,4,88,magnet,3,1,2,0.85053,0,NA,O_Image_88.bmp-O_Lure_88.bmp,2,0,2
498,4,6,wool,3,1,1,0.67033,1,NA,F_Image_6.bmp-F_Lure_6.bmp,2,1,1
499,4,93,honeymoon,3,1,1,0.72893,1,NA,O_Image_93.bmp-O_Lure_93.bmp,2,0,2
500,4,52,triangle,3,2,1,0.56134,0,NA,O_Image_52.bmp-O_Lure_52.bmp,2,1,2
501,4,12,hostage,3,2,2,1.2476,1,NA,F_Image_12.bmp-F_Lure_12.bmp,2,1,1
502,4,46,asphalt,3,1,1,1.1149,1,NA,F_Image_46.bmp-F_Lure_46.bmp,2,0,1
503,4,53,slope,3,2,2,0.68381,1,NA,O_Image_53.bmp-O_Lure_53.bmp,2,0,2
504,4,130,costume,3,1,1,1.1178,1,NA,S_Image_130.bmp-S_Lure_130.bmp,2,0,3
