Trial,Cond,ImageNum,Cue,Block,Correct,Response,RT,Accuracy,CueRep,fName,ImageType,Baseline,Category
1,5,7.13,rock,NA,1,0,2.5002,0,1,F_Image_6.bmp-S_Lure_113.bmp,NA,0,1.3
2,5,8.07,lever,NA,1,4,1.5741,0,1,F_Image_7.bmp-S_Lure_107.bmp,NA,0,1.3
3,5,70.37,costume,NA,2,4,2.1846,0,1,O_Image_69.bmp-S_Lure_137.bmp,NA,0,2.3
4,5,144.78,giant,NA,3,1,1.2875,0,1,S_Image_144.bmp-O_Lure_78.bmp,NA,0,3.2
5,5,14.63,honeymoon,NA,1,1,0.62633,1,1,F_Image_14.bmp-O_Lure_63.bmp,NA,0,1.2
6,5,7.13,rock,NA,1,1,1.2945,1,2,F_Image_6.bmp-S_Lure_113.bmp,NA,0,1.3
7,5,26.55,flood,NA,1,4,0.00032763,0,1,F_Image_26.bmp-O_Lure_55.bmp,NA,0,1.2
8,5,132.77,fuel,NA,3,3,0.58337,1,1,S_Image_132.bmp-O_Lure_77.bmp,NA,0,3.2
9,5,8.73,tear,NA,1,1,0.41892,1,1,F_Image_8.bmp-O_Lure_73.bmp,NA,0,1.2
10,5,8.73,tear,NA,1,1,0.52261,1,2,F_Image_8.bmp-O_Lure_73.bmp,NA,0,1.2
11,5,7.13,rock,NA,1,3,0.47974,0,3,F_Image_6.bmp-S_Lure_113.bmp,NA,0,1.3
12,5,100.23,snow,NA,3,3,0.52072,1,1,S_Image_100.bmp-F_Lure_23.bmp,NA,0,3.1
13,5,141.19,corpse,NA,3,1,0.32678,0,1,S_Image_141.bmp-F_Lure_19.bmp,NA,0,3.1
14,5,112.83,corner,NA,3,2,0.29734,0,1,S_Image_112.bmp-O_Lure_83.bmp,NA,0,3.2
15,5,14.63,honeymoon,NA,1,1,0.4323,1,2,F_Image_14.bmp-O_Lure_63.bmp,NA,0,1.2
16,5,118.28,animal,NA,3,1,0.27044,0,1,S_Image_118.bmp-F_Lure_28.bmp,NA,0,3.1
17,5,142.16,water,NA,3,4,0.44854,0,1,S_Image_142.bmp-F_Lure_16.bmp,NA,0,3.1
18,5,70.24,stem,NA,2,2,0.30316,1,1,O_Image_70.bmp-F_Lure_24.bmp,NA,0,2.1
19,5,112.83,corner,NA,3,3,0.70958,1,2,S_Image_112.bmp-O_Lure_83.bmp,NA,0,3.2
20,5,128.9,spike,NA,3,3,0.49922,1,1,S_Image_128.bmp-O_Lure_90.bmp,NA,0,3.2
21,5,82.39,shell,NA,2,4,0.6892,0,1,O_Image_81.bmp-S_Lure_139.bmp,NA,0,2.3
22,5,133.44,wool,NA,3,0,2.5005,0,1,S_Image_133.bmp-F_Lure_44.bmp,NA,0,3.1
23,5,34.17,measles,NA,1,3,0.42393,0,1,F_Image_33.bmp-S_Lure_117.bmp,NA,0,1.3
24,5,121.82,vegetable,NA,3,2,0.35042,0,1,S_Image_121.bmp-O_Lure_82.bmp,NA,0,3.2
25,5,144.78,giant,NA,3,2,0.36556,0,2,S_Image_144.bmp-O_Lure_78.bmp,NA,0,3.2
26,5,4.86,magnet,NA,1,1,0.44386,1,1,F_Image_4.bmp-O_Lure_86.bmp,NA,0,1.2
27,5,95.1,ghost,NA,2,1,0.62284,0,1,O_Image_95.bmp-F_Lure_10.bmp,NA,0,2.1
28,5,14.63,honeymoon,NA,1,2,0.54509,0,3,F_Image_14.bmp-O_Lure_63.bmp,NA,0,1.2
29,5,70.24,stem,NA,2,2,0.31758,1,2,O_Image_70.bmp-F_Lure_24.bmp,NA,0,2.1
30,5,5.84,marble,NA,1,2,0.29311,0,1,F_Image_5.bmp-O_Lure_84.bmp,NA,0,1.2
31,5,140.42,arch,NA,3,4,0.44163,0,1,S_Image_140.bmp-F_Lure_42.bmp,NA,0,3.1
32,5,74.17,asphalt,NA,2,2,0.37232,1,1,O_Image_74.bmp-F_Lure_17.bmp,NA,0,2.1
33,5,18.59,slope,NA,1,3,0.49334,0,1,F_Image_18.bmp-O_Lure_59.bmp,NA,0,1.2
34,5,58.2,harem,NA,2,2,0.24841,1,1,O_Image_58.bmp-F_Lure_20.bmp,NA,0,2.1
35,5,46.19,seed,NA,1,1,0.31067,1,1,F_Image_45.bmp-S_Lure_119.bmp,NA,0,1.3
36,5,34.17,measles,NA,1,1,0.9659,1,2,F_Image_33.bmp-S_Lure_117.bmp,NA,0,1.3
37,5,18.59,slope,NA,1,3,0.32195,0,2,F_Image_18.bmp-O_Lure_59.bmp,NA,0,1.2
38,5,95.1,ghost,NA,2,1,1.0346,0,2,O_Image_95.bmp-F_Lure_10.bmp,NA,0,2.1
39,5,108.5,arrow,NA,3,3,0.56663,1,1,S_Image_108.bmp-O_Lure_50.bmp,NA,0,3.2
40,5,80.22,tail,NA,2,2,0.37806,1,1,O_Image_79.bmp-S_Lure_122.bmp,NA,0,2.3
41,5,136.72,orchestra,NA,3,3,0.51372,1,1,S_Image_136.bmp-O_Lure_72.bmp,NA,0,3.2
42,5,5.84,marble,NA,1,1,0.31278,1,2,F_Image_5.bmp-O_Lure_84.bmp,NA,0,1.2
43,5,46.19,seed,NA,1,1,0.43396,1,2,F_Image_45.bmp-S_Lure_119.bmp,NA,0,1.3
44,5,91.31,yellow,NA,2,2,0.54431,1,1,O_Image_91.bmp-F_Lure_31.bmp,NA,0,2.1
45,5,135.37,antique,NA,3,1,0.66942,0,1,S_Image_135.bmp-F_Lure_37.bmp,NA,0,3.1
46,5,54.05,cloud,NA,2,2,0.27456,1,1,O_Image_53.bmp-S_Lure_105.bmp,NA,0,2.3
47,5,8.73,tear,NA,1,1,0.4507,1,3,F_Image_8.bmp-O_Lure_73.bmp,NA,0,1.2
48,5,136.72,orchestra,NA,3,3,0.29938,1,2,S_Image_136.bmp-O_Lure_72.bmp,NA,0,3.2
49,5,46.19,seed,NA,1,3,0.45183,0,3,F_Image_45.bmp-S_Lure_119.bmp,NA,0,1.3
50,5,18.59,slope,NA,1,1,0.49435,1,3,F_Image_18.bmp-O_Lure_59.bmp,NA,0,1.2
51,5,121.82,vegetable,NA,3,4,0.60546,0,2,S_Image_121.bmp-O_Lure_82.bmp,NA,0,3.2
52,5,70.24,stem,NA,2,2,0.33731,1,3,O_Image_70.bmp-F_Lure_24.bmp,NA,0,2.1
53,5,58.2,harem,NA,2,2,0.37612,1,2,O_Image_58.bmp-F_Lure_20.bmp,NA,0,2.1
54,5,100.23,snow,NA,3,3,0.51362,1,2,S_Image_100.bmp-F_Lure_23.bmp,NA,0,3.1
55,5,140.42,arch,NA,3,3,0.47439,1,2,S_Image_140.bmp-F_Lure_42.bmp,NA,0,3.1
56,5,74.17,asphalt,NA,2,2,0.31835,1,2,O_Image_74.bmp-F_Lure_17.bmp,NA,0,2.1
57,5,8.07,lever,NA,1,3,1.1762,0,2,F_Image_7.bmp-S_Lure_107.bmp,NA,0,1.3
58,5,58.2,harem,NA,2,2,0.42041,1,3,O_Image_58.bmp-F_Lure_20.bmp,NA,0,2.1
59,5,70.37,costume,NA,2,2,0.27487,1,2,O_Image_69.bmp-S_Lure_137.bmp,NA,0,2.3
60,5,74.17,asphalt,NA,2,2,0.57808,1,3,O_Image_74.bmp-F_Lure_17.bmp,NA,0,2.1
61,5,108.5,arrow,NA,3,1,0.74065,0,2,S_Image_108.bmp-O_Lure_50.bmp,NA,0,3.2
62,5,118.28,animal,NA,3,3,0.67133,1,2,S_Image_118.bmp-F_Lure_28.bmp,NA,0,3.1
63,5,54.05,cloud,NA,2,2,0.30487,1,2,O_Image_53.bmp-S_Lure_105.bmp,NA,0,2.3
64,5,18.59,slope,NA,1,1,0.69743,1,4,F_Image_18.bmp-O_Lure_59.bmp,NA,0,1.2
65,5,100.23,snow,NA,3,3,0.58418,1,3,S_Image_100.bmp-F_Lure_23.bmp,NA,0,3.1
66,5,141.19,corpse,NA,3,1,0.75091,0,2,S_Image_141.bmp-F_Lure_19.bmp,NA,0,3.1
67,5,46.19,seed,NA,1,1,0.42686,1,4,F_Image_45.bmp-S_Lure_119.bmp,NA,0,1.3
68,5,141.19,corpse,NA,3,3,0.35089,1,3,S_Image_141.bmp-F_Lure_19.bmp,NA,0,3.1
69,5,144.78,giant,NA,3,4,1.0638,0,3,S_Image_144.bmp-O_Lure_78.bmp,NA,0,3.2
70,5,54.05,cloud,NA,2,2,1.6506,1,3,O_Image_53.bmp-S_Lure_105.bmp,NA,0,2.3
71,5,91.31,yellow,NA,2,2,0.53841,1,2,O_Image_91.bmp-F_Lure_31.bmp,NA,0,2.1
72,5,95.1,ghost,NA,2,1,0.53191,0,3,O_Image_95.bmp-F_Lure_10.bmp,NA,0,2.1
73,5,26.55,flood,NA,1,2,0.42664,0,2,F_Image_26.bmp-O_Lure_55.bmp,NA,0,1.2
74,5,34.17,measles,NA,1,1,0.33819,1,3,F_Image_33.bmp-S_Lure_117.bmp,NA,0,1.3
75,5,108.5,arrow,NA,3,1,0.41779,0,3,S_Image_108.bmp-O_Lure_50.bmp,NA,0,3.2
76,5,141.19,corpse,NA,3,3,0.34274,1,4,S_Image_141.bmp-F_Lure_19.bmp,NA,0,3.1
77,5,34.17,measles,NA,1,3,0.32741,0,4,F_Image_33.bmp-S_Lure_117.bmp,NA,0,1.3
78,5,91.31,yellow,NA,2,2,0.50779,1,3,O_Image_91.bmp-F_Lure_31.bmp,NA,0,2.1
79,5,70.37,costume,NA,2,2,0.29089,1,3,O_Image_69.bmp-S_Lure_137.bmp,NA,0,2.3
80,5,111.56,angel,NA,3,3,0.86726,1,1,S_Image_111.bmp-O_Lure_56.bmp,NA,0,3.2
81,5,121.82,vegetable,NA,3,3,0.50086,1,3,S_Image_121.bmp-O_Lure_82.bmp,NA,0,3.2
82,5,38.88,kiss,NA,1,2,1.1851,0,1,F_Image_38.bmp-O_Lure_88.bmp,NA,0,1.2
83,5,95.1,ghost,NA,2,1,0.40149,0,4,O_Image_95.bmp-F_Lure_10.bmp,NA,0,2.1
84,5,4.86,magnet,NA,1,1,0.564,1,2,F_Image_4.bmp-O_Lure_86.bmp,NA,0,1.2
85,5,38.88,kiss,NA,1,4,1.2521,0,2,F_Image_38.bmp-O_Lure_88.bmp,NA,0,1.2
86,5,80.22,tail,NA,2,2,0.4155,1,2,O_Image_79.bmp-S_Lure_122.bmp,NA,0,2.3
87,5,58.2,harem,NA,2,2,0.36747,1,4,O_Image_58.bmp-F_Lure_20.bmp,NA,0,2.1
88,5,8.07,lever,NA,1,3,0.90895,0,3,F_Image_7.bmp-S_Lure_107.bmp,NA,0,1.3
89,5,54.05,cloud,NA,2,2,0.44767,1,4,O_Image_53.bmp-S_Lure_105.bmp,NA,0,2.3
90,5,111.56,angel,NA,3,3,0.32728,1,2,S_Image_111.bmp-O_Lure_56.bmp,NA,0,3.2
91,5,135.37,antique,NA,3,3,0.36397,1,2,S_Image_135.bmp-F_Lure_37.bmp,NA,0,3.1
92,5,7.13,rock,NA,1,3,0.32467,0,4,F_Image_6.bmp-S_Lure_113.bmp,NA,0,1.3
93,5,4.86,magnet,NA,1,1,0.3398,1,3,F_Image_4.bmp-O_Lure_86.bmp,NA,0,1.2
94,5,136.72,orchestra,NA,3,3,0.32769,1,3,S_Image_136.bmp-O_Lure_72.bmp,NA,0,3.2
95,5,108.5,arrow,NA,3,2,1.3925,0,4,S_Image_108.bmp-O_Lure_50.bmp,NA,0,3.2
96,5,80.22,tail,NA,2,2,0.36278,1,3,O_Image_79.bmp-S_Lure_122.bmp,NA,0,2.3
97,5,112.83,corner,NA,3,2,0.63943,0,3,S_Image_112.bmp-O_Lure_83.bmp,NA,0,3.2
98,5,4.86,magnet,NA,1,1,0.55992,1,4,F_Image_4.bmp-O_Lure_86.bmp,NA,0,1.2
99,5,5.84,marble,NA,1,1,0.46899,1,3,F_Image_5.bmp-O_Lure_84.bmp,NA,0,1.2
100,5,70.24,stem,NA,2,2,0.37922,1,4,O_Image_70.bmp-F_Lure_24.bmp,NA,0,2.1
101,5,121.82,vegetable,NA,3,3,0.38162,1,4,S_Image_121.bmp-O_Lure_82.bmp,NA,0,3.2
102,5,142.16,water,NA,3,2,0.31817,0,2,S_Image_142.bmp-F_Lure_16.bmp,NA,0,3.1
103,5,111.56,angel,NA,3,3,0.46823,1,3,S_Image_111.bmp-O_Lure_56.bmp,NA,0,3.2
104,5,133.44,wool,NA,3,3,0.52377,1,2,S_Image_133.bmp-F_Lure_44.bmp,NA,0,3.1
105,5,142.16,water,NA,3,3,0.33685,1,3,S_Image_142.bmp-F_Lure_16.bmp,NA,0,3.1
106,5,133.44,wool,NA,3,3,0.32026,1,3,S_Image_133.bmp-F_Lure_44.bmp,NA,0,3.1
107,5,126.25,galaxy,NA,3,1,0.35242,0,1,S_Image_126.bmp-F_Lure_25.bmp,NA,0,3.1
108,5,91.31,yellow,NA,2,2,0.32177,1,4,O_Image_91.bmp-F_Lure_31.bmp,NA,0,2.1
109,5,128.9,spike,NA,3,2,0.60985,0,2,S_Image_128.bmp-O_Lure_90.bmp,NA,0,3.2
110,5,82.39,shell,NA,2,3,0.40562,0,2,O_Image_81.bmp-S_Lure_139.bmp,NA,0,2.3
111,5,133.44,wool,NA,3,3,0.35087,1,4,S_Image_133.bmp-F_Lure_44.bmp,NA,0,3.1
112,5,70.37,costume,NA,2,2,0.33101,1,4,O_Image_69.bmp-S_Lure_137.bmp,NA,0,2.3
113,5,128.9,spike,NA,3,2,0.38969,0,3,S_Image_128.bmp-O_Lure_90.bmp,NA,0,3.2
114,5,135.37,antique,NA,3,3,0.32901,1,3,S_Image_135.bmp-F_Lure_37.bmp,NA,0,3.1
115,5,142.16,water,NA,3,3,0.41365,1,4,S_Image_142.bmp-F_Lure_16.bmp,NA,0,3.1
116,5,111.56,angel,NA,3,1,0.82658,0,4,S_Image_111.bmp-O_Lure_56.bmp,NA,0,3.2
117,5,132.77,fuel,NA,3,3,0.31088,1,2,S_Image_132.bmp-O_Lure_77.bmp,NA,0,3.2
118,5,132.77,fuel,NA,3,3,0.38318,1,3,S_Image_132.bmp-O_Lure_77.bmp,NA,0,3.2
119,5,14.63,honeymoon,NA,1,1,0.40641,1,4,F_Image_14.bmp-O_Lure_63.bmp,NA,0,1.2
120,5,8.73,tear,NA,1,1,0.40768,1,4,F_Image_8.bmp-O_Lure_73.bmp,NA,0,1.2
121,5,126.25,galaxy,NA,3,3,0.91742,1,2,S_Image_126.bmp-F_Lure_25.bmp,NA,0,3.1
122,5,38.88,kiss,NA,1,2,0.73496,0,3,F_Image_38.bmp-O_Lure_88.bmp,NA,0,1.2
123,5,82.39,shell,NA,2,1,1.6033,0,3,O_Image_81.bmp-S_Lure_139.bmp,NA,0,2.3
124,5,80.22,tail,NA,2,2,0.27356,1,4,O_Image_79.bmp-S_Lure_122.bmp,NA,0,2.3
125,5,82.39,shell,NA,2,1,0.47781,0,4,O_Image_81.bmp-S_Lure_139.bmp,NA,0,2.3
126,5,5.84,marble,NA,1,1,0.48964,1,4,F_Image_5.bmp-O_Lure_84.bmp,NA,0,1.2
127,5,126.25,galaxy,NA,3,3,0.33742,1,3,S_Image_126.bmp-F_Lure_25.bmp,NA,0,3.1
128,5,140.42,arch,NA,3,1,0.35883,0,3,S_Image_140.bmp-F_Lure_42.bmp,NA,0,3.1
129,5,112.83,corner,NA,3,3,0.52536,1,4,S_Image_112.bmp-O_Lure_83.bmp,NA,0,3.2
130,5,128.9,spike,NA,3,2,0.39178,0,4,S_Image_128.bmp-O_Lure_90.bmp,NA,0,3.2
131,5,136.72,orchestra,NA,3,3,0.48298,1,4,S_Image_136.bmp-O_Lure_72.bmp,NA,0,3.2
132,5,74.17,asphalt,NA,2,2,0.33882,1,4,O_Image_74.bmp-F_Lure_17.bmp,NA,0,2.1
133,5,132.77,fuel,NA,3,3,0.39502,1,4,S_Image_132.bmp-O_Lure_77.bmp,NA,0,3.2
134,5,8.07,lever,NA,1,3,0.49407,0,4,F_Image_7.bmp-S_Lure_107.bmp,NA,0,1.3
135,5,118.28,animal,NA,3,3,0.56732,1,3,S_Image_118.bmp-F_Lure_28.bmp,NA,0,3.1
136,5,118.28,animal,NA,3,3,0.50088,1,4,S_Image_118.bmp-F_Lure_28.bmp,NA,0,3.1
137,5,144.78,giant,NA,3,3,0.3729,1,4,S_Image_144.bmp-O_Lure_78.bmp,NA,0,3.2
138,5,100.23,snow,NA,3,3,0.46425,1,4,S_Image_100.bmp-F_Lure_23.bmp,NA,0,3.1
139,5,135.37,antique,NA,3,3,0.35789,1,4,S_Image_135.bmp-F_Lure_37.bmp,NA,0,3.1
140,5,38.88,kiss,NA,1,1,0.3379,1,4,F_Image_38.bmp-O_Lure_88.bmp,NA,0,1.2
141,5,26.55,flood,NA,1,2,0.37549,0,3,F_Image_26.bmp-O_Lure_55.bmp,NA,0,1.2
142,5,26.55,flood,NA,1,1,0.36554,1,4,F_Image_26.bmp-O_Lure_55.bmp,NA,0,1.2
143,5,126.25,galaxy,NA,3,3,0.48304,1,4,S_Image_126.bmp-F_Lure_25.bmp,NA,0,3.1
144,5,140.42,arch,NA,3,1,0.32242,0,4,S_Image_140.bmp-F_Lure_42.bmp,NA,0,3.1
145,6,18,slope,NA,2,2,1.2581,1,NA,F_Image_18.bmp-F_Lure_18.bmp,1,0,1
146,6,88,kiss,NA,2,2,0.90095,1,NA,O_Image_88.bmp-O_Lure_88.bmp,1,0,2
147,6,24,stem,NA,2,1,1.3009,0,NA,F_Image_24.bmp-F_Lure_24.bmp,1,0,1
148,6,71,cone,NA,1,1,1.1651,1,NA,O_Image_71.bmp-O_Lure_71.bmp,1,1,2
149,6,58,harem,NA,1,1,0.86251,1,NA,O_Image_58.bmp-O_Lure_58.bmp,1,0,2
150,6,97,attack,NA,2,2,0.96551,1,NA,S_Image_97.bmp-S_Lure_97.bmp,1,1,3
151,6,96,sunshine,NA,2,1,1.0234,0,NA,O_Image_96.bmp-O_Lure_96.bmp,1,1,2
152,6,48,triangle,NA,1,1,1.0013,1,NA,F_Image_48.bmp-F_Lure_48.bmp,1,1,1
153,6,128,spike,NA,1,2,1.1011,0,NA,S_Image_128.bmp-S_Lure_128.bmp,1,0,3
154,6,40,menu,NA,2,2,1.0389,1,NA,F_Image_40.bmp-F_Lure_40.bmp,1,1,1
155,6,125,cone,NA,1,1,0.97859,1,NA,S_Image_125.bmp-S_Lure_125.bmp,1,1,3
156,6,47,quake,NA,2,2,1.0762,1,NA,F_Image_47.bmp-F_Lure_47.bmp,1,1,1
157,6,136,orchestra,NA,2,1,0.86135,0,NA,S_Image_136.bmp-S_Lure_136.bmp,1,0,3
158,6,34,attack,NA,1,1,0.88997,1,NA,F_Image_34.bmp-F_Lure_34.bmp,1,1,1
159,6,81,shell,NA,2,2,0.6771,1,NA,O_Image_81.bmp-O_Lure_81.bmp,1,0,2
160,6,64,rust,NA,2,2,0.74003,1,NA,O_Image_64.bmp-O_Lure_64.bmp,1,1,2
161,6,32,sand,NA,2,1,0.91034,0,NA,F_Image_32.bmp-F_Lure_32.bmp,1,1,1
162,6,104,witch,NA,2,1,0.92949,0,NA,S_Image_104.bmp-S_Lure_104.bmp,1,1,3
163,6,123,bubble,NA,2,1,1.118,0,NA,S_Image_123.bmp-S_Lure_123.bmp,1,1,3
164,6,76,wound,NA,2,2,0.79509,1,NA,O_Image_76.bmp-O_Lure_76.bmp,1,1,2
165,6,77,fuel,NA,1,1,0.9652,1,NA,O_Image_77.bmp-O_Lure_77.bmp,1,0,2
166,6,49,paper,NA,2,2,0.60638,1,NA,O_Image_49.bmp-O_Lure_49.bmp,1,1,2
167,6,14,honeymoon,NA,1,1,0.97451,1,NA,F_Image_14.bmp-F_Lure_14.bmp,1,0,1
168,6,143,tube,NA,1,1,1.0057,1,NA,S_Image_143.bmp-S_Lure_143.bmp,1,1,3
169,6,105,cloud,NA,2,2,1.0271,1,NA,S_Image_105.bmp-S_Lure_105.bmp,1,0,3
170,6,99,poison,NA,2,2,1.1975,1,NA,S_Image_99.bmp-S_Lure_99.bmp,1,1,3
171,6,5,marble,NA,1,1,0.75873,1,NA,F_Image_5.bmp-F_Lure_5.bmp,1,0,1
172,6,45,seed,NA,1,1,0.75447,1,NA,F_Image_45.bmp-F_Lure_45.bmp,1,0,1
173,6,121,vegetable,NA,2,2,0.86733,1,NA,S_Image_121.bmp-S_Lure_121.bmp,1,0,3
174,6,124,fire,NA,2,2,0.89006,1,NA,S_Image_124.bmp-S_Lure_124.bmp,1,1,3
175,6,8,tear,NA,1,1,0.74245,1,NA,F_Image_8.bmp-F_Lure_8.bmp,1,0,1
176,6,68,shadow,NA,2,2,0.61468,1,NA,O_Image_68.bmp-O_Lure_68.bmp,1,1,2
177,6,138,hurricane,NA,1,2,0.76076,0,NA,S_Image_138.bmp-S_Lure_138.bmp,1,1,3
178,6,89,stripe,NA,1,1,0.68085,1,NA,O_Image_89.bmp-O_Lure_89.bmp,1,1,2
179,6,80,witch,NA,2,2,0.67319,1,NA,O_Image_80.bmp-O_Lure_80.bmp,1,1,2
180,6,9,wound,NA,1,1,0.71464,1,NA,F_Image_9.bmp-F_Lure_9.bmp,1,1,1
181,6,25,galaxy,NA,1,1,0.77155,1,NA,F_Image_25.bmp-F_Lure_25.bmp,1,0,1
182,6,79,tail,NA,2,2,0.61845,1,NA,O_Image_79.bmp-O_Lure_79.bmp,1,0,2
183,6,42,arch,NA,1,1,0.68043,1,NA,F_Image_42.bmp-F_Lure_42.bmp,1,0,1
184,6,133,wool,NA,2,1,0.9732,0,NA,S_Image_133.bmp-S_Lure_133.bmp,1,0,3
185,6,90,spike,NA,1,2,0.75438,0,NA,O_Image_90.bmp-O_Lure_90.bmp,1,0,2
186,6,82,vegetable,NA,2,2,0.72623,1,NA,O_Image_82.bmp-O_Lure_82.bmp,1,0,2
187,6,75,army,NA,2,2,0.60687,1,NA,O_Image_75.bmp-O_Lure_75.bmp,1,1,2
188,6,73,tear,NA,1,1,0.73717,1,NA,O_Image_73.bmp-O_Lure_73.bmp,1,0,2
189,6,6,rock,NA,1,1,0.70917,1,NA,F_Image_6.bmp-F_Lure_6.bmp,1,0,1
190,6,72,orchestra,NA,1,1,0.77924,1,NA,O_Image_72.bmp-O_Lure_72.bmp,1,0,2
191,6,132,fuel,NA,1,2,0.8939,0,NA,S_Image_132.bmp-S_Lure_132.bmp,1,0,3
192,6,131,sweat,NA,2,2,0.99756,1,NA,S_Image_131.bmp-S_Lure_131.bmp,1,1,3
193,6,109,army,NA,1,1,0.69467,1,NA,S_Image_109.bmp-S_Lure_109.bmp,1,1,3
194,6,130,black,NA,1,2,0.77527,0,NA,S_Image_130.bmp-S_Lure_130.bmp,1,1,3
195,6,20,harem,NA,1,1,0.87917,1,NA,F_Image_20.bmp-F_Lure_20.bmp,1,0,1
196,6,78,giant,NA,2,2,1.0087,1,NA,O_Image_78.bmp-O_Lure_78.bmp,1,0,2
197,6,100,snow,NA,1,1,0.93108,1,NA,S_Image_100.bmp-S_Lure_100.bmp,1,0,3
198,6,19,corpse,NA,2,2,0.83511,1,NA,F_Image_19.bmp-F_Lure_19.bmp,1,0,1
199,6,38,kiss,NA,1,1,0.71526,1,NA,F_Image_38.bmp-F_Lure_38.bmp,1,0,1
200,6,114,money,NA,2,2,0.88523,1,NA,S_Image_114.bmp-S_Lure_114.bmp,1,1,3
201,6,41,crumb,NA,1,1,0.73926,1,NA,F_Image_41.bmp-F_Lure_41.bmp,1,1,1
202,6,13,hostage,NA,2,2,0.74328,1,NA,F_Image_13.bmp-F_Lure_13.bmp,1,1,1
203,6,44,wool,NA,2,2,0.95629,1,NA,F_Image_44.bmp-F_Lure_44.bmp,1,0,1
204,6,30,alcohol,NA,1,1,0.7493,1,NA,F_Image_30.bmp-F_Lure_30.bmp,1,1,1
205,6,92,scar,NA,1,1,0.82645,1,NA,O_Image_92.bmp-O_Lure_92.bmp,1,1,2
206,6,120,shadow,NA,1,1,0.94231,1,NA,S_Image_120.bmp-S_Lure_120.bmp,1,1,3
207,6,1,breakfast,NA,1,1,0.78463,1,NA,F_Image_1.bmp-F_Lure_1.bmp,1,1,1
208,6,29,laundry,NA,2,1,1.0988,0,NA,F_Image_29.bmp-F_Lure_29.bmp,1,1,1
209,6,46,spray,NA,1,1,0.80644,1,NA,F_Image_46.bmp-F_Lure_46.bmp,1,1,1
210,6,85,tourist,NA,1,1,0.79258,1,NA,O_Image_85.bmp-O_Lure_85.bmp,1,1,2
211,6,144,giant,NA,2,2,0.89802,1,NA,S_Image_144.bmp-S_Lure_144.bmp,1,0,3
212,6,115,triangle,NA,2,1,0.81731,0,NA,S_Image_115.bmp-S_Lure_115.bmp,1,1,3
213,6,33,measles,NA,2,1,0.74365,0,NA,F_Image_33.bmp-F_Lure_33.bmp,1,0,1
214,6,139,shell,NA,2,1,0.89447,0,NA,S_Image_139.bmp-S_Lure_139.bmp,1,0,3
215,6,70,stem,NA,1,1,0.87897,1,NA,O_Image_70.bmp-O_Lure_70.bmp,1,0,2
216,6,83,corner,NA,2,2,0.67167,1,NA,O_Image_83.bmp-O_Lure_83.bmp,1,0,2
217,6,94,alcohol,NA,2,2,0.74058,1,NA,O_Image_94.bmp-O_Lure_94.bmp,1,1,2
218,6,4,magnet,NA,2,1,0.76443,0,NA,F_Image_4.bmp-F_Lure_4.bmp,1,0,1
219,6,12,sweat,NA,1,2,1.0065,0,NA,F_Image_12.bmp-F_Lure_12.bmp,1,1,1
220,6,23,snow,NA,1,1,0.87388,1,NA,F_Image_23.bmp-F_Lure_23.bmp,1,0,1
221,6,50,arrow,NA,2,2,1.1695,1,NA,O_Image_50.bmp-O_Lure_50.bmp,1,0,2
222,6,113,rock,NA,1,2,1.1134,0,NA,S_Image_113.bmp-S_Lure_113.bmp,1,0,3
223,6,15,alien,NA,1,1,1.0286,1,NA,F_Image_15.bmp-F_Lure_15.bmp,1,1,1
224,6,10,ghost,NA,1,1,0.92505,1,NA,F_Image_10.bmp-F_Lure_10.bmp,1,0,1
225,6,61,alien,NA,1,1,0.66237,1,NA,O_Image_61.bmp-O_Lure_61.bmp,1,1,2
226,6,62,laundry,NA,2,2,0.73915,1,NA,O_Image_62.bmp-O_Lure_62.bmp,1,1,2
227,6,51,tube,NA,1,1,0.65767,1,NA,O_Image_51.bmp-O_Lure_51.bmp,1,1,2
228,6,22,tourist,NA,1,1,0.80565,1,NA,F_Image_22.bmp-F_Lure_22.bmp,1,1,1
229,6,129,steam,NA,2,2,1.1399,1,NA,S_Image_129.bmp-S_Lure_129.bmp,1,1,3
230,6,116,rust,NA,2,2,1.1745,1,NA,S_Image_116.bmp-S_Lure_116.bmp,1,1,3
231,6,26,flood,NA,2,1,1.2775,0,NA,F_Image_26.bmp-F_Lure_26.bmp,1,0,1
232,6,39,hurricane,NA,1,1,0.86986,1,NA,F_Image_39.bmp-F_Lure_39.bmp,1,1,1
233,6,110,sunshine,NA,1,1,0.88948,1,NA,S_Image_110.bmp-S_Lure_110.bmp,1,1,3
234,6,111,angel,NA,2,2,0.92801,1,NA,S_Image_111.bmp-S_Lure_111.bmp,1,0,3
235,6,35,signal,NA,2,2,1.1574,1,NA,F_Image_35.bmp-F_Lure_35.bmp,1,1,1
236,6,122,tail,NA,2,2,1.1165,1,NA,S_Image_122.bmp-S_Lure_122.bmp,1,0,3
237,6,66,signal,NA,2,2,0.73168,1,NA,O_Image_66.bmp-O_Lure_66.bmp,1,1,2
238,6,117,measles,NA,1,1,0.95023,1,NA,S_Image_117.bmp-S_Lure_117.bmp,1,0,3
239,6,106,paper,NA,2,2,0.8142,1,NA,S_Image_106.bmp-S_Lure_106.bmp,1,1,3
240,6,127,wreck,NA,2,2,0.99101,1,NA,S_Image_127.bmp-S_Lure_127.bmp,1,1,3
241,6,74,asphalt,NA,2,2,0.82609,1,NA,O_Image_74.bmp-O_Lure_74.bmp,1,0,2
242,6,11,poison,NA,2,2,1.4478,1,NA,F_Image_11.bmp-F_Lure_11.bmp,1,1,1
243,6,57,sand,NA,2,2,0.84028,1,NA,O_Image_57.bmp-O_Lure_57.bmp,1,1,2
244,6,7,lever,NA,2,1,1.0974,0,NA,F_Image_7.bmp-F_Lure_7.bmp,1,0,1
245,6,43,steam,NA,1,1,0.93749,1,NA,F_Image_43.bmp-F_Lure_43.bmp,1,1,1
246,6,119,seed,NA,1,1,0.93329,1,NA,S_Image_119.bmp-S_Lure_119.bmp,1,0,3
247,6,21,fire,NA,1,1,0.81335,1,NA,F_Image_21.bmp-F_Lure_21.bmp,1,1,1
248,6,67,board,NA,2,2,0.78096,1,NA,O_Image_67.bmp-O_Lure_67.bmp,1,1,2
249,6,112,corner,NA,1,1,1.0518,1,NA,S_Image_112.bmp-S_Lure_112.bmp,1,0,3
250,6,65,quake,NA,2,2,0.75569,1,NA,O_Image_65.bmp-O_Lure_65.bmp,1,1,2
251,6,126,galaxy,NA,1,2,1.7038,0,NA,S_Image_126.bmp-S_Lure_126.bmp,1,0,3
252,6,16,water,NA,2,2,1.0496,1,NA,F_Image_16.bmp-F_Lure_16.bmp,1,0,1
253,6,55,flood,NA,1,1,0.86222,1,NA,O_Image_55.bmp-O_Lure_55.bmp,1,0,2
254,6,137,costume,NA,1,2,1.2526,0,NA,S_Image_137.bmp-S_Lure_137.bmp,1,0,3
255,6,135,antique,NA,2,2,0.77256,1,NA,S_Image_135.bmp-S_Lure_135.bmp,1,0,3
256,6,107,lever,NA,2,1,1.0413,0,NA,S_Image_107.bmp-S_Lure_107.bmp,1,0,3
257,6,87,wreck,NA,2,2,0.71287,1,NA,O_Image_87.bmp-O_Lure_87.bmp,1,1,2
258,6,52,crumb,NA,2,2,0.82968,1,NA,O_Image_52.bmp-O_Lure_52.bmp,1,1,2
259,6,118,animal,NA,1,2,0.922,0,NA,S_Image_118.bmp-S_Lure_118.bmp,1,0,3
260,6,27,bubble,NA,2,1,0.96747,0,NA,F_Image_27.bmp-F_Lure_27.bmp,1,1,1
261,6,31,yellow,NA,1,1,0.94147,1,NA,F_Image_31.bmp-F_Lure_31.bmp,1,0,1
262,6,17,asphalt,NA,2,2,1.1598,1,NA,F_Image_17.bmp-F_Lure_17.bmp,1,0,1
263,6,142,water,NA,2,2,1.0991,1,NA,S_Image_142.bmp-S_Lure_142.bmp,1,0,3
264,6,59,slope,NA,2,2,1.1211,1,NA,O_Image_59.bmp-O_Lure_59.bmp,1,0,2
265,6,93,drizzle,NA,1,1,0.82394,1,NA,O_Image_93.bmp-O_Lure_93.bmp,1,1,2
266,6,91,yellow,NA,1,1,0.77441,1,NA,O_Image_91.bmp-O_Lure_91.bmp,1,0,2
267,6,134,menu,NA,1,2,1.0729,0,NA,S_Image_134.bmp-S_Lure_134.bmp,1,1,3
268,6,141,corpse,NA,1,1,0.90058,1,NA,S_Image_141.bmp-S_Lure_141.bmp,1,0,3
269,6,54,money,NA,2,2,0.86791,1,NA,O_Image_54.bmp-O_Lure_54.bmp,1,1,2
270,6,95,ghost,NA,2,2,1.0256,1,NA,O_Image_95.bmp-O_Lure_95.bmp,1,0,2
271,6,37,antique,NA,2,1,0.99371,0,NA,F_Image_37.bmp-F_Lure_37.bmp,1,0,1
272,6,140,arch,NA,1,1,0.99368,1,NA,S_Image_140.bmp-S_Lure_140.bmp,1,0,3
273,6,98,breakfast,NA,2,2,1.6678,1,NA,S_Image_98.bmp-S_Lure_98.bmp,1,1,3
274,6,108,arrow,NA,1,1,0.59833,1,NA,S_Image_108.bmp-S_Lure_108.bmp,1,0,3
275,6,102,hostage,NA,2,2,1.0581,1,NA,S_Image_102.bmp-S_Lure_102.bmp,1,1,3
276,6,103,spray,NA,2,1,1.1409,0,NA,S_Image_103.bmp-S_Lure_103.bmp,1,1,3
277,6,2,scar,NA,2,1,1.0667,0,NA,F_Image_2.bmp-F_Lure_2.bmp,1,1,1
278,6,36,stripe,NA,2,2,1.1215,1,NA,F_Image_36.bmp-F_Lure_36.bmp,1,1,1
279,6,28,animal,NA,2,2,1.0916,1,NA,F_Image_28.bmp-F_Lure_28.bmp,1,0,1
280,6,3,drizzle,NA,2,1,0.96493,0,NA,F_Image_3.bmp-F_Lure_3.bmp,1,1,1
281,6,69,costume,NA,2,2,0.74929,1,NA,O_Image_69.bmp-O_Lure_69.bmp,1,0,2
282,6,60,black,NA,2,2,0.754,1,NA,O_Image_60.bmp-O_Lure_60.bmp,1,1,2
283,6,86,magnet,NA,1,1,0.76347,1,NA,O_Image_86.bmp-O_Lure_86.bmp,1,0,2
284,6,63,honeymoon,NA,2,2,0.72414,1,NA,O_Image_63.bmp-O_Lure_63.bmp,1,0,2
285,6,56,angel,NA,2,2,0.66728,1,NA,O_Image_56.bmp-O_Lure_56.bmp,1,0,2
286,6,53,cloud,NA,2,2,0.82554,1,NA,O_Image_53.bmp-O_Lure_53.bmp,1,0,2
287,6,101,board,NA,2,2,0.92477,1,NA,S_Image_101.bmp-S_Lure_101.bmp,1,1,3
288,6,84,marble,NA,2,2,0.75697,1,NA,O_Image_84.bmp-O_Lure_84.bmp,1,0,2
