Trial,Cond,ImageNum,Cue,Block,Correct,Response,RT,Accuracy,CueRep,fName,ImageType,Baseline,Category
1,1,57,NA,NA,NA,1,2.3405,NA,NA,O_Image_57.bmp,1,1,2
2,1,121,NA,NA,NA,1,0.30724,NA,NA,S_Image_121.bmp,1,1,3
3,1,41,NA,NA,NA,2,0.73242,NA,NA,F_Lure_41.bmp,0,0,1
4,1,43,NA,NA,NA,1,0.42064,NA,NA,F_Lure_43.bmp,0,0,1
5,1,141,NA,NA,NA,1,7.5137,NA,NA,S_Image_141.bmp,2,1,3
6,1,17,NA,NA,NA,1,0.49944,NA,NA,F_Lure_17.bmp,0,0,1
7,1,104,NA,NA,NA,2,0.48479,NA,NA,S_Image_104.bmp,2,1,3
8,1,82,NA,NA,NA,1,0.44824,NA,NA,O_Image_82.bmp,2,1,2
9,1,46,NA,NA,NA,2,0.40366,NA,NA,F_Image_46.bmp,1,0,1
10,1,139,NA,NA,NA,1,0.39361,NA,NA,S_Image_139.bmp,2,1,3
11,1,106,NA,NA,NA,1,0.27894,NA,NA,S_Image_106.bmp,2,1,3
12,1,70,NA,NA,NA,1,0.4176,NA,NA,O_Image_70.bmp,1,0,2
13,1,32,NA,NA,NA,1,0.34251,NA,NA,F_Lure_32.bmp,0,1,1
14,1,83,NA,NA,NA,1,0.5339,NA,NA,O_Image_83.bmp,1,1,2
15,1,124,NA,NA,NA,1,0.5178,NA,NA,S_Image_124.bmp,1,1,3
16,1,112,NA,NA,NA,1,0.47113,NA,NA,S_Lure_112.bmp,0,0,3
17,1,131,NA,NA,NA,2,0.45103,NA,NA,S_Lure_131.bmp,0,1,3
18,1,43,NA,NA,NA,1,0.41534,NA,NA,F_Image_43.bmp,2,0,1
19,1,121,NA,NA,NA,1,0.46002,NA,NA,S_Lure_121.bmp,0,1,3
20,1,25,NA,NA,NA,1,0.71118,NA,NA,F_Image_25.bmp,1,1,1
21,1,94,NA,NA,NA,1,0.56135,NA,NA,O_Lure_94.bmp,0,1,2
22,1,14,NA,NA,NA,1,0.30469,NA,NA,F_Image_14.bmp,2,1,1
23,1,135,NA,NA,NA,2,0.44276,NA,NA,S_Image_135.bmp,1,1,3
24,1,89,NA,NA,NA,1,0.47942,NA,NA,O_Lure_89.bmp,0,0,2
25,1,144,NA,NA,NA,1,0.47482,NA,NA,S_Image_144.bmp,1,0,3
26,1,46,NA,NA,NA,1,0.50958,NA,NA,F_Lure_46.bmp,0,0,1
27,1,106,NA,NA,NA,1,0.41573,NA,NA,S_Lure_106.bmp,0,1,3
28,1,70,NA,NA,NA,1,0.40568,NA,NA,O_Lure_70.bmp,0,0,2
29,1,82,NA,NA,NA,1,0.40368,NA,NA,O_Lure_82.bmp,0,1,2
30,1,1,NA,NA,NA,1,0.44974,NA,NA,F_Image_1.bmp,2,0,1
31,1,110,NA,NA,NA,1,0.70249,NA,NA,S_Image_110.bmp,2,0,3
32,1,74,NA,NA,NA,1,0.77661,NA,NA,O_Lure_74.bmp,0,0,2
33,1,26,NA,NA,NA,2,0.3605,NA,NA,F_Lure_26.bmp,0,1,1
34,1,99,NA,NA,NA,2,0.56056,NA,NA,S_Image_99.bmp,2,0,3
35,1,138,NA,NA,NA,1,0.4246,NA,NA,S_Lure_138.bmp,0,1,3
36,1,42,NA,NA,NA,1,0.34055,NA,NA,F_Image_42.bmp,2,1,1
37,1,93,NA,NA,NA,1,0.51546,NA,NA,O_Lure_93.bmp,0,0,2
38,1,45,NA,NA,NA,2,0.45332,NA,NA,F_Lure_45.bmp,0,1,1
39,1,139,NA,NA,NA,1,0.43342,NA,NA,S_Lure_139.bmp,0,1,3
40,1,80,NA,NA,NA,1,0.43072,NA,NA,O_Lure_80.bmp,0,0,2
41,1,11,NA,NA,NA,1,0.51555,NA,NA,F_Lure_11.bmp,0,0,1
42,1,75,NA,NA,NA,1,0.44554,NA,NA,O_Image_75.bmp,2,0,2
43,1,47,NA,NA,NA,1,0.33019,NA,NA,F_Image_47.bmp,1,1,1
44,1,12,NA,NA,NA,2,0.33958,NA,NA,F_Lure_12.bmp,0,1,1
45,1,80,NA,NA,NA,1,0.29247,NA,NA,O_Image_80.bmp,1,0,2
46,1,88,NA,NA,NA,1,0.4776,NA,NA,O_Image_88.bmp,2,1,2
47,1,95,NA,NA,NA,1,0.4737,NA,NA,O_Image_95.bmp,2,0,2
48,1,130,NA,NA,NA,2,0.50846,NA,NA,S_Lure_130.bmp,0,1,3
49,1,111,NA,NA,NA,1,0.47844,NA,NA,S_Lure_111.bmp,0,1,3
50,1,85,NA,NA,NA,1,0.5611,NA,NA,O_Image_85.bmp,2,1,2
51,1,137,NA,NA,NA,1,0.43988,NA,NA,S_Image_137.bmp,2,0,3
52,1,5,NA,NA,NA,1,0.30927,NA,NA,F_Lure_5.bmp,0,1,1
53,1,62,NA,NA,NA,1,0.31826,NA,NA,O_Lure_62.bmp,0,0,2
54,1,109,NA,NA,NA,1,0.28531,NA,NA,S_Image_109.bmp,1,0,3
55,1,100,NA,NA,NA,2,0.37545,NA,NA,S_Lure_100.bmp,0,1,3
56,1,16,NA,NA,NA,1,0.48688,NA,NA,F_Image_16.bmp,2,1,1
57,1,137,NA,NA,NA,1,0.56802,NA,NA,S_Lure_137.bmp,0,0,3
58,1,114,NA,NA,NA,1,0.74296,NA,NA,S_Lure_114.bmp,0,0,3
59,1,12,NA,NA,NA,2,0.60614,NA,NA,F_Image_12.bmp,1,1,1
60,1,92,NA,NA,NA,1,0.38027,NA,NA,O_Image_92.bmp,1,1,2
61,1,79,NA,NA,NA,1,0.56974,NA,NA,O_Image_79.bmp,2,1,2
62,1,13,NA,NA,NA,1,0.45694,NA,NA,F_Image_13.bmp,1,0,1
63,1,8,NA,NA,NA,2,0.38037,NA,NA,F_Lure_8.bmp,0,1,1
64,1,66,NA,NA,NA,1,1.195,NA,NA,O_Lure_66.bmp,0,1,2
65,1,67,NA,NA,NA,1,0.44177,NA,NA,O_Lure_67.bmp,0,0,2
66,1,84,NA,NA,NA,1,0.28667,NA,NA,O_Lure_84.bmp,0,0,2
67,1,31,NA,NA,NA,1,0.36066,NA,NA,F_Lure_31.bmp,0,0,1
68,1,21,NA,NA,NA,1,0.49466,NA,NA,F_Lure_21.bmp,0,1,1
69,1,31,NA,NA,NA,1,0.36941,NA,NA,F_Image_31.bmp,2,0,1
70,1,86,NA,NA,NA,1,1.3433,NA,NA,O_Lure_86.bmp,0,0,2
71,1,113,NA,NA,NA,1,0.49499,NA,NA,S_Lure_113.bmp,0,1,3
72,1,5,NA,NA,NA,1,0.4321,NA,NA,F_Image_5.bmp,2,1,1
73,1,50,NA,NA,NA,1,0.60491,NA,NA,O_Image_50.bmp,2,0,2
74,1,56,NA,NA,NA,1,0.40219,NA,NA,O_Lure_56.bmp,0,0,2
75,1,15,NA,NA,NA,2,0.2883,NA,NA,F_Image_15.bmp,1,1,1
76,1,34,NA,NA,NA,1,0.28226,NA,NA,F_Lure_34.bmp,0,1,1
77,1,14,NA,NA,NA,1,0.38842,NA,NA,F_Lure_14.bmp,0,1,1
78,1,63,NA,NA,NA,1,0.33117,NA,NA,O_Lure_63.bmp,0,0,2
79,1,140,NA,NA,NA,1,0.39494,NA,NA,S_Lure_140.bmp,0,0,3
80,1,6,NA,NA,NA,1,0.48844,NA,NA,F_Image_6.bmp,1,0,1
81,1,19,NA,NA,NA,2,0.29912,NA,NA,F_Lure_19.bmp,0,1,1
82,1,99,NA,NA,NA,2,0.48507,NA,NA,S_Lure_99.bmp,0,0,3
83,1,11,NA,NA,NA,1,0.33654,NA,NA,F_Image_11.bmp,1,0,1
84,1,103,NA,NA,NA,1,0.36012,NA,NA,S_Image_103.bmp,1,1,3
85,1,91,NA,NA,NA,1,0.77522,NA,NA,O_Image_91.bmp,2,0,2
86,1,144,NA,NA,NA,1,0.52592,NA,NA,S_Lure_144.bmp,0,0,3
87,1,91,NA,NA,NA,1,0.54923,NA,NA,O_Lure_91.bmp,0,0,2
88,1,10,NA,NA,NA,1,0.29343,NA,NA,F_Image_10.bmp,2,0,1
89,1,75,NA,NA,NA,1,0.35009,NA,NA,O_Lure_75.bmp,0,0,2
90,1,89,NA,NA,NA,1,0.4628,NA,NA,O_Image_89.bmp,1,0,2
91,1,129,NA,NA,NA,2,0.40347,NA,NA,S_Lure_129.bmp,0,0,3
92,1,32,NA,NA,NA,1,0.4809,NA,NA,F_Image_32.bmp,1,1,1
93,1,73,NA,NA,NA,1,0.50843,NA,NA,O_Image_73.bmp,1,1,2
94,1,107,NA,NA,NA,1,0.34095,NA,NA,S_Image_107.bmp,1,0,3
95,1,6,NA,NA,NA,1,0.445,NA,NA,F_Lure_6.bmp,0,0,1
96,1,136,NA,NA,NA,2,1.5137,NA,NA,S_Lure_136.bmp,0,1,3
97,1,17,NA,NA,NA,1,0.29977,NA,NA,F_Image_17.bmp,1,0,1
98,1,81,NA,NA,NA,1,0.59773,NA,NA,O_Lure_81.bmp,0,0,2
99,1,3,NA,NA,NA,2,0.59648,NA,NA,F_Image_3.bmp,2,1,1
100,1,128,NA,NA,NA,1,0.54658,NA,NA,S_Image_128.bmp,1,1,3
101,1,123,NA,NA,NA,1,0.61072,NA,NA,S_Image_123.bmp,2,1,3
102,1,95,NA,NA,NA,1,0.47933,NA,NA,O_Lure_95.bmp,0,0,2
103,1,125,NA,NA,NA,1,0.65086,NA,NA,S_Image_125.bmp,2,0,3
104,1,90,NA,NA,NA,1,0.46069,NA,NA,O_Lure_90.bmp,0,1,2
105,1,42,NA,NA,NA,1,0.37561,NA,NA,F_Lure_42.bmp,0,1,1
106,1,45,NA,NA,NA,1,0.34208,NA,NA,F_Image_45.bmp,1,1,1
107,1,60,NA,NA,NA,1,0.80681,NA,NA,O_Image_60.bmp,1,1,2
108,1,51,NA,NA,NA,1,0.41289,NA,NA,O_Image_51.bmp,2,1,2
109,1,65,NA,NA,NA,1,0.33965,NA,NA,O_Lure_65.bmp,0,1,2
110,1,35,NA,NA,NA,2,0.58033,NA,NA,F_Image_35.bmp,2,0,1
111,1,60,NA,NA,NA,1,0.36362,NA,NA,O_Lure_60.bmp,0,1,2
112,1,134,NA,NA,NA,2,0.45902,NA,NA,S_Lure_134.bmp,0,1,3
113,1,29,NA,NA,NA,1,0.34325,NA,NA,F_Image_29.bmp,1,1,1
114,1,18,NA,NA,NA,1,0.52775,NA,NA,F_Image_18.bmp,1,1,1
115,1,52,NA,NA,NA,1,0.3365,NA,NA,O_Lure_52.bmp,0,0,2
116,1,35,NA,NA,NA,2,0.24256,NA,NA,F_Lure_35.bmp,0,0,1
117,1,120,NA,NA,NA,2,0.35809,NA,NA,S_Image_120.bmp,2,1,3
118,1,38,NA,NA,NA,1,0.33335,NA,NA,F_Lure_38.bmp,0,0,1
119,1,87,NA,NA,NA,1,0.35866,NA,NA,O_Image_87.bmp,1,0,2
120,1,126,NA,NA,NA,2,0.32611,NA,NA,S_Lure_126.bmp,0,0,3
121,1,135,NA,NA,NA,1,0.50274,NA,NA,S_Lure_135.bmp,0,1,3
122,1,98,NA,NA,NA,1,0.70543,NA,NA,S_Lure_98.bmp,0,1,3
123,1,58,NA,NA,NA,1,0.772,NA,NA,O_Lure_58.bmp,0,1,2
124,1,21,NA,NA,NA,1,0.70754,NA,NA,F_Image_21.bmp,2,1,1
125,1,68,NA,NA,NA,1,0.41424,NA,NA,O_Image_68.bmp,1,1,2
126,1,54,NA,NA,NA,1,0.42097,NA,NA,O_Image_54.bmp,1,1,2
127,1,47,NA,NA,NA,1,0.48356,NA,NA,F_Lure_47.bmp,0,1,1
128,1,96,NA,NA,NA,1,0.49445,NA,NA,O_Lure_96.bmp,0,0,2
129,1,79,NA,NA,NA,1,0.32195,NA,NA,O_Lure_79.bmp,0,1,2
130,1,30,NA,NA,NA,1,0.33914,NA,NA,F_Lure_30.bmp,0,0,1
131,1,115,NA,NA,NA,2,0.44448,NA,NA,S_Lure_115.bmp,0,0,3
132,1,51,NA,NA,NA,1,0.56118,NA,NA,O_Lure_51.bmp,0,1,2
133,1,102,NA,NA,NA,2,0.28052,NA,NA,S_Image_102.bmp,1,0,3
134,1,2,NA,NA,NA,1,0.3958,NA,NA,F_Lure_2.bmp,0,0,1
135,1,52,NA,NA,NA,1,0.314,NA,NA,O_Image_52.bmp,2,0,2
136,1,128,NA,NA,NA,1,0.80392,NA,NA,S_Lure_128.bmp,0,1,3
137,1,118,NA,NA,NA,1,0.35477,NA,NA,S_Image_118.bmp,2,0,3
138,1,18,NA,NA,NA,1,0.33807,NA,NA,F_Lure_18.bmp,0,1,1
139,1,117,NA,NA,NA,2,0.69804,NA,NA,S_Image_117.bmp,1,0,3
140,1,133,NA,NA,NA,2,0.49275,NA,NA,S_Lure_133.bmp,0,1,3
141,1,74,NA,NA,NA,1,0.37481,NA,NA,O_Image_74.bmp,2,0,2
142,1,30,NA,NA,NA,1,0.56702,NA,NA,F_Image_30.bmp,2,0,1
143,1,116,NA,NA,NA,1,0.33363,NA,NA,S_Image_116.bmp,2,0,3
144,1,26,NA,NA,NA,1,0.3823,NA,NA,F_Image_26.bmp,1,1,1
145,1,71,NA,NA,NA,1,0.29452,NA,NA,O_Image_71.bmp,1,0,2
146,1,125,NA,NA,NA,1,0.43247,NA,NA,S_Lure_125.bmp,0,0,3
147,1,10,NA,NA,NA,1,0.41442,NA,NA,F_Lure_10.bmp,0,0,1
148,1,38,NA,NA,NA,1,0.44445,NA,NA,F_Image_38.bmp,1,0,1
149,1,55,NA,NA,NA,1,0.54521,NA,NA,O_Lure_55.bmp,0,1,2
150,1,48,NA,NA,NA,1,0.25602,NA,NA,F_Lure_48.bmp,0,1,1
151,1,57,NA,NA,NA,1,0.28404,NA,NA,O_Lure_57.bmp,0,1,2
152,1,68,NA,NA,NA,1,0.43798,NA,NA,O_Lure_68.bmp,0,1,2
153,1,44,NA,NA,NA,1,0.31409,NA,NA,F_Lure_44.bmp,0,1,1
154,1,59,NA,NA,NA,1,0.38755,NA,NA,O_Lure_59.bmp,0,1,2
155,1,1,NA,NA,NA,1,0.41806,NA,NA,F_Lure_1.bmp,0,0,1
156,1,9,NA,NA,NA,1,0.34277,NA,NA,F_Image_9.bmp,2,0,1
157,1,62,NA,NA,NA,1,0.74348,NA,NA,O_Image_62.bmp,2,0,2
158,1,103,NA,NA,NA,1,0.39951,NA,NA,S_Lure_103.bmp,0,1,3
159,1,29,NA,NA,NA,1,0.35616,NA,NA,F_Lure_29.bmp,0,1,1
160,1,132,NA,NA,NA,1,0.43501,NA,NA,S_Lure_132.bmp,0,0,3
161,1,85,NA,NA,NA,1,0.35044,NA,NA,O_Lure_85.bmp,0,1,2
162,1,131,NA,NA,NA,2,2.5983,NA,NA,S_Image_131.bmp,2,1,3
163,1,24,NA,NA,NA,2,0.29242,NA,NA,F_Lure_24.bmp,0,1,1
164,1,115,NA,NA,NA,2,0.37516,NA,NA,S_Image_115.bmp,1,0,3
165,1,142,NA,NA,NA,2,0.81385,NA,NA,S_Lure_142.bmp,0,0,3
166,1,54,NA,NA,NA,1,0.25951,NA,NA,O_Lure_54.bmp,0,1,2
167,1,23,NA,NA,NA,1,0.48727,NA,NA,F_Image_23.bmp,1,0,1
168,1,77,NA,NA,NA,1,0.37729,NA,NA,O_Lure_77.bmp,0,0,2
169,1,78,NA,NA,NA,1,0.35922,NA,NA,O_Image_78.bmp,1,0,2
170,1,109,NA,NA,NA,1,0.34137,NA,NA,S_Lure_109.bmp,0,0,3
171,1,90,NA,NA,NA,1,0.44469,NA,NA,O_Image_90.bmp,2,1,2
172,1,101,NA,NA,NA,2,0.68742,NA,NA,S_Image_101.bmp,2,0,3
173,1,40,NA,NA,NA,1,0.42613,NA,NA,F_Image_40.bmp,1,0,1
174,1,127,NA,NA,NA,1,0.36032,NA,NA,S_Lure_127.bmp,0,1,3
175,1,84,NA,NA,NA,1,0.35158,NA,NA,O_Image_84.bmp,2,0,2
176,1,142,NA,NA,NA,2,0.38306,NA,NA,S_Image_142.bmp,1,0,3
177,1,93,NA,NA,NA,1,0.39767,NA,NA,O_Image_93.bmp,2,0,2
178,1,4,NA,NA,NA,1,0.47562,NA,NA,F_Image_4.bmp,2,0,1
179,1,132,NA,NA,NA,1,0.3891,NA,NA,S_Image_132.bmp,1,0,3
180,1,122,NA,NA,NA,2,0.65043,NA,NA,S_Image_122.bmp,2,0,3
181,1,122,NA,NA,NA,2,0.35052,NA,NA,S_Lure_122.bmp,0,0,3
182,1,112,NA,NA,NA,1,0.56607,NA,NA,S_Image_112.bmp,2,0,3
183,1,23,NA,NA,NA,1,0.30198,NA,NA,F_Lure_23.bmp,0,0,1
184,1,92,NA,NA,NA,1,0.45588,NA,NA,O_Lure_92.bmp,0,1,2
185,1,104,NA,NA,NA,2,0.44327,NA,NA,S_Lure_104.bmp,0,1,3
186,1,39,NA,NA,NA,2,0.59083,NA,NA,F_Lure_39.bmp,0,1,1
187,1,64,NA,NA,NA,1,0.29209,NA,NA,O_Image_64.bmp,1,0,2
188,1,20,NA,NA,NA,2,0.33405,NA,NA,F_Image_20.bmp,1,0,1
189,1,56,NA,NA,NA,1,0.32759,NA,NA,O_Image_56.bmp,1,0,2
190,1,44,NA,NA,NA,1,0.28834,NA,NA,F_Image_44.bmp,1,1,1
191,1,8,NA,NA,NA,2,0.28233,NA,NA,F_Image_8.bmp,2,1,1
192,1,24,NA,NA,NA,1,0.30094,NA,NA,F_Image_24.bmp,2,1,1
193,1,107,NA,NA,NA,1,0.31035,NA,NA,S_Lure_107.bmp,0,0,3
194,1,36,NA,NA,NA,2,0.37705,NA,NA,F_Image_36.bmp,2,1,1
195,1,102,NA,NA,NA,2,0.27237,NA,NA,S_Lure_102.bmp,0,0,3
196,1,120,NA,NA,NA,1,0.26712,NA,NA,S_Lure_120.bmp,0,1,3
197,1,22,NA,NA,NA,1,0.3265,NA,NA,F_Image_22.bmp,1,1,1
198,1,113,NA,NA,NA,1,0.38397,NA,NA,S_Image_113.bmp,1,1,3
199,1,87,NA,NA,NA,1,0.27919,NA,NA,O_Lure_87.bmp,0,0,2
200,1,127,NA,NA,NA,1,0.31328,NA,NA,S_Image_127.bmp,1,1,3
201,1,119,NA,NA,NA,1,0.29125,NA,NA,S_Lure_119.bmp,0,0,3
202,1,100,NA,NA,NA,2,0.36525,NA,NA,S_Image_100.bmp,1,1,3
203,1,4,NA,NA,NA,1,0.40413,NA,NA,F_Lure_4.bmp,0,0,1
204,1,118,NA,NA,NA,1,0.32276,NA,NA,S_Lure_118.bmp,0,0,3
205,1,97,NA,NA,NA,2,0.62805,NA,NA,S_Image_97.bmp,2,0,3
206,1,7,NA,NA,NA,1,0.20076,NA,NA,F_Lure_7.bmp,0,1,1
207,1,136,NA,NA,NA,1,0.42022,NA,NA,S_Image_136.bmp,1,1,3
208,1,129,NA,NA,NA,2,0.35426,NA,NA,S_Image_129.bmp,2,0,3
209,1,111,NA,NA,NA,1,0.34569,NA,NA,S_Image_111.bmp,1,1,3
210,1,143,NA,NA,NA,2,0.55495,NA,NA,S_Image_143.bmp,1,0,3
211,1,53,NA,NA,NA,1,0.31385,NA,NA,O_Lure_53.bmp,0,1,2
212,1,86,NA,NA,NA,1,0.63431,NA,NA,O_Image_86.bmp,1,0,2
213,1,69,NA,NA,NA,1,0.43109,NA,NA,O_Lure_69.bmp,0,0,2
214,1,36,NA,NA,NA,2,0.31645,NA,NA,F_Lure_36.bmp,0,1,1
215,1,76,NA,NA,NA,1,1.3011,NA,NA,O_Image_76.bmp,1,0,2
216,1,117,NA,NA,NA,2,0.63917,NA,NA,S_Lure_117.bmp,0,0,3
217,1,13,NA,NA,NA,1,0.31587,NA,NA,F_Lure_13.bmp,0,0,1
218,1,33,NA,NA,NA,1,0.48457,NA,NA,F_Image_33.bmp,2,1,1
219,1,96,NA,NA,NA,1,0.35132,NA,NA,O_Image_96.bmp,1,0,2
220,1,9,NA,NA,NA,1,0.32681,NA,NA,F_Lure_9.bmp,0,0,1
221,1,19,NA,NA,NA,2,0.49602,NA,NA,F_Image_19.bmp,1,1,1
222,1,27,NA,NA,NA,1,0.41944,NA,NA,F_Lure_27.bmp,0,1,1
223,1,67,NA,NA,NA,1,0.36881,NA,NA,O_Image_67.bmp,2,0,2
224,1,81,NA,NA,NA,1,0.34502,NA,NA,O_Image_81.bmp,2,0,2
225,1,97,NA,NA,NA,2,0.64151,NA,NA,S_Lure_97.bmp,0,0,3
226,1,63,NA,NA,NA,1,0.29359,NA,NA,O_Image_63.bmp,2,0,2
227,1,48,NA,NA,NA,1,0.46362,NA,NA,F_Image_48.bmp,2,1,1
228,1,53,NA,NA,NA,1,0.41113,NA,NA,O_Image_53.bmp,1,1,2
229,1,50,NA,NA,NA,1,0.34534,NA,NA,O_Lure_50.bmp,0,0,2
230,1,64,NA,NA,NA,1,0.32921,NA,NA,O_Lure_64.bmp,0,0,2
231,1,37,NA,NA,NA,2,0.36117,NA,NA,F_Lure_37.bmp,0,1,1
232,1,61,NA,NA,NA,1,0.32932,NA,NA,O_Lure_61.bmp,0,0,2
233,1,20,NA,NA,NA,2,0.68247,NA,NA,F_Lure_20.bmp,0,0,1
234,1,119,NA,NA,NA,1,0.76385,NA,NA,S_Image_119.bmp,1,0,3
235,1,130,NA,NA,NA,2,0.71544,NA,NA,S_Image_130.bmp,1,1,3
236,1,71,NA,NA,NA,1,0.55791,NA,NA,O_Lure_71.bmp,0,0,2
237,1,133,NA,NA,NA,2,0.60668,NA,NA,S_Image_133.bmp,2,1,3
238,1,140,NA,NA,NA,1,0.38884,NA,NA,S_Image_140.bmp,2,0,3
239,1,108,NA,NA,NA,2,0.44211,NA,NA,S_Image_108.bmp,2,0,3
240,1,110,NA,NA,NA,1,0.6868,NA,NA,S_Lure_110.bmp,0,0,3
241,1,7,NA,NA,NA,1,0.44296,NA,NA,F_Image_7.bmp,2,1,1
242,1,2,NA,NA,NA,1,0.31959,NA,NA,F_Image_2.bmp,1,0,1
243,1,27,NA,NA,NA,1,0.42504,NA,NA,F_Image_27.bmp,2,1,1
244,1,28,NA,NA,NA,2,0.0070049,NA,NA,F_Lure_28.bmp,0,0,1
245,1,66,NA,NA,NA,1,0.29303,NA,NA,O_Image_66.bmp,2,1,2
246,1,49,NA,NA,NA,1,0.31175,NA,NA,O_Image_49.bmp,1,0,2
247,1,134,NA,NA,NA,2,0.33709,NA,NA,S_Image_134.bmp,2,1,3
248,1,34,NA,NA,NA,1,0.28993,NA,NA,F_Image_34.bmp,2,1,1
249,1,76,NA,NA,NA,1,0.56387,NA,NA,O_Lure_76.bmp,0,0,2
250,1,114,NA,NA,NA,1,0.53854,NA,NA,S_Image_114.bmp,1,0,3
251,1,59,NA,NA,NA,1,0.83521,NA,NA,O_Image_59.bmp,1,1,2
252,1,124,NA,NA,NA,1,0.55997,NA,NA,S_Lure_124.bmp,0,1,3
253,1,28,NA,NA,NA,1,0.56947,NA,NA,F_Image_28.bmp,2,0,1
254,1,40,NA,NA,NA,1,0.69142,NA,NA,F_Lure_40.bmp,0,0,1
255,1,72,NA,NA,NA,1,0.43099,NA,NA,O_Image_72.bmp,2,1,2
256,1,83,NA,NA,NA,1,0.60414,NA,NA,O_Lure_83.bmp,0,1,2
257,1,65,NA,NA,NA,1,1.0095,NA,NA,O_Image_65.bmp,1,1,2
258,1,105,NA,NA,NA,2,0.94359,NA,NA,S_Image_105.bmp,2,1,3
259,1,58,NA,NA,NA,1,0.38373,NA,NA,O_Image_58.bmp,2,1,2
260,1,73,NA,NA,NA,1,0.7503,NA,NA,O_Lure_73.bmp,0,1,2
261,1,116,NA,NA,NA,1,0.4864,NA,NA,S_Lure_116.bmp,0,0,3
262,1,77,NA,NA,NA,1,0.47386,NA,NA,O_Image_77.bmp,2,0,2
263,1,101,NA,NA,NA,2,0.41316,NA,NA,S_Lure_101.bmp,0,0,3
264,1,37,NA,NA,NA,2,0.55455,NA,NA,F_Image_37.bmp,1,1,1
265,1,72,NA,NA,NA,1,0.45857,NA,NA,O_Lure_72.bmp,0,1,2
266,1,69,NA,NA,NA,1,0.37463,NA,NA,O_Image_69.bmp,1,0,2
267,1,108,NA,NA,NA,1,0.50956,NA,NA,S_Lure_108.bmp,0,0,3
268,1,105,NA,NA,NA,2,0.38401,NA,NA,S_Lure_105.bmp,0,1,3
269,1,33,NA,NA,NA,1,0.31877,NA,NA,F_Lure_33.bmp,0,1,1
270,1,25,NA,NA,NA,1,0.36812,NA,NA,F_Lure_25.bmp,0,1,1
271,1,126,NA,NA,NA,2,0.35155,NA,NA,S_Image_126.bmp,1,0,3
272,1,78,NA,NA,NA,1,0.37554,NA,NA,O_Lure_78.bmp,0,0,2
273,1,55,NA,NA,NA,1,0.5436,NA,NA,O_Image_55.bmp,2,1,2
274,1,15,NA,NA,NA,1,0.27973,NA,NA,F_Lure_15.bmp,0,1,1
275,1,94,NA,NA,NA,1,0.29777,NA,NA,O_Image_94.bmp,1,1,2
276,1,141,NA,NA,NA,1,0.64383,NA,NA,S_Lure_141.bmp,0,1,3
277,1,41,NA,NA,NA,1,0.38307,NA,NA,F_Image_41.bmp,1,0,1
278,1,123,NA,NA,NA,1,0.27785,NA,NA,S_Lure_123.bmp,0,1,3
279,1,39,NA,NA,NA,2,0.35314,NA,NA,F_Image_39.bmp,2,1,1
280,1,3,NA,NA,NA,2,0.40061,NA,NA,F_Lure_3.bmp,0,1,1
281,1,98,NA,NA,NA,1,0.36453,NA,NA,S_Image_98.bmp,1,1,3
282,1,49,NA,NA,NA,1,0.28459,NA,NA,O_Lure_49.bmp,0,0,2
283,1,138,NA,NA,NA,1,0.31136,NA,NA,S_Image_138.bmp,2,1,3
284,1,143,NA,NA,NA,1,0.58467,NA,NA,S_Lure_143.bmp,0,0,3
285,1,22,NA,NA,NA,1,0.49597,NA,NA,F_Lure_22.bmp,0,1,1
286,1,16,NA,NA,NA,1,0.29006,NA,NA,F_Lure_16.bmp,0,1,1
287,1,88,NA,NA,NA,1,0.32412,NA,NA,O_Lure_88.bmp,0,1,2
288,1,61,NA,NA,NA,1,0.51758,NA,NA,O_Image_61.bmp,2,0,2
289,2,41,asphalt,1,1,0,3.4998,0,NA,F_Image_41.bmp-F_Lure_41.bmp,1,0,1
290,2,111,army,1,2,0,3.5001,0,NA,S_Image_111.bmp-S_Lure_111.bmp,1,1,3
291,2,136,slope,1,1,1,2.0918,1,NA,S_Image_136.bmp-S_Lure_136.bmp,1,1,3
292,2,25,costume,1,2,2,2.1419,1,NA,F_Image_25.bmp-F_Lure_25.bmp,1,1,1
293,2,29,shadow,1,1,0,3.4997,0,NA,F_Image_29.bmp-F_Lure_29.bmp,1,1,1
294,2,64,seed,1,2,0,3.4996,0,NA,O_Image_64.bmp-O_Lure_64.bmp,1,0,2
295,2,37,spike,1,1,1,1.8094,1,NA,F_Image_37.bmp-F_Lure_37.bmp,1,1,1
296,2,45,water,1,1,0,3.4995,0,NA,F_Image_45.bmp-F_Lure_45.bmp,1,1,1
297,2,80,drizzle,1,1,0,3.4996,0,NA,O_Image_80.bmp-O_Lure_80.bmp,1,0,2
298,2,117,honeymoon,1,1,0,3.4999,0,NA,S_Image_117.bmp-S_Lure_117.bmp,1,0,3
299,2,23,board,1,1,0,3.4997,0,NA,F_Image_23.bmp-F_Lure_23.bmp,1,0,1
300,2,107,scar,1,2,2,2.7004,1,NA,S_Image_107.bmp-S_Lure_107.bmp,1,0,3
301,2,53,shell,1,2,0,3.4996,0,NA,O_Image_53.bmp-O_Lure_53.bmp,1,1,2
302,2,119,wound,1,1,0,3.4995,0,NA,S_Image_119.bmp-S_Lure_119.bmp,1,0,3
303,2,94,black,1,2,0,3.4998,0,NA,O_Image_94.bmp-O_Lure_94.bmp,1,1,2
304,2,115,menu,1,2,0,3.5,0,NA,S_Image_115.bmp-S_Lure_115.bmp,1,0,3
305,2,60,vegetable,1,1,0,3.4997,0,NA,O_Image_60.bmp-O_Lure_60.bmp,1,1,2
306,2,124,ghost,1,2,0,3.5001,0,NA,S_Image_124.bmp-S_Lure_124.bmp,1,1,3
307,2,142,angel,1,2,0,3.4999,0,NA,S_Image_142.bmp-S_Lure_142.bmp,1,0,3
308,2,130,witch,1,2,0,3.4998,0,NA,S_Image_130.bmp-S_Lure_130.bmp,1,1,3
309,2,49,paper,1,2,0,3.4999,0,NA,O_Image_49.bmp-O_Lure_49.bmp,1,0,2
310,2,19,alien,1,1,0,3.5001,0,NA,F_Image_19.bmp-F_Lure_19.bmp,1,1,1
311,2,11,flood,1,2,0,3.5,0,NA,F_Image_11.bmp-F_Lure_11.bmp,1,0,1
312,2,71,giant,1,1,0,3.4996,0,NA,O_Image_71.bmp-O_Lure_71.bmp,1,0,2
313,3,37,spike,1,2,0,3.4998,0,NA,F_Image_37.bmp-F_Lure_37.bmp,1,1,1
314,3,45,water,1,2,0,3.5001,0,NA,F_Image_45.bmp-F_Lure_45.bmp,1,1,1
315,3,71,giant,1,2,0,3.4997,0,NA,O_Image_71.bmp-O_Lure_71.bmp,1,0,2
316,3,136,slope,1,2,0,3.5,0,NA,S_Image_136.bmp-S_Lure_136.bmp,1,1,3
317,3,25,costume,1,1,0,3.5001,0,NA,F_Image_25.bmp-F_Lure_25.bmp,1,1,1
318,3,11,flood,1,1,0,3.4996,0,NA,F_Image_11.bmp-F_Lure_11.bmp,1,0,1
319,3,115,menu,1,2,0,3.4996,0,NA,S_Image_115.bmp-S_Lure_115.bmp,1,0,3
320,3,29,shadow,1,1,0,3.5001,0,NA,F_Image_29.bmp-F_Lure_29.bmp,1,1,1
321,3,80,drizzle,1,1,0,3.5001,0,NA,O_Image_80.bmp-O_Lure_80.bmp,1,0,2
322,3,60,vegetable,1,1,0,3.4999,0,NA,O_Image_60.bmp-O_Lure_60.bmp,1,1,2
323,3,53,shell,1,2,0,3.4999,0,NA,O_Image_53.bmp-O_Lure_53.bmp,1,1,2
324,3,119,wound,1,1,0,3.4997,0,NA,S_Image_119.bmp-S_Lure_119.bmp,1,0,3
325,3,111,army,1,2,0,3.4995,0,NA,S_Image_111.bmp-S_Lure_111.bmp,1,1,3
326,3,124,ghost,1,2,0,3.4996,0,NA,S_Image_124.bmp-S_Lure_124.bmp,1,1,3
327,3,19,alien,1,2,0,3.4997,0,NA,F_Image_19.bmp-F_Lure_19.bmp,1,1,1
328,3,64,seed,1,2,0,3.4996,0,NA,O_Image_64.bmp-O_Lure_64.bmp,1,0,2
329,3,49,paper,1,2,0,3.5001,0,NA,O_Image_49.bmp-O_Lure_49.bmp,1,0,2
330,3,107,scar,1,1,0,3.5,0,NA,S_Image_107.bmp-S_Lure_107.bmp,1,0,3
331,3,94,black,1,1,0,3.5001,0,NA,O_Image_94.bmp-O_Lure_94.bmp,1,1,2
332,3,117,honeymoon,1,1,0,3.4999,0,NA,S_Image_117.bmp-S_Lure_117.bmp,1,0,3
333,3,142,angel,1,2,0,3.4997,0,NA,S_Image_142.bmp-S_Lure_142.bmp,1,0,3
334,3,130,witch,1,2,0,3.5,0,NA,S_Image_130.bmp-S_Lure_130.bmp,1,1,3
335,3,23,board,1,1,0,3.4997,0,NA,F_Image_23.bmp-F_Lure_23.bmp,1,0,1
336,3,41,asphalt,1,1,0,3.5,0,NA,F_Image_41.bmp-F_Lure_41.bmp,1,0,1
337,2,69,lever,2,2,0,3.5,0,NA,O_Image_69.bmp-O_Lure_69.bmp,1,0,2
338,2,38,marble,2,2,0,3.4997,0,NA,F_Image_38.bmp-F_Lure_38.bmp,1,0,1
339,2,113,sand,2,1,0,3.4999,0,NA,S_Image_113.bmp-S_Lure_113.bmp,1,1,3
340,2,46,fuel,2,2,0,3.4999,0,NA,F_Image_46.bmp-F_Lure_46.bmp,1,0,1
341,2,87,sweat,2,2,0,3.4998,0,NA,O_Image_87.bmp-O_Lure_87.bmp,1,0,2
342,2,89,signal,2,1,0,3.5,0,NA,O_Image_89.bmp-O_Lure_89.bmp,1,0,2
343,2,32,tail,2,1,0,3.4996,0,NA,F_Image_32.bmp-F_Lure_32.bmp,1,1,1
344,2,114,corner,2,1,0,3.4995,0,NA,S_Image_114.bmp-S_Lure_114.bmp,1,0,3
345,2,132,yellow,2,1,0,3.4995,0,NA,S_Image_132.bmp-S_Lure_132.bmp,1,0,3
346,2,13,measles,2,1,0,3.4998,0,NA,F_Image_13.bmp-F_Lure_13.bmp,1,0,1
347,2,83,wool,2,2,0,3.5001,0,NA,O_Image_83.bmp-O_Lure_83.bmp,1,1,2
348,2,92,crumb,2,1,0,3.5001,0,NA,O_Image_92.bmp-O_Lure_92.bmp,1,1,2
349,2,44,sunshine,2,2,0,3.4998,0,NA,F_Image_44.bmp-F_Lure_44.bmp,1,1,1
350,2,65,tear,2,2,0,3.5,0,NA,O_Image_65.bmp-O_Lure_65.bmp,1,1,2
351,2,128,alcohol,2,1,0,3.5,0,NA,S_Image_128.bmp-S_Lure_128.bmp,1,1,3
352,2,100,arch,2,1,0,3.4998,0,NA,S_Image_100.bmp-S_Lure_100.bmp,1,1,3
353,2,135,corpse,2,2,0,3.5,0,NA,S_Image_135.bmp-S_Lure_135.bmp,1,1,3
354,2,144,snow,2,1,0,3.4998,0,NA,S_Image_144.bmp-S_Lure_144.bmp,1,0,3
355,2,18,antique,2,2,0,3.4998,0,NA,F_Image_18.bmp-F_Lure_18.bmp,1,1,1
356,2,54,cloud,2,2,0,3.4998,0,NA,O_Image_54.bmp-O_Lure_54.bmp,1,1,2
357,2,57,breakfast,2,2,0,3.4995,0,NA,O_Image_57.bmp-O_Lure_57.bmp,1,1,2
358,2,6,kiss,2,2,0,3.4998,0,NA,F_Image_6.bmp-F_Lure_6.bmp,1,0,1
359,2,109,wreck,2,1,0,3.4998,0,NA,S_Image_109.bmp-S_Lure_109.bmp,1,0,3
360,2,2,attack,2,1,0,3.4996,0,NA,F_Image_2.bmp-F_Lure_2.bmp,1,0,1
361,3,132,yellow,2,2,0,3.4998,0,NA,S_Image_132.bmp-S_Lure_132.bmp,1,0,3
362,3,83,wool,2,1,0,3.5001,0,NA,O_Image_83.bmp-O_Lure_83.bmp,1,1,2
363,3,128,alcohol,2,2,0,3.4996,0,NA,S_Image_128.bmp-S_Lure_128.bmp,1,1,3
364,3,92,crumb,2,2,0,3.4996,0,NA,O_Image_92.bmp-O_Lure_92.bmp,1,1,2
365,3,6,kiss,2,1,0,3.5,0,NA,F_Image_6.bmp-F_Lure_6.bmp,1,0,1
366,3,46,fuel,2,2,0,3.4997,0,NA,F_Image_46.bmp-F_Lure_46.bmp,1,0,1
367,3,2,attack,2,2,0,3.4996,0,NA,F_Image_2.bmp-F_Lure_2.bmp,1,0,1
368,3,100,arch,2,2,0,3.4998,0,NA,S_Image_100.bmp-S_Lure_100.bmp,1,1,3
369,3,114,corner,2,2,0,3.4998,0,NA,S_Image_114.bmp-S_Lure_114.bmp,1,0,3
370,3,65,tear,2,2,0,3.4995,0,NA,O_Image_65.bmp-O_Lure_65.bmp,1,1,2
371,3,18,antique,2,1,0,3.5,0,NA,F_Image_18.bmp-F_Lure_18.bmp,1,1,1
372,3,89,signal,2,1,0,3.4997,0,NA,O_Image_89.bmp-O_Lure_89.bmp,1,0,2
373,3,32,tail,2,1,0,3.4999,0,NA,F_Image_32.bmp-F_Lure_32.bmp,1,1,1
374,3,38,marble,2,2,0,3.4995,0,NA,F_Image_38.bmp-F_Lure_38.bmp,1,0,1
375,3,69,lever,2,2,0,3.5,0,NA,O_Image_69.bmp-O_Lure_69.bmp,1,0,2
376,3,109,wreck,2,2,0,3.4997,0,NA,S_Image_109.bmp-S_Lure_109.bmp,1,0,3
377,3,54,cloud,2,1,0,3.4997,0,NA,O_Image_54.bmp-O_Lure_54.bmp,1,1,2
378,3,113,sand,2,2,0,3.4999,0,NA,S_Image_113.bmp-S_Lure_113.bmp,1,1,3
379,3,135,corpse,2,2,0,3.5001,0,NA,S_Image_135.bmp-S_Lure_135.bmp,1,1,3
380,3,87,sweat,2,1,0,3.4996,0,NA,O_Image_87.bmp-O_Lure_87.bmp,1,0,2
381,3,44,sunshine,2,1,0,3.4996,0,NA,F_Image_44.bmp-F_Lure_44.bmp,1,1,1
382,3,144,snow,2,1,0,3.4998,0,NA,S_Image_144.bmp-S_Lure_144.bmp,1,0,3
383,3,57,breakfast,2,2,0,3.5,0,NA,O_Image_57.bmp-O_Lure_57.bmp,1,1,2
384,3,13,measles,2,1,0,3.4998,0,NA,F_Image_13.bmp-F_Lure_13.bmp,1,0,1
385,2,26,bubble,3,1,0,3.4996,0,NA,F_Image_26.bmp-F_Lure_26.bmp,1,1,1
386,2,12,magnet,3,2,0,3.4998,0,NA,F_Image_12.bmp-F_Lure_12.bmp,1,1,1
387,2,20,spray,3,2,0,3.4996,0,NA,F_Image_20.bmp-F_Lure_20.bmp,1,0,1
388,2,68,triangle,3,1,0,3.5001,0,NA,O_Image_68.bmp-O_Lure_68.bmp,1,1,2
389,2,76,steam,3,2,0,3.4999,0,NA,O_Image_76.bmp-O_Lure_76.bmp,1,0,2
390,2,98,stripe,3,1,0,3.4996,0,NA,S_Image_98.bmp-S_Lure_98.bmp,1,1,3
391,2,59,stem,3,2,0,3.5001,0,NA,O_Image_59.bmp-O_Lure_59.bmp,1,1,2
392,2,47,hurricane,3,2,0,3.5001,0,NA,F_Image_47.bmp-F_Lure_47.bmp,1,1,1
393,2,70,fire,3,2,0,3.4995,0,NA,O_Image_70.bmp-O_Lure_70.bmp,1,0,2
394,2,127,harem,3,2,0,3.4996,0,NA,S_Image_127.bmp-S_Lure_127.bmp,1,1,3
395,2,15,quake,3,2,0,3.5001,0,NA,F_Image_15.bmp-F_Lure_15.bmp,1,1,1
396,2,78,orchestra,3,2,0,3.5001,0,NA,O_Image_78.bmp-O_Lure_78.bmp,1,0,2
397,2,96,cone,3,1,0,3.5,0,NA,O_Image_96.bmp-O_Lure_96.bmp,1,0,2
398,2,86,tourist,3,2,0,3.4999,0,NA,O_Image_86.bmp-O_Lure_86.bmp,1,0,2
399,2,22,money,3,1,0,3.4998,0,NA,F_Image_22.bmp-F_Lure_22.bmp,1,1,1
400,2,56,rock,3,2,0,3.5,0,NA,O_Image_56.bmp-O_Lure_56.bmp,1,0,2
401,2,102,arrow,3,2,2,1.0313,1,NA,S_Image_102.bmp-S_Lure_102.bmp,1,0,3
402,2,143,hostage,3,1,2,1.1873,0,NA,S_Image_143.bmp-S_Lure_143.bmp,1,0,3
403,2,40,animal,3,2,2,1.0731,1,NA,F_Image_40.bmp-F_Lure_40.bmp,1,0,1
404,2,73,galaxy,3,2,1,0.9878,0,NA,O_Image_73.bmp-O_Lure_73.bmp,1,1,2
405,2,103,tube,3,1,1,1.3382,1,NA,S_Image_103.bmp-S_Lure_103.bmp,1,1,3
406,2,126,rust,3,1,1,1.7064,1,NA,S_Image_126.bmp-S_Lure_126.bmp,1,0,3
407,2,121,poison,3,2,2,2.1712,1,NA,S_Image_121.bmp-S_Lure_121.bmp,1,1,3
408,2,17,laundry,3,2,0,3.5,0,NA,F_Image_17.bmp-F_Lure_17.bmp,1,0,1
409,3,103,tube,3,2,0,3.4996,0,NA,S_Image_103.bmp-S_Lure_103.bmp,1,1,3
410,3,15,quake,3,2,1,1.4328,0,NA,F_Image_15.bmp-F_Lure_15.bmp,1,1,1
411,3,20,spray,3,1,1,1.0927,1,NA,F_Image_20.bmp-F_Lure_20.bmp,1,0,1
412,3,121,poison,3,1,1,1.055,1,NA,S_Image_121.bmp-S_Lure_121.bmp,1,1,3
413,3,86,tourist,3,2,2,0.77835,1,NA,O_Image_86.bmp-O_Lure_86.bmp,1,0,2
414,3,73,galaxy,3,2,1,0.95247,0,NA,O_Image_73.bmp-O_Lure_73.bmp,1,1,2
415,3,59,stem,3,2,2,0.75952,1,NA,O_Image_59.bmp-O_Lure_59.bmp,1,1,2
416,3,102,arrow,3,1,1,2.0389,1,NA,S_Image_102.bmp-S_Lure_102.bmp,1,0,3
417,3,22,money,3,1,1,0.83529,1,NA,F_Image_22.bmp-F_Lure_22.bmp,1,1,1
418,3,12,magnet,3,2,1,2.0956,0,NA,F_Image_12.bmp-F_Lure_12.bmp,1,1,1
419,3,47,hurricane,3,1,1,0.84095,1,NA,F_Image_47.bmp-F_Lure_47.bmp,1,1,1
420,3,127,harem,3,2,1,1.2928,0,NA,S_Image_127.bmp-S_Lure_127.bmp,1,1,3
421,3,26,bubble,3,2,1,0.81527,0,NA,F_Image_26.bmp-F_Lure_26.bmp,1,1,1
422,3,40,animal,3,2,2,2.9637,1,NA,F_Image_40.bmp-F_Lure_40.bmp,1,0,1
423,3,126,rust,3,1,1,1.5948,1,NA,S_Image_126.bmp-S_Lure_126.bmp,1,0,3
424,3,68,triangle,3,2,2,0.61587,1,NA,O_Image_68.bmp-O_Lure_68.bmp,1,1,2
425,3,98,stripe,3,1,1,1.4208,1,NA,S_Image_98.bmp-S_Lure_98.bmp,1,1,3
426,3,78,orchestra,3,1,1,0.87356,1,NA,O_Image_78.bmp-O_Lure_78.bmp,1,0,2
427,3,76,steam,3,2,2,0.61271,1,NA,O_Image_76.bmp-O_Lure_76.bmp,1,0,2
428,3,70,fire,3,1,1,1.073,1,NA,O_Image_70.bmp-O_Lure_70.bmp,1,0,2
429,3,17,laundry,3,1,2,3.0198,0,NA,F_Image_17.bmp-F_Lure_17.bmp,1,0,1
430,3,143,hostage,3,1,1,1.0245,1,NA,S_Image_143.bmp-S_Lure_143.bmp,1,0,3
431,3,56,rock,3,2,2,0.71777,1,NA,O_Image_56.bmp-O_Lure_56.bmp,1,0,2
432,3,96,cone,3,1,1,1.3585,1,NA,O_Image_96.bmp-O_Lure_96.bmp,1,0,2
433,4,1,orchestra,1,2,2,1.0352,1,NA,F_Image_1.bmp-F_Lure_1.bmp,2,0,1
434,4,7,wool,1,2,2,3.3832,1,NA,F_Image_7.bmp-F_Lure_7.bmp,2,1,1
435,4,21,vegetable,1,2,2,1.1494,1,NA,F_Image_21.bmp-F_Lure_21.bmp,2,1,1
436,4,138,hurricane,1,2,2,1.9567,1,NA,S_Image_138.bmp-S_Lure_138.bmp,2,1,3
437,4,35,sweat,1,2,2,3.0765,1,NA,F_Image_35.bmp-F_Lure_35.bmp,2,0,1
438,4,108,lever,1,2,2,1.9275,1,NA,S_Image_108.bmp-S_Lure_108.bmp,2,0,3
439,4,34,tear,1,2,2,2.088,1,NA,F_Image_34.bmp-F_Lure_34.bmp,2,1,1
440,4,51,poison,1,1,1,0.98597,1,NA,O_Image_51.bmp-O_Lure_51.bmp,2,1,2
441,4,99,board,1,2,2,1.2081,1,NA,S_Image_99.bmp-S_Lure_99.bmp,2,0,3
442,4,122,drizzle,1,1,1,1.9896,1,NA,S_Image_122.bmp-S_Lure_122.bmp,2,0,3
443,4,116,flood,1,2,2,2.4515,1,NA,S_Image_116.bmp-S_Lure_116.bmp,2,0,3
444,4,74,laundry,1,2,2,1.6393,1,NA,O_Image_74.bmp-O_Lure_74.bmp,2,0,2
445,4,118,paper,1,1,1,1.155,1,NA,S_Image_118.bmp-S_Lure_118.bmp,2,0,3
446,4,52,menu,1,2,2,1.1628,1,NA,O_Image_52.bmp-O_Lure_52.bmp,2,0,2
447,4,28,rust,1,2,2,2.7612,1,NA,F_Image_28.bmp-F_Lure_28.bmp,2,0,1
448,4,9,signal,1,1,1,2.2563,1,NA,F_Image_9.bmp-F_Lure_9.bmp,2,0,1
449,4,101,marble,1,1,0,3.4998,0,NA,S_Image_101.bmp-S_Lure_101.bmp,2,0,3
450,4,82,tube,1,1,1,2.7572,1,NA,O_Image_82.bmp-O_Lure_82.bmp,2,1,2
451,4,16,triangle,1,1,2,2.3324,0,NA,F_Image_16.bmp-F_Lure_16.bmp,2,1,1
452,4,140,tourist,1,2,2,1.5407,1,NA,S_Image_140.bmp-S_Lure_140.bmp,2,0,3
453,4,66,army,1,2,2,1.5727,1,NA,O_Image_66.bmp-O_Lure_66.bmp,2,1,2
454,4,125,steam,1,2,2,2.1635,1,NA,S_Image_125.bmp-S_Lure_125.bmp,2,0,3
455,4,42,cloud,1,1,1,2.5544,1,NA,F_Image_42.bmp-F_Lure_42.bmp,2,1,1
456,4,72,slope,1,2,2,0.93799,1,NA,O_Image_72.bmp-O_Lure_72.bmp,2,1,2
457,4,95,attack,2,2,2,0.97021,1,NA,O_Image_95.bmp-O_Lure_95.bmp,2,0,2
458,4,30,arrow,2,2,2,0.92084,1,NA,F_Image_30.bmp-F_Lure_30.bmp,2,0,1
459,4,105,stem,2,1,1,1.1134,1,NA,S_Image_105.bmp-S_Lure_105.bmp,2,1,3
460,4,63,wound,2,1,2,0.85849,0,NA,O_Image_63.bmp-O_Lure_63.bmp,2,0,2
461,4,14,stripe,2,1,1,0.91755,1,NA,F_Image_14.bmp-F_Lure_14.bmp,2,1,1
462,4,93,asphalt,2,1,1,0.86244,1,NA,O_Image_93.bmp-O_Lure_93.bmp,2,0,2
463,4,79,sand,2,1,1,1.1295,1,NA,O_Image_79.bmp-O_Lure_79.bmp,2,1,2
464,4,55,spike,2,2,2,1.0577,1,NA,O_Image_55.bmp-O_Lure_55.bmp,2,1,2
465,4,75,kiss,2,2,2,0.91669,1,NA,O_Image_75.bmp-O_Lure_75.bmp,2,0,2
466,4,39,corpse,2,2,2,0.91767,1,NA,F_Image_39.bmp-F_Lure_39.bmp,2,1,1
467,4,8,galaxy,2,2,2,0.97461,1,NA,F_Image_8.bmp-F_Lure_8.bmp,2,1,1
468,4,3,breakfast,2,2,2,0.90927,1,NA,F_Image_3.bmp-F_Lure_3.bmp,2,1,1
469,4,4,rock,2,1,1,0.88654,1,NA,F_Image_4.bmp-F_Lure_4.bmp,2,0,1
470,4,43,giant,2,1,1,1.0407,1,NA,F_Image_43.bmp-F_Lure_43.bmp,2,0,1
471,4,58,bubble,2,2,2,1.1007,1,NA,O_Image_58.bmp-O_Lure_58.bmp,2,1,2
472,4,24,harem,2,1,1,1.3503,1,NA,F_Image_24.bmp-F_Lure_24.bmp,2,1,1
473,4,62,spray,2,2,2,1.0937,1,NA,O_Image_62.bmp-O_Lure_62.bmp,2,0,2
474,4,48,arch,2,1,1,2.2877,1,NA,F_Image_48.bmp-F_Lure_48.bmp,2,1,1
475,4,85,magnet,2,2,2,1.0577,1,NA,O_Image_85.bmp-O_Lure_85.bmp,2,1,2
476,4,61,scar,2,2,2,1.5577,1,NA,O_Image_61.bmp-O_Lure_61.bmp,2,0,2
477,4,134,money,2,1,1,1.3008,1,NA,S_Image_134.bmp-S_Lure_134.bmp,2,1,3
478,4,139,quake,2,1,1,1.0863,1,NA,S_Image_139.bmp-S_Lure_139.bmp,2,1,3
479,4,10,seed,2,2,2,0.83227,1,NA,F_Image_10.bmp-F_Lure_10.bmp,2,0,1
480,4,36,witch,2,1,1,2.1002,1,NA,F_Image_36.bmp-F_Lure_36.bmp,2,1,1
481,4,112,cone,3,2,0,3.4996,0,NA,S_Image_112.bmp-S_Lure_112.bmp,2,0,3
482,4,91,angel,3,1,1,0.82326,1,NA,O_Image_91.bmp-O_Lure_91.bmp,2,0,2
483,4,27,alcohol,3,1,1,1.1321,1,NA,F_Image_27.bmp-F_Lure_27.bmp,2,1,1
484,4,88,antique,3,2,2,0.69256,1,NA,O_Image_88.bmp-O_Lure_88.bmp,2,1,2
485,4,131,costume,3,1,1,0.89415,1,NA,S_Image_131.bmp-S_Lure_131.bmp,2,1,3
486,4,110,measles,3,1,2,2.936,0,NA,S_Image_110.bmp-S_Lure_110.bmp,2,0,3
487,4,90,sunshine,3,1,0,3.4996,0,NA,O_Image_90.bmp-O_Lure_90.bmp,2,1,2
488,4,137,animal,3,1,1,0.96194,1,NA,S_Image_137.bmp-S_Lure_137.bmp,2,0,3
489,4,106,alien,3,2,2,0.91287,1,NA,S_Image_106.bmp-S_Lure_106.bmp,2,1,3
490,4,133,water,3,1,1,1.6014,1,NA,S_Image_133.bmp-S_Lure_133.bmp,2,1,3
491,4,120,shell,3,1,1,1.7108,1,NA,S_Image_120.bmp-S_Lure_120.bmp,2,1,3
492,4,81,snow,3,2,1,1.3766,0,NA,O_Image_81.bmp-O_Lure_81.bmp,2,0,2
493,4,77,honeymoon,3,1,1,1.0235,1,NA,O_Image_77.bmp-O_Lure_77.bmp,2,0,2
494,4,104,crumb,3,1,0,3.5001,0,NA,S_Image_104.bmp-S_Lure_104.bmp,2,1,3
495,4,67,corner,3,1,1,1.3333,1,NA,O_Image_67.bmp-O_Lure_67.bmp,2,0,2
496,4,84,yellow,3,1,1,0.98181,1,NA,O_Image_84.bmp-O_Lure_84.bmp,2,0,2
497,4,50,wreck,3,1,1,1.2837,1,NA,O_Image_50.bmp-O_Lure_50.bmp,2,0,2
498,4,5,ghost,3,1,0,3.4998,0,NA,F_Image_5.bmp-F_Lure_5.bmp,2,1,1
499,4,31,hostage,3,2,2,1.6789,1,NA,F_Image_31.bmp-F_Lure_31.bmp,2,0,1
500,4,129,fire,3,2,2,2.225,1,NA,S_Image_129.bmp-S_Lure_129.bmp,2,0,3
501,4,33,black,3,2,2,1.1905,1,NA,F_Image_33.bmp-F_Lure_33.bmp,2,1,1
502,4,123,shadow,3,2,2,2.6041,1,NA,S_Image_123.bmp-S_Lure_123.bmp,2,1,3
503,4,141,tail,3,2,2,1.7133,1,NA,S_Image_141.bmp-S_Lure_141.bmp,2,1,3
504,4,97,fuel,3,2,2,1.6823,1,NA,S_Image_97.bmp-S_Lure_97.bmp,2,0,3
