Trial,Cond,ImageNum,Cue,Block,Correct,Response,RT,Accuracy,CueRep,fName,ImageType,Baseline,Category
1,1,30,NA,NA,NA,1,1.9445,NA,NA,F_Image_30.bmp,2,0,1
2,1,45,NA,NA,NA,2,0.18446,NA,NA,F_Lure_45.bmp,0,0,1
3,1,102,NA,NA,NA,2,1.6392,NA,NA,S_Image_102.bmp,2,1,3
4,1,116,NA,NA,NA,1,1.6519,NA,NA,S_Lure_116.bmp,0,1,3
5,1,140,NA,NA,NA,2,0.66468,NA,NA,S_Image_140.bmp,2,0,3
6,1,136,NA,NA,NA,2,0.64202,NA,NA,S_Image_136.bmp,1,0,3
7,1,43,NA,NA,NA,1,0.66807,NA,NA,F_Image_43.bmp,1,0,1
8,1,101,NA,NA,NA,2,0.774,NA,NA,S_Image_101.bmp,2,1,3
9,1,3,NA,NA,NA,2,0.54081,NA,NA,F_Lure_3.bmp,0,0,1
10,1,47,NA,NA,NA,1,0.10826,NA,NA,F_Image_47.bmp,1,1,1
11,1,95,NA,NA,NA,1,0.68344,NA,NA,O_Lure_95.bmp,0,1,2
12,1,85,NA,NA,NA,1,0.28555,NA,NA,O_Lure_85.bmp,0,0,2
13,1,88,NA,NA,NA,1,0.67093,NA,NA,O_Lure_88.bmp,0,1,2
14,1,104,NA,NA,NA,2,0.29768,NA,NA,S_Image_104.bmp,1,1,3
15,1,28,NA,NA,NA,2,0.827,NA,NA,F_Lure_28.bmp,0,0,1
16,1,143,NA,NA,NA,2,1.9744,NA,NA,S_Lure_143.bmp,0,1,3
17,1,63,NA,NA,NA,1,0.45318,NA,NA,O_Image_63.bmp,1,1,2
18,1,67,NA,NA,NA,1,0.72109,NA,NA,O_Lure_67.bmp,0,1,2
19,1,97,NA,NA,NA,2,20.353,NA,NA,S_Image_97.bmp,2,0,3
20,1,81,NA,NA,NA,1,0.34546,NA,NA,O_Lure_81.bmp,0,1,2
21,1,135,NA,NA,NA,1,0.52873,NA,NA,S_Image_135.bmp,2,0,3
22,1,100,NA,NA,NA,2,0.48827,NA,NA,S_Image_100.bmp,1,0,3
23,1,137,NA,NA,NA,1,0.29833,NA,NA,S_Image_137.bmp,2,0,3
24,1,42,NA,NA,NA,1,0.00012225,NA,NA,F_Image_42.bmp,1,1,1
25,1,54,NA,NA,NA,1,0.81095,NA,NA,O_Image_54.bmp,1,0,2
26,1,84,NA,NA,NA,1,0.4812,NA,NA,O_Lure_84.bmp,0,0,2
27,1,124,NA,NA,NA,1,1.4503,NA,NA,S_Image_124.bmp,2,1,3
28,1,78,NA,NA,NA,1,1.0791,NA,NA,O_Image_78.bmp,2,0,2
29,1,18,NA,NA,NA,1,0.23448,NA,NA,F_Image_18.bmp,1,1,1
30,1,92,NA,NA,NA,1,0.34245,NA,NA,O_Image_92.bmp,1,0,2
31,1,48,NA,NA,NA,1,0.43137,NA,NA,F_Lure_48.bmp,0,1,1
32,1,92,NA,NA,NA,1,0.25399,NA,NA,O_Lure_92.bmp,0,0,2
33,1,75,NA,NA,NA,1,0.32216,NA,NA,O_Lure_75.bmp,0,1,2
34,1,101,NA,NA,NA,1,0.51494,NA,NA,S_Lure_101.bmp,0,1,3
35,1,110,NA,NA,NA,2,2.012,NA,NA,S_Image_110.bmp,2,1,3
36,1,117,NA,NA,NA,2,0.57686,NA,NA,S_Lure_117.bmp,0,1,3
37,1,100,NA,NA,NA,2,0.71018,NA,NA,S_Lure_100.bmp,0,0,3
38,1,39,NA,NA,NA,2,1.5108,NA,NA,F_Lure_39.bmp,0,1,1
39,1,117,NA,NA,NA,2,1.2569,NA,NA,S_Image_117.bmp,1,1,3
40,1,113,NA,NA,NA,1,0.37302,NA,NA,S_Image_113.bmp,1,1,3
41,1,47,NA,NA,NA,1,0.28437,NA,NA,F_Lure_47.bmp,0,1,1
42,1,108,NA,NA,NA,1,0.35984,NA,NA,S_Lure_108.bmp,0,0,3
43,1,26,NA,NA,NA,1,0.35176,NA,NA,F_Image_26.bmp,1,0,1
44,1,125,NA,NA,NA,1,0.46274,NA,NA,S_Image_125.bmp,1,0,3
45,1,125,NA,NA,NA,1,0.42453,NA,NA,S_Lure_125.bmp,0,0,3
46,1,128,NA,NA,NA,1,1.4766,NA,NA,S_Image_128.bmp,1,0,3
47,1,132,NA,NA,NA,2,1.2807,NA,NA,S_Lure_132.bmp,0,1,3
48,1,67,NA,NA,NA,1,0.21757,NA,NA,O_Image_67.bmp,2,1,2
49,1,89,NA,NA,NA,1,0.17338,NA,NA,O_Lure_89.bmp,0,0,2
50,1,16,NA,NA,NA,1,0.0021335,NA,NA,F_Lure_16.bmp,0,1,1
51,1,81,NA,NA,NA,1,0.30423,NA,NA,O_Image_81.bmp,2,1,2
52,1,94,NA,NA,NA,1,0.28303,NA,NA,O_Lure_94.bmp,0,1,2
53,1,46,NA,NA,NA,2,0.054181,NA,NA,F_Image_46.bmp,1,1,1
54,1,59,NA,NA,NA,1,0.1056,NA,NA,O_Lure_59.bmp,0,1,2
55,1,23,NA,NA,NA,1,0.2996,NA,NA,F_Lure_23.bmp,0,1,1
56,1,24,NA,NA,NA,1,0.29502,NA,NA,F_Image_24.bmp,2,1,1
57,1,139,NA,NA,NA,2,0.37641,NA,NA,S_Image_139.bmp,1,0,3
58,1,21,NA,NA,NA,1,0.43041,NA,NA,F_Image_21.bmp,1,0,1
59,1,69,NA,NA,NA,1,0.33096,NA,NA,O_Image_69.bmp,1,0,2
60,1,137,NA,NA,NA,1,0.22789,NA,NA,S_Lure_137.bmp,0,0,3
61,1,50,NA,NA,NA,1,0.54451,NA,NA,O_Image_50.bmp,2,1,2
62,1,114,NA,NA,NA,1,1.4965,NA,NA,S_Lure_114.bmp,0,1,3
63,1,44,NA,NA,NA,1,0.22659,NA,NA,F_Image_44.bmp,2,1,1
64,1,9,NA,NA,NA,1,0.27866,NA,NA,F_Lure_9.bmp,0,1,1
65,1,65,NA,NA,NA,1,0.2813,NA,NA,O_Lure_65.bmp,0,0,2
66,1,32,NA,NA,NA,1,0.12401,NA,NA,F_Lure_32.bmp,0,0,1
67,1,91,NA,NA,NA,2,2.5141,NA,NA,O_Image_91.bmp,2,0,2
68,1,79,NA,NA,NA,1,0.32154,NA,NA,O_Image_79.bmp,2,1,2
69,1,18,NA,NA,NA,1,0.38634,NA,NA,F_Lure_18.bmp,0,1,1
70,1,44,NA,NA,NA,1,0.37821,NA,NA,F_Lure_44.bmp,0,1,1
71,1,35,NA,NA,NA,1,0.46631,NA,NA,F_Lure_35.bmp,0,0,1
72,1,66,NA,NA,NA,1,0.11035,NA,NA,O_Lure_66.bmp,0,0,2
73,1,23,NA,NA,NA,1,1.3203,NA,NA,F_Image_23.bmp,1,1,1
74,1,61,NA,NA,NA,1,0.22637,NA,NA,O_Lure_61.bmp,0,0,2
75,1,10,NA,NA,NA,1,0.2798,NA,NA,F_Lure_10.bmp,0,0,1
76,1,122,NA,NA,NA,2,0.7558,NA,NA,S_Image_122.bmp,2,1,3
77,1,36,NA,NA,NA,1,1.1552,NA,NA,F_Image_36.bmp,2,0,1
78,1,40,NA,NA,NA,1,0.35531,NA,NA,F_Image_40.bmp,1,0,1
79,1,53,NA,NA,NA,1,0.56056,NA,NA,O_Image_53.bmp,1,1,2
80,1,12,NA,NA,NA,1,0.84085,NA,NA,F_Image_12.bmp,2,0,1
81,1,31,NA,NA,NA,1,0.48595,NA,NA,F_Lure_31.bmp,0,1,1
82,1,111,NA,NA,NA,1,0.52858,NA,NA,S_Image_111.bmp,2,0,3
83,1,64,NA,NA,NA,1,0.28807,NA,NA,O_Lure_64.bmp,0,0,2
84,1,51,NA,NA,NA,1,0.29826,NA,NA,O_Image_51.bmp,2,1,2
85,1,112,NA,NA,NA,1,0.06823,NA,NA,S_Image_112.bmp,2,1,3
86,1,74,NA,NA,NA,1,0.26428,NA,NA,O_Lure_74.bmp,0,0,2
87,1,22,NA,NA,NA,1,0.45876,NA,NA,F_Image_22.bmp,2,0,1
88,1,52,NA,NA,NA,1,0.31162,NA,NA,O_Lure_52.bmp,0,1,2
89,1,126,NA,NA,NA,2,0.92094,NA,NA,S_Lure_126.bmp,0,0,3
90,1,136,NA,NA,NA,1,0.30574,NA,NA,S_Lure_136.bmp,0,0,3
91,1,120,NA,NA,NA,1,0.19513,NA,NA,S_Lure_120.bmp,0,1,3
92,1,85,NA,NA,NA,1,0.80909,NA,NA,O_Image_85.bmp,1,0,2
93,1,3,NA,NA,NA,2,1.4318,NA,NA,F_Image_3.bmp,1,0,1
94,1,111,NA,NA,NA,1,0.33319,NA,NA,S_Lure_111.bmp,0,0,3
95,1,60,NA,NA,NA,1,0.80664,NA,NA,O_Image_60.bmp,2,0,2
96,1,37,NA,NA,NA,1,0.11667,NA,NA,F_Lure_37.bmp,0,1,1
97,1,35,NA,NA,NA,1,0.30932,NA,NA,F_Image_35.bmp,2,0,1
98,1,119,NA,NA,NA,2,0.89601,NA,NA,S_Lure_119.bmp,0,1,3
99,1,37,NA,NA,NA,1,0.34546,NA,NA,F_Image_37.bmp,2,1,1
100,1,16,NA,NA,NA,1,0.17071,NA,NA,F_Image_16.bmp,2,1,1
101,1,38,NA,NA,NA,1,0.24211,NA,NA,F_Lure_38.bmp,0,1,1
102,1,112,NA,NA,NA,1,0.29355,NA,NA,S_Lure_112.bmp,0,1,3
103,1,130,NA,NA,NA,2,0.50963,NA,NA,S_Lure_130.bmp,0,0,3
104,1,144,NA,NA,NA,1,0.30358,NA,NA,S_Lure_144.bmp,0,1,3
105,1,60,NA,NA,NA,1,0.24307,NA,NA,O_Lure_60.bmp,0,0,2
106,1,8,NA,NA,NA,1,0.27903,NA,NA,F_Lure_8.bmp,0,0,1
107,1,132,NA,NA,NA,1,0.59374,NA,NA,S_Image_132.bmp,1,1,3
108,1,122,NA,NA,NA,2,0.28113,NA,NA,S_Lure_122.bmp,0,1,3
109,1,143,NA,NA,NA,2,0.69771,NA,NA,S_Image_143.bmp,2,1,3
110,1,107,NA,NA,NA,1,0.58053,NA,NA,S_Image_107.bmp,1,0,3
111,1,142,NA,NA,NA,2,1.3077,NA,NA,S_Image_142.bmp,1,1,3
112,1,29,NA,NA,NA,1,1.1427,NA,NA,F_Image_29.bmp,1,0,1
113,1,61,NA,NA,NA,1,0.31728,NA,NA,O_Image_61.bmp,1,0,2
114,1,57,NA,NA,NA,1,1.0227,NA,NA,O_Image_57.bmp,2,0,2
115,1,56,NA,NA,NA,1,0.31676,NA,NA,O_Image_56.bmp,2,0,2
116,1,96,NA,NA,NA,1,0.11658,NA,NA,O_Image_96.bmp,2,1,2
117,1,32,NA,NA,NA,1,0.22826,NA,NA,F_Image_32.bmp,2,0,1
118,1,99,NA,NA,NA,2,1.0493,NA,NA,S_Lure_99.bmp,0,0,3
119,1,5,NA,NA,NA,1,0.34223,NA,NA,F_Lure_5.bmp,0,0,1
120,1,17,NA,NA,NA,1,0.32695,NA,NA,F_Image_17.bmp,1,1,1
121,1,80,NA,NA,NA,1,0.62496,NA,NA,O_Lure_80.bmp,0,1,2
122,1,33,NA,NA,NA,2,0.4137,NA,NA,F_Lure_33.bmp,0,0,1
123,1,119,NA,NA,NA,1,0.010469,NA,NA,S_Image_119.bmp,1,1,3
124,1,80,NA,NA,NA,1,0.30384,NA,NA,O_Image_80.bmp,1,1,2
125,1,94,NA,NA,NA,1,0.42583,NA,NA,O_Image_94.bmp,1,1,2
126,1,41,NA,NA,NA,2,0.68585,NA,NA,F_Image_41.bmp,2,1,1
127,1,121,NA,NA,NA,1,2.3992,NA,NA,S_Lure_121.bmp,0,0,3
128,1,118,NA,NA,NA,1,0.95856,NA,NA,S_Lure_118.bmp,0,1,3
129,1,118,NA,NA,NA,1,1.1566,NA,NA,S_Image_118.bmp,1,1,3
130,1,15,NA,NA,NA,2,0.75752,NA,NA,F_Lure_15.bmp,0,0,1
131,1,54,NA,NA,NA,1,0.33938,NA,NA,O_Lure_54.bmp,0,0,2
132,1,83,NA,NA,NA,1,0.29283,NA,NA,O_Image_83.bmp,2,0,2
133,1,133,NA,NA,NA,2,1.3601,NA,NA,S_Lure_133.bmp,0,1,3
134,1,93,NA,NA,NA,1,0.23894,NA,NA,O_Image_93.bmp,1,1,2
135,1,141,NA,NA,NA,1,0.36343,NA,NA,S_Lure_141.bmp,0,0,3
136,1,2,NA,NA,NA,1,0.29174,NA,NA,F_Image_2.bmp,2,1,1
137,1,8,NA,NA,NA,1,0.39169,NA,NA,F_Image_8.bmp,1,0,1
138,1,106,NA,NA,NA,2,2.1803,NA,NA,S_Lure_106.bmp,0,0,3
139,1,49,NA,NA,NA,1,0.30711,NA,NA,O_Image_49.bmp,2,0,2
140,1,29,NA,NA,NA,1,0.34859,NA,NA,F_Lure_29.bmp,0,0,1
141,1,130,NA,NA,NA,2,0.30111,NA,NA,S_Image_130.bmp,1,0,3
142,1,75,NA,NA,NA,1,0.39199,NA,NA,O_Image_75.bmp,2,1,2
143,1,68,NA,NA,NA,1,0.75661,NA,NA,O_Lure_68.bmp,0,1,2
144,1,24,NA,NA,NA,1,0.33998,NA,NA,F_Lure_24.bmp,0,1,1
145,1,139,NA,NA,NA,2,0.5647,NA,NA,S_Lure_139.bmp,0,0,3
146,1,115,NA,NA,NA,2,1.0587,NA,NA,S_Image_115.bmp,2,0,3
147,1,138,NA,NA,NA,1,0.28692,NA,NA,S_Lure_138.bmp,0,1,3
148,1,141,NA,NA,NA,1,0.37808,NA,NA,S_Image_141.bmp,1,0,3
149,1,65,NA,NA,NA,1,0.29621,NA,NA,O_Image_65.bmp,1,0,2
150,1,103,NA,NA,NA,1,0.13084,NA,NA,S_Image_103.bmp,2,1,3
151,1,86,NA,NA,NA,1,0.28959,NA,NA,O_Image_86.bmp,2,0,2
152,1,31,NA,NA,NA,1,0.49085,NA,NA,F_Image_31.bmp,1,1,1
153,1,27,NA,NA,NA,1,0.48564,NA,NA,F_Lure_27.bmp,0,1,1
154,1,123,NA,NA,NA,1,0.43171,NA,NA,S_Image_123.bmp,2,1,3
155,1,62,NA,NA,NA,1,0.33241,NA,NA,O_Image_62.bmp,1,1,2
156,1,98,NA,NA,NA,1,0.41378,NA,NA,S_Image_98.bmp,2,0,3
157,1,84,NA,NA,NA,1,0.40174,NA,NA,O_Image_84.bmp,2,0,2
158,1,71,NA,NA,NA,1,0.35061,NA,NA,O_Lure_71.bmp,0,1,2
159,1,21,NA,NA,NA,1,0.85335,NA,NA,F_Lure_21.bmp,0,0,1
160,1,76,NA,NA,NA,1,0.1612,NA,NA,O_Lure_76.bmp,0,0,2
161,1,105,NA,NA,NA,2,0.84056,NA,NA,S_Image_105.bmp,2,0,3
162,1,56,NA,NA,NA,1,0.30087,NA,NA,O_Lure_56.bmp,0,0,2
163,1,99,NA,NA,NA,2,0.18945,NA,NA,S_Image_99.bmp,2,0,3
164,1,45,NA,NA,NA,2,1.7314,NA,NA,F_Image_45.bmp,2,0,1
165,1,104,NA,NA,NA,2,1.0049,NA,NA,S_Lure_104.bmp,0,1,3
166,1,62,NA,NA,NA,1,2.2021,NA,NA,O_Lure_62.bmp,0,1,2
167,1,91,NA,NA,NA,1,0.14408,NA,NA,O_Lure_91.bmp,0,0,2
168,1,58,NA,NA,NA,1,0.2636,NA,NA,O_Image_58.bmp,1,1,2
169,1,4,NA,NA,NA,1,0.81901,NA,NA,F_Image_4.bmp,2,0,1
170,1,134,NA,NA,NA,2,1.2236,NA,NA,S_Lure_134.bmp,0,1,3
171,1,1,NA,NA,NA,1,0.33384,NA,NA,F_Image_1.bmp,2,0,1
172,1,51,NA,NA,NA,1,0.31176,NA,NA,O_Lure_51.bmp,0,1,2
173,1,13,NA,NA,NA,1,0.85773,NA,NA,F_Lure_13.bmp,0,1,1
174,1,144,NA,NA,NA,1,1.5018,NA,NA,S_Image_144.bmp,2,1,3
175,1,36,NA,NA,NA,1,0.44043,NA,NA,F_Lure_36.bmp,0,0,1
176,1,88,NA,NA,NA,1,0.6999,NA,NA,O_Image_88.bmp,1,1,2
177,1,25,NA,NA,NA,1,1.126,NA,NA,F_Lure_25.bmp,0,1,1
178,1,134,NA,NA,NA,1,1.19,NA,NA,S_Image_134.bmp,2,1,3
179,1,86,NA,NA,NA,1,0.40337,NA,NA,O_Lure_86.bmp,0,0,2
180,1,87,NA,NA,NA,1,0.0014869,NA,NA,O_Lure_87.bmp,0,0,2
181,1,127,NA,NA,NA,1,0.37493,NA,NA,S_Lure_127.bmp,0,1,3
182,1,49,NA,NA,NA,1,0.28605,NA,NA,O_Lure_49.bmp,0,0,2
183,1,69,NA,NA,NA,1,0.89618,NA,NA,O_Lure_69.bmp,0,0,2
184,1,30,NA,NA,NA,1,0.54562,NA,NA,F_Lure_30.bmp,0,0,1
185,1,129,NA,NA,NA,2,0.78374,NA,NA,S_Image_129.bmp,1,0,3
186,1,105,NA,NA,NA,2,1.565,NA,NA,S_Lure_105.bmp,0,0,3
187,1,57,NA,NA,NA,1,0.31513,NA,NA,O_Lure_57.bmp,0,0,2
188,1,98,NA,NA,NA,1,0.062481,NA,NA,S_Lure_98.bmp,0,0,3
189,1,95,NA,NA,NA,1,0.40213,NA,NA,O_Image_95.bmp,1,1,2
190,1,102,NA,NA,NA,1,4.1358,NA,NA,S_Lure_102.bmp,0,1,3
191,1,138,NA,NA,NA,1,0.3447,NA,NA,S_Image_138.bmp,1,1,3
192,1,42,NA,NA,NA,1,0.34462,NA,NA,F_Lure_42.bmp,0,1,1
193,1,83,NA,NA,NA,1,0.88133,NA,NA,O_Lure_83.bmp,0,0,2
194,1,73,NA,NA,NA,1,0.29358,NA,NA,O_Lure_73.bmp,0,0,2
195,1,50,NA,NA,NA,1,0.33689,NA,NA,O_Lure_50.bmp,0,1,2
196,1,120,NA,NA,NA,1,0.51277,NA,NA,S_Image_120.bmp,1,1,3
197,1,124,NA,NA,NA,1,0.85751,NA,NA,S_Lure_124.bmp,0,1,3
198,1,12,NA,NA,NA,1,0.32433,NA,NA,F_Lure_12.bmp,0,0,1
199,1,20,NA,NA,NA,1,0.26975,NA,NA,F_Lure_20.bmp,0,1,1
200,1,11,NA,NA,NA,1,1.1777,NA,NA,F_Image_11.bmp,2,0,1
201,1,14,NA,NA,NA,1,0.52054,NA,NA,F_Image_14.bmp,2,1,1
202,1,33,NA,NA,NA,1,0.29772,NA,NA,F_Image_33.bmp,2,0,1
203,1,123,NA,NA,NA,1,1.1939,NA,NA,S_Lure_123.bmp,0,1,3
204,1,7,NA,NA,NA,1,0.31144,NA,NA,F_Lure_7.bmp,0,1,1
205,1,74,NA,NA,NA,1,0.32109,NA,NA,O_Image_74.bmp,1,0,2
206,1,127,NA,NA,NA,1,1.0343,NA,NA,S_Image_127.bmp,2,1,3
207,1,22,NA,NA,NA,1,2.9018,NA,NA,F_Lure_22.bmp,0,0,1
208,1,66,NA,NA,NA,1,0.29472,NA,NA,O_Image_66.bmp,1,0,2
209,1,106,NA,NA,NA,1,1.1047,NA,NA,S_Image_106.bmp,2,0,3
210,1,53,NA,NA,NA,1,0.34685,NA,NA,O_Lure_53.bmp,0,1,2
211,1,126,NA,NA,NA,2,0.58683,NA,NA,S_Image_126.bmp,1,0,3
212,1,28,NA,NA,NA,1,0.29824,NA,NA,F_Image_28.bmp,2,0,1
213,1,11,NA,NA,NA,1,0.54823,NA,NA,F_Lure_11.bmp,0,0,1
214,1,131,NA,NA,NA,2,0.36561,NA,NA,S_Lure_131.bmp,0,0,3
215,1,90,NA,NA,NA,1,0.26764,NA,NA,O_Lure_90.bmp,0,0,2
216,1,108,NA,NA,NA,1,0.39035,NA,NA,S_Image_108.bmp,1,0,3
217,1,26,NA,NA,NA,1,0.35503,NA,NA,F_Lure_26.bmp,0,0,1
218,1,72,NA,NA,NA,1,0.3544,NA,NA,O_Image_72.bmp,2,1,2
219,1,59,NA,NA,NA,1,0.39388,NA,NA,O_Image_59.bmp,2,1,2
220,1,41,NA,NA,NA,1,1.8324,NA,NA,F_Lure_41.bmp,0,1,1
221,1,114,NA,NA,NA,1,0.51524,NA,NA,S_Image_114.bmp,1,1,3
222,1,68,NA,NA,NA,1,0.30059,NA,NA,O_Image_68.bmp,2,1,2
223,1,79,NA,NA,NA,1,2.03,NA,NA,O_Lure_79.bmp,0,1,2
224,1,131,NA,NA,NA,2,1.1126,NA,NA,S_Image_131.bmp,1,0,3
225,1,27,NA,NA,NA,1,0.37674,NA,NA,F_Image_27.bmp,1,1,1
226,1,52,NA,NA,NA,1,0.32753,NA,NA,O_Image_52.bmp,1,1,2
227,1,14,NA,NA,NA,1,0.3022,NA,NA,F_Lure_14.bmp,0,1,1
228,1,140,NA,NA,NA,1,2.4955,NA,NA,S_Lure_140.bmp,0,0,3
229,1,39,NA,NA,NA,2,0.40831,NA,NA,F_Image_39.bmp,1,1,1
230,1,129,NA,NA,NA,1,0.012366,NA,NA,S_Lure_129.bmp,0,0,3
231,1,25,NA,NA,NA,1,1.6817,NA,NA,F_Image_25.bmp,2,1,1
232,1,55,NA,NA,NA,1,0.43508,NA,NA,O_Image_55.bmp,1,1,2
233,1,89,NA,NA,NA,1,0.44699,NA,NA,O_Image_89.bmp,2,0,2
234,1,96,NA,NA,NA,1,0.41246,NA,NA,O_Lure_96.bmp,0,1,2
235,1,90,NA,NA,NA,1,0.30594,NA,NA,O_Image_90.bmp,1,0,2
236,1,6,NA,NA,NA,1,0.36997,NA,NA,F_Lure_6.bmp,0,0,1
237,1,109,NA,NA,NA,1,0.37598,NA,NA,S_Lure_109.bmp,0,0,3
238,1,82,NA,NA,NA,1,0.35949,NA,NA,O_Lure_82.bmp,0,0,2
239,1,73,NA,NA,NA,1,0.3654,NA,NA,O_Image_73.bmp,1,0,2
240,1,48,NA,NA,NA,1,0.30922,NA,NA,F_Image_48.bmp,1,1,1
241,1,121,NA,NA,NA,1,0.2948,NA,NA,S_Image_121.bmp,1,0,3
242,1,103,NA,NA,NA,1,0.29812,NA,NA,S_Lure_103.bmp,0,1,3
243,1,70,NA,NA,NA,1,0.40496,NA,NA,O_Lure_70.bmp,0,1,2
244,1,93,NA,NA,NA,1,0.25818,NA,NA,O_Lure_93.bmp,0,1,2
245,1,71,NA,NA,NA,1,0.29499,NA,NA,O_Image_71.bmp,1,1,2
246,1,17,NA,NA,NA,1,0.6731,NA,NA,F_Lure_17.bmp,0,1,1
247,1,5,NA,NA,NA,1,2.2042,NA,NA,F_Image_5.bmp,1,0,1
248,1,113,NA,NA,NA,1,0.36913,NA,NA,S_Lure_113.bmp,0,1,3
249,1,115,NA,NA,NA,2,0.038335,NA,NA,S_Lure_115.bmp,0,0,3
250,1,2,NA,NA,NA,1,0.34447,NA,NA,F_Lure_2.bmp,0,1,1
251,1,77,NA,NA,NA,1,1.6666,NA,NA,O_Lure_77.bmp,0,1,2
252,1,7,NA,NA,NA,1,0.28512,NA,NA,F_Image_7.bmp,1,1,1
253,1,1,NA,NA,NA,1,1.0306,NA,NA,F_Lure_1.bmp,0,0,1
254,1,82,NA,NA,NA,1,0.3707,NA,NA,O_Image_82.bmp,1,0,2
255,1,58,NA,NA,NA,1,0.33806,NA,NA,O_Lure_58.bmp,0,1,2
256,1,34,NA,NA,NA,1,0.37065,NA,NA,F_Lure_34.bmp,0,0,1
257,1,46,NA,NA,NA,2,0.050142,NA,NA,F_Lure_46.bmp,0,1,1
258,1,78,NA,NA,NA,1,1.1014,NA,NA,O_Lure_78.bmp,0,0,2
259,1,63,NA,NA,NA,1,0.5243,NA,NA,O_Lure_63.bmp,0,1,2
260,1,19,NA,NA,NA,2,0.35701,NA,NA,F_Image_19.bmp,1,1,1
261,1,128,NA,NA,NA,1,1.8429,NA,NA,S_Lure_128.bmp,0,0,3
262,1,97,NA,NA,NA,2,1.2523,NA,NA,S_Lure_97.bmp,0,0,3
263,1,64,NA,NA,NA,1,0.28911,NA,NA,O_Image_64.bmp,1,0,2
264,1,43,NA,NA,NA,1,0.65996,NA,NA,F_Lure_43.bmp,0,0,1
265,1,4,NA,NA,NA,1,1.3425,NA,NA,F_Lure_4.bmp,0,0,1
266,1,110,NA,NA,NA,1,0.35852,NA,NA,S_Lure_110.bmp,0,1,3
267,1,15,NA,NA,NA,2,1.0786,NA,NA,F_Image_15.bmp,2,0,1
268,1,13,NA,NA,NA,1,0.42936,NA,NA,F_Image_13.bmp,1,1,1
269,1,133,NA,NA,NA,2,0.57803,NA,NA,S_Image_133.bmp,2,1,3
270,1,87,NA,NA,NA,1,0.40008,NA,NA,O_Image_87.bmp,2,0,2
271,1,109,NA,NA,NA,1,0.49469,NA,NA,S_Image_109.bmp,1,0,3
272,1,72,NA,NA,NA,1,0.13018,NA,NA,O_Lure_72.bmp,0,1,2
273,1,20,NA,NA,NA,1,0.41684,NA,NA,F_Image_20.bmp,2,1,1
274,1,6,NA,NA,NA,1,1.2001,NA,NA,F_Image_6.bmp,1,0,1
275,1,9,NA,NA,NA,1,0.48688,NA,NA,F_Image_9.bmp,2,1,1
276,1,135,NA,NA,NA,1,0.36165,NA,NA,S_Lure_135.bmp,0,0,3
277,1,142,NA,NA,NA,1,1.0012,NA,NA,S_Lure_142.bmp,0,1,3
278,1,116,NA,NA,NA,1,0.26983,NA,NA,S_Image_116.bmp,2,1,3
279,1,107,NA,NA,NA,1,0.35178,NA,NA,S_Lure_107.bmp,0,0,3
280,1,34,NA,NA,NA,1,0.087738,NA,NA,F_Image_34.bmp,1,0,1
281,1,19,NA,NA,NA,1,0.00012527,NA,NA,F_Lure_19.bmp,0,1,1
282,1,38,NA,NA,NA,1,0.98277,NA,NA,F_Image_38.bmp,1,1,1
283,1,55,NA,NA,NA,1,0.38871,NA,NA,O_Lure_55.bmp,0,1,2
284,1,10,NA,NA,NA,1,0.35388,NA,NA,F_Image_10.bmp,2,0,1
285,1,76,NA,NA,NA,1,0.328,NA,NA,O_Image_76.bmp,2,0,2
286,1,70,NA,NA,NA,1,0.35006,NA,NA,O_Image_70.bmp,2,1,2
287,1,77,NA,NA,NA,1,0.31476,NA,NA,O_Image_77.bmp,2,1,2
288,1,40,NA,NA,NA,1,0.31347,NA,NA,F_Lure_40.bmp,0,0,1
289,2,43,animal,1,1,1,1.6111,1,NA,F_Image_43.bmp-F_Lure_43.bmp,1,0,1
290,2,121,giant,1,2,2,1.9151,1,NA,S_Image_121.bmp-S_Lure_121.bmp,1,0,3
291,2,131,sunshine,1,2,2,2.7399,1,NA,S_Image_131.bmp-S_Lure_131.bmp,1,0,3
292,2,31,tube,1,2,2,1.348,1,NA,F_Image_31.bmp-F_Lure_31.bmp,1,1,1
293,2,46,spike,1,2,2,1.2512,1,NA,F_Image_46.bmp-F_Lure_46.bmp,1,1,1
294,2,92,tail,1,2,2,1.1587,1,NA,O_Image_92.bmp-O_Lure_92.bmp,1,0,2
295,2,55,rock,1,2,2,1.8378,1,NA,O_Image_55.bmp-O_Lure_55.bmp,1,1,2
296,2,95,tourist,1,2,1,1.5136,0,NA,O_Image_95.bmp-O_Lure_95.bmp,1,1,2
297,2,73,wound,1,2,1,2.0183,0,NA,O_Image_73.bmp-O_Lure_73.bmp,1,0,2
298,2,13,scar,1,2,0,3.4996,0,NA,F_Image_13.bmp-F_Lure_13.bmp,1,1,1
299,2,61,seed,1,2,0,3.4999,0,NA,O_Image_61.bmp-O_Lure_61.bmp,1,0,2
300,2,139,breakfast,1,1,0,3.4996,0,NA,S_Image_139.bmp-S_Lure_139.bmp,1,0,3
301,2,104,bubble,1,1,1,1.6915,1,NA,S_Image_104.bmp-S_Lure_104.bmp,1,1,3
302,2,128,arch,1,2,2,1.2537,1,NA,S_Image_128.bmp-S_Lure_128.bmp,1,0,3
303,2,17,flood,1,1,1,1.1212,1,NA,F_Image_17.bmp-F_Lure_17.bmp,1,1,1
304,2,66,antique,1,2,2,0.82602,1,NA,O_Image_66.bmp-O_Lure_66.bmp,1,0,2
305,2,114,costume,1,1,1,1.3262,1,NA,S_Image_114.bmp-S_Lure_114.bmp,1,1,3
306,2,109,vegetable,1,1,1,1.0464,1,NA,S_Image_109.bmp-S_Lure_109.bmp,1,0,3
307,2,125,arrow,1,1,2,1.4815,0,NA,S_Image_125.bmp-S_Lure_125.bmp,1,0,3
308,2,120,stem,1,1,2,1.6918,0,NA,S_Image_120.bmp-S_Lure_120.bmp,1,1,3
309,2,5,marble,1,2,2,1.221,1,NA,F_Image_5.bmp-F_Lure_5.bmp,1,0,1
310,2,54,sweat,1,2,2,1.314,1,NA,O_Image_54.bmp-O_Lure_54.bmp,1,0,2
311,2,34,wreck,1,1,2,0.9707,0,NA,F_Image_34.bmp-F_Lure_34.bmp,1,0,1
312,2,48,fuel,1,1,1,1.0653,1,NA,F_Image_48.bmp-F_Lure_48.bmp,1,1,1
313,3,128,arch,1,2,1,1.1522,0,NA,S_Image_128.bmp-S_Lure_128.bmp,1,0,3
314,3,104,bubble,1,1,1,1.1429,1,NA,S_Image_104.bmp-S_Lure_104.bmp,1,1,3
315,3,131,sunshine,1,2,2,0.94251,1,NA,S_Image_131.bmp-S_Lure_131.bmp,1,0,3
316,3,92,tail,1,1,1,1.158,1,NA,O_Image_92.bmp-O_Lure_92.bmp,1,0,2
317,3,66,antique,1,1,1,2.3013,1,NA,O_Image_66.bmp-O_Lure_66.bmp,1,0,2
318,3,109,vegetable,1,1,1,0.83075,1,NA,S_Image_109.bmp-S_Lure_109.bmp,1,0,3
319,3,5,marble,1,2,2,0.80292,1,NA,F_Image_5.bmp-F_Lure_5.bmp,1,0,1
320,3,17,flood,1,1,1,1.6159,1,NA,F_Image_17.bmp-F_Lure_17.bmp,1,1,1
321,3,43,animal,1,2,2,1.1409,1,NA,F_Image_43.bmp-F_Lure_43.bmp,1,0,1
322,3,31,tube,1,1,1,1.2698,1,NA,F_Image_31.bmp-F_Lure_31.bmp,1,1,1
323,3,120,stem,1,2,2,1.0158,1,NA,S_Image_120.bmp-S_Lure_120.bmp,1,1,3
324,3,121,giant,1,2,2,1.7407,1,NA,S_Image_121.bmp-S_Lure_121.bmp,1,0,3
325,3,114,costume,1,2,2,1.4048,1,NA,S_Image_114.bmp-S_Lure_114.bmp,1,1,3
326,3,73,wound,1,2,1,2.3058,0,NA,O_Image_73.bmp-O_Lure_73.bmp,1,0,2
327,3,34,wreck,1,1,1,1.4755,1,NA,F_Image_34.bmp-F_Lure_34.bmp,1,0,1
328,3,125,arrow,1,2,1,1.9654,0,NA,S_Image_125.bmp-S_Lure_125.bmp,1,0,3
329,3,46,spike,1,1,1,1.3963,1,NA,F_Image_46.bmp-F_Lure_46.bmp,1,1,1
330,3,54,sweat,1,1,1,1.2177,1,NA,O_Image_54.bmp-O_Lure_54.bmp,1,0,2
331,3,13,scar,1,1,1,1.0627,1,NA,F_Image_13.bmp-F_Lure_13.bmp,1,1,1
332,3,61,seed,1,2,2,0.84121,1,NA,O_Image_61.bmp-O_Lure_61.bmp,1,0,2
333,3,139,breakfast,1,2,2,1.9815,1,NA,S_Image_139.bmp-S_Lure_139.bmp,1,0,3
334,3,48,fuel,1,1,1,1.2034,1,NA,F_Image_48.bmp-F_Lure_48.bmp,1,1,1
335,3,55,rock,1,1,2,1.0169,0,NA,O_Image_55.bmp-O_Lure_55.bmp,1,1,2
336,3,95,tourist,1,1,2,1.0138,0,NA,O_Image_95.bmp-O_Lure_95.bmp,1,1,2
337,2,23,stripe,2,2,0,3.4995,0,NA,F_Image_23.bmp-F_Lure_23.bmp,1,1,1
338,2,69,honeymoon,2,2,2,0.70038,1,NA,O_Image_69.bmp-O_Lure_69.bmp,1,0,2
339,2,138,menu,2,2,2,1.1015,1,NA,S_Image_138.bmp-S_Lure_138.bmp,1,1,3
340,2,117,snow,2,1,1,1.079,1,NA,S_Image_117.bmp-S_Lure_117.bmp,1,1,3
341,2,6,army,2,2,2,1.121,1,NA,F_Image_6.bmp-F_Lure_6.bmp,1,0,1
342,2,53,lever,2,2,2,0.83387,1,NA,O_Image_53.bmp-O_Lure_53.bmp,1,1,2
343,2,142,spray,2,1,1,1.7817,1,NA,S_Image_142.bmp-S_Lure_142.bmp,1,1,3
344,2,82,alcohol,2,1,2,0.94012,0,NA,O_Image_82.bmp-O_Lure_82.bmp,1,0,2
345,2,94,poison,2,2,2,1.1323,1,NA,O_Image_94.bmp-O_Lure_94.bmp,1,1,2
346,2,85,paper,2,1,1,1.18,1,NA,O_Image_85.bmp-O_Lure_85.bmp,1,0,2
347,2,3,crumb,2,2,2,1.0022,1,NA,F_Image_3.bmp-F_Lure_3.bmp,1,0,1
348,2,141,galaxy,2,1,1,1.6155,1,NA,S_Image_141.bmp-S_Lure_141.bmp,1,0,3
349,2,126,rust,2,1,1,1.3724,1,NA,S_Image_126.bmp-S_Lure_126.bmp,1,0,3
350,2,118,wool,2,2,2,1.1474,1,NA,S_Image_118.bmp-S_Lure_118.bmp,1,1,3
351,2,39,fire,2,2,2,1.0025,1,NA,F_Image_39.bmp-F_Lure_39.bmp,1,1,1
352,2,90,asphalt,2,2,1,1.5921,0,NA,O_Image_90.bmp-O_Lure_90.bmp,1,0,2
353,2,27,magnet,2,1,2,1.1736,0,NA,F_Image_27.bmp-F_Lure_27.bmp,1,1,1
354,2,47,orchestra,2,2,1,1.2441,0,NA,F_Image_47.bmp-F_Lure_47.bmp,1,1,1
355,2,107,slope,2,2,1,1.016,0,NA,S_Image_107.bmp-S_Lure_107.bmp,1,0,3
356,2,38,angel,2,2,2,0.93233,1,NA,F_Image_38.bmp-F_Lure_38.bmp,1,1,1
357,2,29,measles,2,2,2,1.0364,1,NA,F_Image_29.bmp-F_Lure_29.bmp,1,0,1
358,2,63,hurricane,2,2,1,1.3527,0,NA,O_Image_63.bmp-O_Lure_63.bmp,1,1,2
359,2,19,sand,2,2,2,1.3928,1,NA,F_Image_19.bmp-F_Lure_19.bmp,1,1,1
360,2,58,signal,2,1,1,1.1575,1,NA,O_Image_58.bmp-O_Lure_58.bmp,1,1,2
361,3,117,snow,2,2,2,1.3601,1,NA,S_Image_117.bmp-S_Lure_117.bmp,1,1,3
362,3,82,alcohol,2,2,1,1.239,0,NA,O_Image_82.bmp-O_Lure_82.bmp,1,0,2
363,3,118,wool,2,1,1,0.98705,1,NA,S_Image_118.bmp-S_Lure_118.bmp,1,1,3
364,3,141,galaxy,2,1,1,0.91298,1,NA,S_Image_141.bmp-S_Lure_141.bmp,1,0,3
365,3,58,signal,2,1,1,0.75409,1,NA,O_Image_58.bmp-O_Lure_58.bmp,1,1,2
366,3,6,army,2,2,2,0.82528,1,NA,F_Image_6.bmp-F_Lure_6.bmp,1,0,1
367,3,94,poison,2,1,1,0.94931,1,NA,O_Image_94.bmp-O_Lure_94.bmp,1,1,2
368,3,38,angel,2,1,1,1.0847,1,NA,F_Image_38.bmp-F_Lure_38.bmp,1,1,1
369,3,126,rust,2,2,2,1.4713,1,NA,S_Image_126.bmp-S_Lure_126.bmp,1,0,3
370,3,69,honeymoon,2,2,2,0.72979,1,NA,O_Image_69.bmp-O_Lure_69.bmp,1,0,2
371,3,19,sand,2,1,1,0.89007,1,NA,F_Image_19.bmp-F_Lure_19.bmp,1,1,1
372,3,63,hurricane,2,2,2,0.46012,1,NA,O_Image_63.bmp-O_Lure_63.bmp,1,1,2
373,3,85,paper,2,1,1,1.1427,1,NA,O_Image_85.bmp-O_Lure_85.bmp,1,0,2
374,3,39,fire,2,1,1,0.79025,1,NA,F_Image_39.bmp-F_Lure_39.bmp,1,1,1
375,3,27,magnet,2,1,1,1.0042,1,NA,F_Image_27.bmp-F_Lure_27.bmp,1,1,1
376,3,138,menu,2,2,1,0.82548,0,NA,S_Image_138.bmp-S_Lure_138.bmp,1,1,3
377,3,3,crumb,2,2,1,1.1735,0,NA,F_Image_3.bmp-F_Lure_3.bmp,1,0,1
378,3,53,lever,2,1,1,1.0291,1,NA,O_Image_53.bmp-O_Lure_53.bmp,1,1,2
379,3,90,asphalt,2,2,1,0.89643,0,NA,O_Image_90.bmp-O_Lure_90.bmp,1,0,2
380,3,29,measles,2,1,1,1.6342,1,NA,F_Image_29.bmp-F_Lure_29.bmp,1,0,1
381,3,142,spray,2,1,2,1.5341,0,NA,S_Image_142.bmp-S_Lure_142.bmp,1,1,3
382,3,47,orchestra,2,2,1,1.1824,0,NA,F_Image_47.bmp-F_Lure_47.bmp,1,1,1
383,3,107,slope,2,1,2,1.2682,0,NA,S_Image_107.bmp-S_Lure_107.bmp,1,0,3
384,3,23,stripe,2,2,1,1.1669,0,NA,F_Image_23.bmp-F_Lure_23.bmp,1,1,1
385,2,62,drizzle,3,2,2,1.0938,1,NA,O_Image_62.bmp-O_Lure_62.bmp,1,1,2
386,2,40,witch,3,2,2,1.0076,1,NA,F_Image_40.bmp-F_Lure_40.bmp,1,0,1
387,2,18,alien,3,2,2,1.0127,1,NA,F_Image_18.bmp-F_Lure_18.bmp,1,1,1
388,2,108,shadow,3,1,1,1.1773,1,NA,S_Image_108.bmp-S_Lure_108.bmp,1,0,3
389,2,119,ghost,3,1,1,1.5518,1,NA,S_Image_119.bmp-S_Lure_119.bmp,1,1,3
390,2,21,cone,3,1,1,1.5509,1,NA,F_Image_21.bmp-F_Lure_21.bmp,1,0,1
391,2,7,water,3,2,2,1.4943,1,NA,F_Image_7.bmp-F_Lure_7.bmp,1,1,1
392,2,64,shell,3,2,2,0.89602,1,NA,O_Image_64.bmp-O_Lure_64.bmp,1,0,2
393,2,65,hostage,3,1,1,1.3214,1,NA,O_Image_65.bmp-O_Lure_65.bmp,1,0,2
394,2,80,yellow,3,1,1,1.0822,1,NA,O_Image_80.bmp-O_Lure_80.bmp,1,1,2
395,2,88,board,3,2,2,1.0924,1,NA,O_Image_88.bmp-O_Lure_88.bmp,1,1,2
396,2,113,quake,3,2,2,1.2135,1,NA,S_Image_113.bmp-S_Lure_113.bmp,1,1,3
397,2,136,triangle,3,2,2,1.3303,1,NA,S_Image_136.bmp-S_Lure_136.bmp,1,0,3
398,2,52,laundry,3,1,1,1.0185,1,NA,O_Image_52.bmp-O_Lure_52.bmp,1,1,2
399,2,130,money,3,1,1,1.5755,1,NA,S_Image_130.bmp-S_Lure_130.bmp,1,0,3
400,2,8,harem,3,2,2,2.0133,1,NA,F_Image_8.bmp-F_Lure_8.bmp,1,0,1
401,2,100,cloud,3,2,2,1.6822,1,NA,S_Image_100.bmp-S_Lure_100.bmp,1,0,3
402,2,74,attack,3,2,2,1.4922,1,NA,O_Image_74.bmp-O_Lure_74.bmp,1,0,2
403,2,71,corner,3,2,2,0.76561,1,NA,O_Image_71.bmp-O_Lure_71.bmp,1,1,2
404,2,132,tear,3,2,1,1.7086,0,NA,S_Image_132.bmp-S_Lure_132.bmp,1,1,3
405,2,42,black,3,2,2,1.261,1,NA,F_Image_42.bmp-F_Lure_42.bmp,1,1,1
406,2,93,kiss,3,2,2,0.87982,1,NA,O_Image_93.bmp-O_Lure_93.bmp,1,1,2
407,2,26,corpse,3,2,2,1.058,1,NA,F_Image_26.bmp-F_Lure_26.bmp,1,0,1
408,2,129,steam,3,1,1,1.4454,1,NA,S_Image_129.bmp-S_Lure_129.bmp,1,0,3
409,3,88,board,3,1,1,0.93243,1,NA,O_Image_88.bmp-O_Lure_88.bmp,1,1,2
410,3,93,kiss,3,2,2,0.71621,1,NA,O_Image_93.bmp-O_Lure_93.bmp,1,1,2
411,3,42,black,3,1,1,0.95737,1,NA,F_Image_42.bmp-F_Lure_42.bmp,1,1,1
412,3,7,water,3,1,1,1.2526,1,NA,F_Image_7.bmp-F_Lure_7.bmp,1,1,1
413,3,21,cone,3,1,1,0.71974,1,NA,F_Image_21.bmp-F_Lure_21.bmp,1,0,1
414,3,71,corner,3,2,2,1.2249,1,NA,O_Image_71.bmp-O_Lure_71.bmp,1,1,2
415,3,100,cloud,3,1,1,0.99731,1,NA,S_Image_100.bmp-S_Lure_100.bmp,1,0,3
416,3,64,shell,3,1,1,1.1948,1,NA,O_Image_64.bmp-O_Lure_64.bmp,1,0,2
417,3,108,shadow,3,1,1,0.85638,1,NA,S_Image_108.bmp-S_Lure_108.bmp,1,0,3
418,3,65,hostage,3,2,2,0.81192,1,NA,O_Image_65.bmp-O_Lure_65.bmp,1,0,2
419,3,62,drizzle,3,2,2,0.92029,1,NA,O_Image_62.bmp-O_Lure_62.bmp,1,1,2
420,3,132,tear,3,2,2,1.4414,1,NA,S_Image_132.bmp-S_Lure_132.bmp,1,1,3
421,3,40,witch,3,1,1,1.6052,1,NA,F_Image_40.bmp-F_Lure_40.bmp,1,0,1
422,3,26,corpse,3,2,2,1.1629,1,NA,F_Image_26.bmp-F_Lure_26.bmp,1,0,1
423,3,113,quake,3,1,1,1.0255,1,NA,S_Image_113.bmp-S_Lure_113.bmp,1,1,3
424,3,18,alien,3,2,2,1.1818,1,NA,F_Image_18.bmp-F_Lure_18.bmp,1,1,1
425,3,136,triangle,3,1,2,0.85189,0,NA,S_Image_136.bmp-S_Lure_136.bmp,1,0,3
426,3,129,steam,3,1,1,1.1271,1,NA,S_Image_129.bmp-S_Lure_129.bmp,1,0,3
427,3,52,laundry,3,2,2,0.99145,1,NA,O_Image_52.bmp-O_Lure_52.bmp,1,1,2
428,3,74,attack,3,1,1,1.5174,1,NA,O_Image_74.bmp-O_Lure_74.bmp,1,0,2
429,3,119,ghost,3,2,2,1.182,1,NA,S_Image_119.bmp-S_Lure_119.bmp,1,1,3
430,3,130,money,3,2,2,1.5161,1,NA,S_Image_130.bmp-S_Lure_130.bmp,1,0,3
431,3,8,harem,3,2,2,1.0044,1,NA,F_Image_8.bmp-F_Lure_8.bmp,1,0,1
432,3,80,yellow,3,2,2,0.69794,1,NA,O_Image_80.bmp-O_Lure_80.bmp,1,1,2
433,4,137,shell,1,2,2,1.4812,1,NA,S_Image_137.bmp-S_Lure_137.bmp,2,0,3
434,4,127,drizzle,1,2,1,1.0752,0,NA,S_Image_127.bmp-S_Lure_127.bmp,2,1,3
435,4,134,tube,1,2,2,0.74187,1,NA,S_Image_134.bmp-S_Lure_134.bmp,2,1,3
436,4,1,giant,1,1,1,0.92578,1,NA,F_Image_1.bmp-F_Lure_1.bmp,2,0,1
437,4,144,tourist,1,2,2,0.76579,1,NA,S_Image_144.bmp-S_Lure_144.bmp,2,1,3
438,4,111,paper,1,1,2,0.88453,0,NA,S_Image_111.bmp-S_Lure_111.bmp,2,0,3
439,4,49,witch,1,2,2,1.2068,1,NA,O_Image_49.bmp-O_Lure_49.bmp,2,0,2
440,4,133,poison,1,1,1,0.97196,1,NA,S_Image_133.bmp-S_Lure_133.bmp,2,1,3
441,4,101,signal,1,1,2,0.73861,0,NA,S_Image_101.bmp-S_Lure_101.bmp,2,1,3
442,4,143,sand,1,1,1,2.0255,1,NA,S_Image_143.bmp-S_Lure_143.bmp,2,1,3
443,4,11,honeymoon,1,1,1,0.79754,1,NA,F_Image_11.bmp-F_Lure_11.bmp,2,0,1
444,4,122,kiss,1,1,1,1.171,1,NA,S_Image_122.bmp-S_Lure_122.bmp,2,1,3
445,4,97,wreck,1,2,2,1.162,1,NA,S_Image_97.bmp-S_Lure_97.bmp,2,0,3
446,4,2,laundry,1,1,1,1.0726,1,NA,F_Image_2.bmp-F_Lure_2.bmp,2,1,1
447,4,76,money,1,2,1,0.82772,0,NA,O_Image_76.bmp-O_Lure_76.bmp,2,0,2
448,4,12,attack,1,2,1,1.3353,0,NA,F_Image_12.bmp-F_Lure_12.bmp,2,0,1
449,4,10,wound,1,2,2,1.0474,1,NA,F_Image_10.bmp-F_Lure_10.bmp,2,0,1
450,4,4,cloud,1,1,1,0.84305,1,NA,F_Image_4.bmp-F_Lure_4.bmp,2,0,1
451,4,35,arrow,1,2,1,0.86274,0,NA,F_Image_35.bmp-F_Lure_35.bmp,2,0,1
452,4,102,spike,1,1,1,1.0733,1,NA,S_Image_102.bmp-S_Lure_102.bmp,2,1,3
453,4,140,antique,1,2,2,1.2437,1,NA,S_Image_140.bmp-S_Lure_140.bmp,2,0,3
454,4,83,triangle,1,2,2,1.4556,1,NA,O_Image_83.bmp-O_Lure_83.bmp,2,0,2
455,4,36,sweat,1,1,1,0.95503,1,NA,F_Image_36.bmp-F_Lure_36.bmp,2,0,1
456,4,91,steam,1,2,2,0.88213,1,NA,O_Image_91.bmp-O_Lure_91.bmp,2,0,2
457,4,37,stem,2,2,2,1.2123,1,NA,F_Image_37.bmp-F_Lure_37.bmp,2,1,1
458,4,103,orchestra,2,2,2,1.2569,1,NA,S_Image_103.bmp-S_Lure_103.bmp,2,1,3
459,4,84,corpse,2,1,1,1.1559,1,NA,O_Image_84.bmp-O_Lure_84.bmp,2,0,2
460,4,57,shadow,2,2,2,1.2992,1,NA,O_Image_57.bmp-O_Lure_57.bmp,2,0,2
461,4,33,tail,2,1,1,1.1009,1,NA,F_Image_33.bmp-F_Lure_33.bmp,2,0,1
462,4,87,measles,2,2,1,1.2134,0,NA,O_Image_87.bmp-O_Lure_87.bmp,2,0,2
463,4,22,seed,2,2,2,1.1863,1,NA,F_Image_22.bmp-F_Lure_22.bmp,2,0,1
464,4,105,animal,2,1,1,2.0083,1,NA,S_Image_105.bmp-S_Lure_105.bmp,2,0,3
465,4,9,wool,2,2,2,1.1582,1,NA,F_Image_9.bmp-F_Lure_9.bmp,2,1,1
466,4,41,tear,2,1,1,1.2692,1,NA,F_Image_41.bmp-F_Lure_41.bmp,2,1,1
467,4,60,galaxy,2,1,2,0.824,0,NA,O_Image_60.bmp-O_Lure_60.bmp,2,0,2
468,4,115,asphalt,2,1,1,1.1407,1,NA,S_Image_115.bmp-S_Lure_115.bmp,2,0,3
469,4,67,bubble,2,2,2,0.92488,1,NA,O_Image_67.bmp-O_Lure_67.bmp,2,1,2
470,4,99,hostage,2,1,1,1.5659,1,NA,S_Image_99.bmp-S_Lure_99.bmp,2,0,3
471,4,68,ghost,2,2,2,0.92437,1,NA,O_Image_68.bmp-O_Lure_68.bmp,2,1,2
472,4,50,magnet,2,1,1,0.92533,1,NA,O_Image_50.bmp-O_Lure_50.bmp,2,1,2
473,4,98,cone,2,2,1,1.3333,0,NA,S_Image_98.bmp-S_Lure_98.bmp,2,0,3
474,4,56,breakfast,2,2,2,0.97334,1,NA,O_Image_56.bmp-O_Lure_56.bmp,2,0,2
475,4,79,scar,2,2,2,1.0282,1,NA,O_Image_79.bmp-O_Lure_79.bmp,2,1,2
476,4,116,fire,2,1,1,1.5201,1,NA,S_Image_116.bmp-S_Lure_116.bmp,2,1,3
477,4,77,snow,2,2,2,1.2973,1,NA,O_Image_77.bmp-O_Lure_77.bmp,2,1,2
478,4,15,rust,2,2,1,0.93055,0,NA,F_Image_15.bmp-F_Lure_15.bmp,2,0,1
479,4,96,stripe,2,2,2,0.68248,1,NA,O_Image_96.bmp-O_Lure_96.bmp,2,1,2
480,4,32,arch,2,2,2,1.1248,1,NA,F_Image_32.bmp-F_Lure_32.bmp,2,0,1
481,4,112,yellow,3,2,0,3.4999,0,NA,S_Image_112.bmp-S_Lure_112.bmp,2,1,3
482,4,14,rock,3,2,2,0.76693,1,NA,F_Image_14.bmp-F_Lure_14.bmp,2,1,1
483,4,28,alcohol,3,1,1,1.0297,1,NA,F_Image_28.bmp-F_Lure_28.bmp,2,0,1
484,4,89,harem,3,2,2,0.81819,1,NA,O_Image_89.bmp-O_Lure_89.bmp,2,0,2
485,4,75,spray,3,1,2,0.82274,0,NA,O_Image_75.bmp-O_Lure_75.bmp,2,1,2
486,4,110,lever,3,2,2,1.1474,1,NA,S_Image_110.bmp-S_Lure_110.bmp,2,1,3
487,4,123,angel,3,1,1,1.2107,1,NA,S_Image_123.bmp-S_Lure_123.bmp,2,1,3
488,4,124,flood,3,2,2,0.95155,1,NA,S_Image_124.bmp-S_Lure_124.bmp,2,1,3
489,4,30,sunshine,3,1,1,0.83106,1,NA,F_Image_30.bmp-F_Lure_30.bmp,2,0,1
490,4,81,alien,3,1,2,1.0431,0,NA,O_Image_81.bmp-O_Lure_81.bmp,2,1,2
491,4,135,army,3,1,1,1.4707,1,NA,S_Image_135.bmp-S_Lure_135.bmp,2,0,3
492,4,44,menu,3,2,1,1.6653,0,NA,F_Image_44.bmp-F_Lure_44.bmp,2,1,1
493,4,16,hurricane,3,2,2,1.1801,1,NA,F_Image_16.bmp-F_Lure_16.bmp,2,1,1
494,4,106,marble,3,1,2,1.4663,0,NA,S_Image_106.bmp-S_Lure_106.bmp,2,0,3
495,4,70,costume,3,1,1,2.1727,1,NA,O_Image_70.bmp-O_Lure_70.bmp,2,1,2
496,4,72,black,3,2,2,1.3078,1,NA,O_Image_72.bmp-O_Lure_72.bmp,2,1,2
497,4,51,water,3,2,2,1.253,1,NA,O_Image_51.bmp-O_Lure_51.bmp,2,1,2
498,4,86,vegetable,3,2,2,0.86445,1,NA,O_Image_86.bmp-O_Lure_86.bmp,2,0,2
499,4,24,corner,3,1,2,1.8112,0,NA,F_Image_24.bmp-F_Lure_24.bmp,2,1,1
500,4,25,board,3,2,2,1.1119,1,NA,F_Image_25.bmp-F_Lure_25.bmp,2,1,1
501,4,59,fuel,3,2,2,0.00011953,1,NA,O_Image_59.bmp-O_Lure_59.bmp,2,1,2
502,4,78,crumb,3,2,2,0.80648,1,NA,O_Image_78.bmp-O_Lure_78.bmp,2,0,2
503,4,45,slope,3,1,1,1.0836,1,NA,F_Image_45.bmp-F_Lure_45.bmp,2,0,1
504,4,20,quake,3,2,1,1.262,0,NA,F_Image_20.bmp-F_Lure_20.bmp,2,1,1
