Trial,Cond,ImageNum,Cue,Block,Correct,Response,RT,Accuracy,CueRep,fName,ImageType,Baseline,Category
1,1,68,NA,NA,NA,1,1.9491,NA,NA,O_Lure_68.bmp,0,1,2
2,1,136,NA,NA,NA,2,2.338,NA,NA,S_Image_136.bmp,1,0,3
3,1,13,NA,NA,NA,1,0.37431,NA,NA,F_Image_13.bmp,1,1,1
4,1,37,NA,NA,NA,1,0.89041,NA,NA,F_Lure_37.bmp,0,1,1
5,1,5,NA,NA,NA,1,0.92099,NA,NA,F_Image_5.bmp,1,0,1
6,1,22,NA,NA,NA,2,0.94989,NA,NA,F_Lure_22.bmp,0,1,1
7,1,44,NA,NA,NA,1,1.0345,NA,NA,F_Lure_44.bmp,0,1,1
8,1,125,NA,NA,NA,1,1.2591,NA,NA,S_Lure_125.bmp,0,1,3
9,1,35,NA,NA,NA,2,1.0981,NA,NA,F_Lure_35.bmp,0,1,1
10,1,34,NA,NA,NA,1,0.8832,NA,NA,F_Image_34.bmp,1,0,1
11,1,84,NA,NA,NA,1,1.1772,NA,NA,O_Image_84.bmp,2,1,2
12,1,107,NA,NA,NA,1,0.76386,NA,NA,S_Lure_107.bmp,0,0,3
13,1,86,NA,NA,NA,2,1.0946,NA,NA,O_Lure_86.bmp,0,0,2
14,1,40,NA,NA,NA,1,0.93139,NA,NA,F_Lure_40.bmp,0,1,1
15,1,128,NA,NA,NA,2,1.3116,NA,NA,S_Image_128.bmp,2,0,3
16,1,55,NA,NA,NA,1,0.97222,NA,NA,O_Image_55.bmp,2,0,2
17,1,2,NA,NA,NA,1,0.91885,NA,NA,F_Lure_2.bmp,0,1,1
18,1,42,NA,NA,NA,1,1.0989,NA,NA,F_Image_42.bmp,2,0,1
19,1,126,NA,NA,NA,2,1.0643,NA,NA,S_Lure_126.bmp,0,1,3
20,1,108,NA,NA,NA,2,1.3417,NA,NA,S_Image_108.bmp,1,0,3
21,1,114,NA,NA,NA,1,0.57831,NA,NA,S_Lure_114.bmp,0,0,3
22,1,87,NA,NA,NA,1,0.60507,NA,NA,O_Lure_87.bmp,0,0,2
23,1,56,NA,NA,NA,1,0.82253,NA,NA,O_Lure_56.bmp,0,0,2
24,1,104,NA,NA,NA,2,0.83866,NA,NA,S_Image_104.bmp,1,1,3
25,1,85,NA,NA,NA,1,0.37529,NA,NA,O_Image_85.bmp,1,0,2
26,1,102,NA,NA,NA,2,0.41935,NA,NA,S_Lure_102.bmp,0,1,3
27,1,23,NA,NA,NA,1,0.49932,NA,NA,F_Lure_23.bmp,0,1,1
28,1,6,NA,NA,NA,1,0.21614,NA,NA,F_Lure_6.bmp,0,1,1
29,1,33,NA,NA,NA,1,0.10822,NA,NA,F_Lure_33.bmp,0,1,1
30,1,131,NA,NA,NA,2,0.37887,NA,NA,S_Lure_131.bmp,0,1,3
31,1,82,NA,NA,NA,1,0.19685,NA,NA,O_Lure_82.bmp,0,0,2
32,1,113,NA,NA,NA,1,0.2889,NA,NA,S_Lure_113.bmp,0,1,3
33,1,122,NA,NA,NA,2,0.56692,NA,NA,S_Lure_122.bmp,0,1,3
34,1,58,NA,NA,NA,1,0.95366,NA,NA,O_Image_58.bmp,1,0,2
35,1,112,NA,NA,NA,1,0.83765,NA,NA,S_Lure_112.bmp,0,1,3
36,1,97,NA,NA,NA,2,0.96525,NA,NA,S_Lure_97.bmp,0,0,3
37,1,72,NA,NA,NA,1,0.68767,NA,NA,O_Image_72.bmp,1,0,2
38,1,9,NA,NA,NA,1,0.45446,NA,NA,F_Lure_9.bmp,0,1,1
39,1,20,NA,NA,NA,1,0.43051,NA,NA,F_Lure_20.bmp,0,0,1
40,1,91,NA,NA,NA,2,0.7605,NA,NA,O_Lure_91.bmp,0,0,2
41,1,19,NA,NA,NA,1,0.43464,NA,NA,F_Lure_19.bmp,0,0,1
42,1,4,NA,NA,NA,1,0.60355,NA,NA,F_Lure_4.bmp,0,0,1
43,1,34,NA,NA,NA,1,0.2286,NA,NA,F_Lure_34.bmp,0,0,1
44,1,42,NA,NA,NA,1,0.30072,NA,NA,F_Lure_42.bmp,0,0,1
45,1,14,NA,NA,NA,1,0.27484,NA,NA,F_Image_14.bmp,1,1,1
46,1,46,NA,NA,NA,2,0.00011591,NA,NA,F_Image_46.bmp,2,1,1
47,1,135,NA,NA,NA,1,0.28224,NA,NA,S_Lure_135.bmp,0,1,3
48,1,132,NA,NA,NA,2,0.24958,NA,NA,S_Lure_132.bmp,0,0,3
49,1,80,NA,NA,NA,1,0.21618,NA,NA,O_Image_80.bmp,2,1,2
50,1,122,NA,NA,NA,2,0.6043,NA,NA,S_Image_122.bmp,1,1,3
51,1,98,NA,NA,NA,2,0.16567,NA,NA,S_Lure_98.bmp,0,1,3
52,1,117,NA,NA,NA,2,0.31848,NA,NA,S_Image_117.bmp,1,1,3
53,1,95,NA,NA,NA,1,0.34834,NA,NA,O_Lure_95.bmp,0,0,2
54,1,105,NA,NA,NA,2,0.24927,NA,NA,S_Lure_105.bmp,0,0,3
55,1,109,NA,NA,NA,1,0.28315,NA,NA,S_Lure_109.bmp,0,0,3
56,1,137,NA,NA,NA,1,0.23478,NA,NA,S_Image_137.bmp,2,0,3
57,1,95,NA,NA,NA,1,0.24455,NA,NA,O_Image_95.bmp,2,0,2
58,1,57,NA,NA,NA,1,0.20593,NA,NA,O_Image_57.bmp,2,1,2
59,1,61,NA,NA,NA,1,0.2347,NA,NA,O_Lure_61.bmp,0,1,2
60,1,118,NA,NA,NA,1,0.29931,NA,NA,S_Image_118.bmp,2,1,3
61,1,30,NA,NA,NA,1,0.21804,NA,NA,F_Image_30.bmp,1,0,1
62,1,129,NA,NA,NA,2,0.26017,NA,NA,S_Image_129.bmp,1,1,3
63,1,139,NA,NA,NA,1,0.28344,NA,NA,S_Image_139.bmp,1,0,3
64,1,21,NA,NA,NA,1,0.26814,NA,NA,F_Lure_21.bmp,0,0,1
65,1,81,NA,NA,NA,1,0.23619,NA,NA,O_Lure_81.bmp,0,0,2
66,1,15,NA,NA,NA,2,0.26356,NA,NA,F_Image_15.bmp,1,0,1
67,1,52,NA,NA,NA,1,0.23092,NA,NA,O_Image_52.bmp,1,0,2
68,1,50,NA,NA,NA,1,0.56892,NA,NA,O_Image_50.bmp,1,1,2
69,1,7,NA,NA,NA,1,0.38767,NA,NA,F_Lure_7.bmp,0,0,1
70,1,73,NA,NA,NA,1,0.00011229,NA,NA,O_Image_73.bmp,2,1,2
71,1,110,NA,NA,NA,2,0.22536,NA,NA,S_Image_110.bmp,2,1,3
72,1,71,NA,NA,NA,1,0.33784,NA,NA,O_Image_71.bmp,2,0,2
73,1,66,NA,NA,NA,1,0.51929,NA,NA,O_Image_66.bmp,1,0,2
74,1,124,NA,NA,NA,2,0.29389,NA,NA,S_Image_124.bmp,2,1,3
75,1,3,NA,NA,NA,2,0.29212,NA,NA,F_Image_3.bmp,1,0,1
76,1,76,NA,NA,NA,1,0.3053,NA,NA,O_Image_76.bmp,2,0,2
77,1,46,NA,NA,NA,2,0.32869,NA,NA,F_Lure_46.bmp,0,1,1
78,1,49,NA,NA,NA,1,0.30943,NA,NA,O_Lure_49.bmp,0,1,2
79,1,36,NA,NA,NA,1,0.50014,NA,NA,F_Lure_36.bmp,0,1,1
80,1,61,NA,NA,NA,1,0.33203,NA,NA,O_Image_61.bmp,2,1,2
81,1,89,NA,NA,NA,1,0.34625,NA,NA,O_Lure_89.bmp,0,0,2
82,1,105,NA,NA,NA,2,0.39093,NA,NA,S_Image_105.bmp,1,0,3
83,1,140,NA,NA,NA,1,0.30573,NA,NA,S_Image_140.bmp,2,1,3
84,1,135,NA,NA,NA,1,0.26362,NA,NA,S_Image_135.bmp,2,1,3
85,1,7,NA,NA,NA,1,0.28697,NA,NA,F_Image_7.bmp,2,0,1
86,1,62,NA,NA,NA,1,0.33509,NA,NA,O_Lure_62.bmp,0,0,2
87,1,4,NA,NA,NA,1,0.33256,NA,NA,F_Image_4.bmp,2,0,1
88,1,63,NA,NA,NA,1,0.42518,NA,NA,O_Lure_63.bmp,0,1,2
89,1,132,NA,NA,NA,2,0.25915,NA,NA,S_Image_132.bmp,2,0,3
90,1,88,NA,NA,NA,1,0.28249,NA,NA,O_Image_88.bmp,2,0,2
91,1,74,NA,NA,NA,1,0.27412,NA,NA,O_Lure_74.bmp,0,1,2
92,1,60,NA,NA,NA,1,0.23473,NA,NA,O_Image_60.bmp,2,1,2
93,1,63,NA,NA,NA,1,0.27677,NA,NA,O_Image_63.bmp,1,1,2
94,1,79,NA,NA,NA,1,0.35028,NA,NA,O_Lure_79.bmp,0,0,2
95,1,5,NA,NA,NA,1,0.25093,NA,NA,F_Lure_5.bmp,0,0,1
96,1,48,NA,NA,NA,1,0.24411,NA,NA,F_Lure_48.bmp,0,1,1
97,1,25,NA,NA,NA,1,0.24557,NA,NA,F_Image_25.bmp,1,1,1
98,1,43,NA,NA,NA,1,0.22371,NA,NA,F_Lure_43.bmp,0,0,1
99,1,27,NA,NA,NA,1,0.20218,NA,NA,F_Image_27.bmp,1,1,1
100,1,39,NA,NA,NA,2,0.31757,NA,NA,F_Image_39.bmp,2,1,1
101,1,116,NA,NA,NA,1,0.43562,NA,NA,S_Image_116.bmp,1,0,3
102,1,130,NA,NA,NA,2,0.28494,NA,NA,S_Lure_130.bmp,0,0,3
103,1,118,NA,NA,NA,1,0.2919,NA,NA,S_Lure_118.bmp,0,1,3
104,1,137,NA,NA,NA,1,0.04376,NA,NA,S_Lure_137.bmp,0,0,3
105,1,45,NA,NA,NA,2,0.68238,NA,NA,F_Lure_45.bmp,0,1,1
106,1,59,NA,NA,NA,1,0.72253,NA,NA,O_Image_59.bmp,1,1,2
107,1,78,NA,NA,NA,1,0.28051,NA,NA,O_Lure_78.bmp,0,1,2
108,1,25,NA,NA,NA,1,0.3921,NA,NA,F_Lure_25.bmp,0,1,1
109,1,70,NA,NA,NA,1,0.28395,NA,NA,O_Lure_70.bmp,0,1,2
110,1,133,NA,NA,NA,2,0.38654,NA,NA,S_Lure_133.bmp,0,0,3
111,1,75,NA,NA,NA,1,0.37268,NA,NA,O_Image_75.bmp,2,0,2
112,1,38,NA,NA,NA,1,0.48807,NA,NA,F_Lure_38.bmp,0,1,1
113,1,110,NA,NA,NA,2,0.29617,NA,NA,S_Lure_110.bmp,0,1,3
114,1,129,NA,NA,NA,2,0.3668,NA,NA,S_Lure_129.bmp,0,1,3
115,1,106,NA,NA,NA,2,0.67224,NA,NA,S_Lure_106.bmp,0,1,3
116,1,75,NA,NA,NA,1,0.4635,NA,NA,O_Lure_75.bmp,0,0,2
117,1,23,NA,NA,NA,1,0.29632,NA,NA,F_Image_23.bmp,2,1,1
118,1,141,NA,NA,NA,1,0.45575,NA,NA,S_Image_141.bmp,2,1,3
119,1,121,NA,NA,NA,2,0.31296,NA,NA,S_Image_121.bmp,1,0,3
120,1,18,NA,NA,NA,1,0.39171,NA,NA,F_Image_18.bmp,1,1,1
121,1,144,NA,NA,NA,1,0.32305,NA,NA,S_Image_144.bmp,1,0,3
122,1,85,NA,NA,NA,1,0.40932,NA,NA,O_Lure_85.bmp,0,0,2
123,1,41,NA,NA,NA,1,1.4124,NA,NA,F_Lure_41.bmp,0,0,1
124,1,64,NA,NA,NA,1,0.42401,NA,NA,O_Image_64.bmp,1,1,2
125,1,113,NA,NA,NA,1,0.46606,NA,NA,S_Image_113.bmp,2,1,3
126,1,19,NA,NA,NA,1,0.33057,NA,NA,F_Image_19.bmp,2,0,1
127,1,89,NA,NA,NA,1,0.24218,NA,NA,O_Image_89.bmp,2,0,2
128,1,101,NA,NA,NA,2,0.30006,NA,NA,S_Image_101.bmp,2,1,3
129,1,54,NA,NA,NA,1,0.45075,NA,NA,O_Image_54.bmp,1,0,2
130,1,44,NA,NA,NA,1,0.27084,NA,NA,F_Image_44.bmp,1,1,1
131,1,117,NA,NA,NA,2,0.2803,NA,NA,S_Lure_117.bmp,0,1,3
132,1,51,NA,NA,NA,1,0.00011651,NA,NA,O_Lure_51.bmp,0,0,2
133,1,83,NA,NA,NA,1,0.1884,NA,NA,O_Lure_83.bmp,0,0,2
134,1,27,NA,NA,NA,1,0.44892,NA,NA,F_Lure_27.bmp,0,1,1
135,1,98,NA,NA,NA,1,0.25822,NA,NA,S_Image_98.bmp,2,1,3
136,1,2,NA,NA,NA,1,0.22794,NA,NA,F_Image_2.bmp,1,1,1
137,1,127,NA,NA,NA,1,0.20648,NA,NA,S_Image_127.bmp,2,0,3
138,1,52,NA,NA,NA,1,0.27432,NA,NA,O_Lure_52.bmp,0,0,2
139,1,115,NA,NA,NA,2,1.0346,NA,NA,S_Image_115.bmp,1,0,3
140,1,8,NA,NA,NA,1,0.26807,NA,NA,F_Lure_8.bmp,0,1,1
141,1,53,NA,NA,NA,1,0.11723,NA,NA,O_Image_53.bmp,2,1,2
142,1,138,NA,NA,NA,2,0.33192,NA,NA,S_Image_138.bmp,1,0,3
143,1,49,NA,NA,NA,1,0.28137,NA,NA,O_Image_49.bmp,1,1,2
144,1,120,NA,NA,NA,2,0.25803,NA,NA,S_Lure_120.bmp,0,1,3
145,1,11,NA,NA,NA,1,0.2668,NA,NA,F_Lure_11.bmp,0,0,1
146,1,66,NA,NA,NA,1,0.26872,NA,NA,O_Lure_66.bmp,0,0,2
147,1,120,NA,NA,NA,2,0.31631,NA,NA,S_Image_120.bmp,2,1,3
148,1,81,NA,NA,NA,1,0.35364,NA,NA,O_Image_81.bmp,2,0,2
149,1,114,NA,NA,NA,1,0.51031,NA,NA,S_Image_114.bmp,1,0,3
150,1,56,NA,NA,NA,1,0.47627,NA,NA,O_Image_56.bmp,1,0,2
151,1,39,NA,NA,NA,2,0.34093,NA,NA,F_Lure_39.bmp,0,1,1
152,1,139,NA,NA,NA,1,0.31236,NA,NA,S_Lure_139.bmp,0,0,3
153,1,69,NA,NA,NA,1,0.31964,NA,NA,O_Lure_69.bmp,0,1,2
154,1,141,NA,NA,NA,1,0.31059,NA,NA,S_Lure_141.bmp,0,1,3
155,1,130,NA,NA,NA,2,0.2446,NA,NA,S_Image_130.bmp,1,0,3
156,1,96,NA,NA,NA,1,0.24593,NA,NA,O_Image_96.bmp,2,1,2
157,1,121,NA,NA,NA,2,0.10321,NA,NA,S_Lure_121.bmp,0,0,3
158,1,16,NA,NA,NA,1,0.20653,NA,NA,F_Lure_16.bmp,0,0,1
159,1,13,NA,NA,NA,1,0.22587,NA,NA,F_Lure_13.bmp,0,1,1
160,1,101,NA,NA,NA,2,0.15598,NA,NA,S_Lure_101.bmp,0,1,3
161,1,18,NA,NA,NA,1,0.26286,NA,NA,F_Lure_18.bmp,0,1,1
162,1,3,NA,NA,NA,2,0.24806,NA,NA,F_Lure_3.bmp,0,0,1
163,1,1,NA,NA,NA,1,0.15294,NA,NA,F_Lure_1.bmp,0,0,1
164,1,43,NA,NA,NA,1,0.23013,NA,NA,F_Image_43.bmp,2,0,1
165,1,76,NA,NA,NA,1,0.25693,NA,NA,O_Lure_76.bmp,0,0,2
166,1,47,NA,NA,NA,1,0.65883,NA,NA,F_Image_47.bmp,2,0,1
167,1,12,NA,NA,NA,1,0.23627,NA,NA,F_Image_12.bmp,1,1,1
168,1,80,NA,NA,NA,1,0.50152,NA,NA,O_Lure_80.bmp,0,1,2
169,1,111,NA,NA,NA,2,0.013091,NA,NA,S_Image_111.bmp,1,0,3
170,1,10,NA,NA,NA,1,0.39196,NA,NA,F_Lure_10.bmp,0,0,1
171,1,138,NA,NA,NA,1,0.40374,NA,NA,S_Lure_138.bmp,0,0,3
172,1,30,NA,NA,NA,1,0.25579,NA,NA,F_Lure_30.bmp,0,0,1
173,1,20,NA,NA,NA,1,0.23313,NA,NA,F_Image_20.bmp,1,0,1
174,1,36,NA,NA,NA,1,0.26726,NA,NA,F_Image_36.bmp,2,1,1
175,1,51,NA,NA,NA,1,0.31591,NA,NA,O_Image_51.bmp,1,0,2
176,1,12,NA,NA,NA,1,0.25191,NA,NA,F_Lure_12.bmp,0,1,1
177,1,50,NA,NA,NA,1,0.5507,NA,NA,O_Lure_50.bmp,0,1,2
178,1,140,NA,NA,NA,1,0.25865,NA,NA,S_Lure_140.bmp,0,1,3
179,1,109,NA,NA,NA,1,0.29215,NA,NA,S_Image_109.bmp,2,0,3
180,1,67,NA,NA,NA,1,0.26007,NA,NA,O_Image_67.bmp,2,1,2
181,1,88,NA,NA,NA,1,0.2281,NA,NA,O_Lure_88.bmp,0,0,2
182,1,24,NA,NA,NA,1,0.23087,NA,NA,F_Lure_24.bmp,0,0,1
183,1,87,NA,NA,NA,1,0.10482,NA,NA,O_Image_87.bmp,1,0,2
184,1,9,NA,NA,NA,1,0.33508,NA,NA,F_Image_9.bmp,1,1,1
185,1,73,NA,NA,NA,1,0.3164,NA,NA,O_Lure_73.bmp,0,1,2
186,1,99,NA,NA,NA,2,0.29906,NA,NA,S_Image_99.bmp,1,0,3
187,1,6,NA,NA,NA,1,0.28178,NA,NA,F_Image_6.bmp,1,1,1
188,1,142,NA,NA,NA,2,0.049673,NA,NA,S_Image_142.bmp,2,0,3
189,1,71,NA,NA,NA,1,0.3324,NA,NA,O_Lure_71.bmp,0,0,2
190,1,31,NA,NA,NA,1,0.29914,NA,NA,F_Lure_31.bmp,0,0,1
191,1,123,NA,NA,NA,2,0.25803,NA,NA,S_Image_123.bmp,1,0,3
192,1,1,NA,NA,NA,1,0.3298,NA,NA,F_Image_1.bmp,2,0,1
193,1,69,NA,NA,NA,1,0.39984,NA,NA,O_Image_69.bmp,2,1,2
194,1,26,NA,NA,NA,1,0.17732,NA,NA,F_Lure_26.bmp,0,1,1
195,1,107,NA,NA,NA,1,0.26075,NA,NA,S_Image_107.bmp,2,0,3
196,1,29,NA,NA,NA,1,0.30075,NA,NA,F_Lure_29.bmp,0,0,1
197,1,142,NA,NA,NA,2,0.26812,NA,NA,S_Lure_142.bmp,0,0,3
198,1,54,NA,NA,NA,1,0.39542,NA,NA,O_Lure_54.bmp,0,0,2
199,1,41,NA,NA,NA,1,0.6075,NA,NA,F_Image_41.bmp,2,0,1
200,1,37,NA,NA,NA,1,0.26694,NA,NA,F_Image_37.bmp,2,1,1
201,1,119,NA,NA,NA,2,0.36415,NA,NA,S_Lure_119.bmp,0,1,3
202,1,111,NA,NA,NA,2,0.77751,NA,NA,S_Lure_111.bmp,0,0,3
203,1,58,NA,NA,NA,1,0.34044,NA,NA,O_Lure_58.bmp,0,0,2
204,1,84,NA,NA,NA,1,0.31548,NA,NA,O_Lure_84.bmp,0,1,2
205,1,16,NA,NA,NA,1,0.20966,NA,NA,F_Image_16.bmp,2,0,1
206,1,100,NA,NA,NA,2,0.00011742,NA,NA,S_Image_100.bmp,1,0,3
207,1,57,NA,NA,NA,1,0.28321,NA,NA,O_Lure_57.bmp,0,1,2
208,1,92,NA,NA,NA,1,0.33255,NA,NA,O_Lure_92.bmp,0,1,2
209,1,53,NA,NA,NA,1,0.32322,NA,NA,O_Lure_53.bmp,0,1,2
210,1,112,NA,NA,NA,1,0.3068,NA,NA,S_Image_112.bmp,2,1,3
211,1,125,NA,NA,NA,1,0.46459,NA,NA,S_Image_125.bmp,1,1,3
212,1,102,NA,NA,NA,2,0.21059,NA,NA,S_Image_102.bmp,1,1,3
213,1,32,NA,NA,NA,1,0.30674,NA,NA,F_Image_32.bmp,2,0,1
214,1,8,NA,NA,NA,1,0.29003,NA,NA,F_Image_8.bmp,2,1,1
215,1,65,NA,NA,NA,1,0.28272,NA,NA,O_Lure_65.bmp,0,1,2
216,1,144,NA,NA,NA,1,0.21943,NA,NA,S_Lure_144.bmp,0,0,3
217,1,124,NA,NA,NA,2,0.31958,NA,NA,S_Lure_124.bmp,0,1,3
218,1,28,NA,NA,NA,2,0.29227,NA,NA,F_Lure_28.bmp,0,1,1
219,1,115,NA,NA,NA,2,0.47433,NA,NA,S_Lure_115.bmp,0,0,3
220,1,38,NA,NA,NA,1,0.31982,NA,NA,F_Image_38.bmp,1,1,1
221,1,24,NA,NA,NA,1,0.28924,NA,NA,F_Image_24.bmp,1,0,1
222,1,59,NA,NA,NA,1,0.20987,NA,NA,O_Lure_59.bmp,0,1,2
223,1,28,NA,NA,NA,2,0.1266,NA,NA,F_Image_28.bmp,1,1,1
224,1,26,NA,NA,NA,1,0.11443,NA,NA,F_Image_26.bmp,1,1,1
225,1,64,NA,NA,NA,1,0.21779,NA,NA,O_Lure_64.bmp,0,1,2
226,1,103,NA,NA,NA,1,0.10123,NA,NA,S_Lure_103.bmp,0,0,3
227,1,94,NA,NA,NA,1,0.19921,NA,NA,O_Lure_94.bmp,0,1,2
228,1,72,NA,NA,NA,1,0.00011561,NA,NA,O_Lure_72.bmp,0,0,2
229,1,134,NA,NA,NA,2,0.25682,NA,NA,S_Image_134.bmp,2,1,3
230,1,22,NA,NA,NA,2,0.32872,NA,NA,F_Image_22.bmp,2,1,1
231,1,93,NA,NA,NA,1,0.23007,NA,NA,O_Image_93.bmp,2,0,2
232,1,86,NA,NA,NA,1,0.77076,NA,NA,O_Image_86.bmp,2,0,2
233,1,97,NA,NA,NA,2,0.11944,NA,NA,S_Image_97.bmp,2,0,3
234,1,92,NA,NA,NA,1,0.26155,NA,NA,O_Image_92.bmp,2,1,2
235,1,11,NA,NA,NA,1,0.00011168,NA,NA,F_Image_11.bmp,2,0,1
236,1,10,NA,NA,NA,1,1.6335,NA,NA,F_Image_10.bmp,2,0,1
237,1,70,NA,NA,NA,1,0.24498,NA,NA,O_Image_70.bmp,2,1,2
238,1,94,NA,NA,NA,1,0.13575,NA,NA,O_Image_94.bmp,1,1,2
239,1,74,NA,NA,NA,1,0.25572,NA,NA,O_Image_74.bmp,1,1,2
240,1,47,NA,NA,NA,1,0.33844,NA,NA,F_Lure_47.bmp,0,0,1
241,1,136,NA,NA,NA,2,0.37779,NA,NA,S_Lure_136.bmp,0,0,3
242,1,55,NA,NA,NA,1,0.47788,NA,NA,O_Lure_55.bmp,0,0,2
243,1,131,NA,NA,NA,2,0.39935,NA,NA,S_Image_131.bmp,1,1,3
244,1,134,NA,NA,NA,2,0.47326,NA,NA,S_Lure_134.bmp,0,1,3
245,1,108,NA,NA,NA,2,0.35941,NA,NA,S_Lure_108.bmp,0,0,3
246,1,14,NA,NA,NA,1,0.42738,NA,NA,F_Lure_14.bmp,0,1,1
247,1,78,NA,NA,NA,1,0.35883,NA,NA,O_Image_78.bmp,1,1,2
248,1,99,NA,NA,NA,2,0.26026,NA,NA,S_Lure_99.bmp,0,0,3
249,1,65,NA,NA,NA,1,0.26011,NA,NA,O_Image_65.bmp,2,1,2
250,1,93,NA,NA,NA,1,0.62347,NA,NA,O_Lure_93.bmp,0,0,2
251,1,104,NA,NA,NA,2,0.54752,NA,NA,S_Lure_104.bmp,0,1,3
252,1,32,NA,NA,NA,1,0.11087,NA,NA,F_Lure_32.bmp,0,0,1
253,1,106,NA,NA,NA,2,0.56767,NA,NA,S_Image_106.bmp,2,1,3
254,1,123,NA,NA,NA,2,0.32426,NA,NA,S_Lure_123.bmp,0,0,3
255,1,21,NA,NA,NA,1,0.79301,NA,NA,F_Image_21.bmp,2,0,1
256,1,128,NA,NA,NA,2,0.65577,NA,NA,S_Lure_128.bmp,0,0,3
257,1,60,NA,NA,NA,1,0.50311,NA,NA,O_Lure_60.bmp,0,1,2
258,1,90,NA,NA,NA,1,0.31922,NA,NA,O_Image_90.bmp,1,1,2
259,1,79,NA,NA,NA,1,0.47139,NA,NA,O_Image_79.bmp,1,0,2
260,1,143,NA,NA,NA,2,1.056,NA,NA,S_Lure_143.bmp,0,0,3
261,1,116,NA,NA,NA,1,2.2072,NA,NA,S_Lure_116.bmp,0,0,3
262,1,103,NA,NA,NA,1,0.29027,NA,NA,S_Image_103.bmp,2,0,3
263,1,82,NA,NA,NA,1,0.33807,NA,NA,O_Image_82.bmp,1,0,2
264,1,40,NA,NA,NA,1,0.24805,NA,NA,F_Image_40.bmp,2,1,1
265,1,68,NA,NA,NA,1,0.26705,NA,NA,O_Image_68.bmp,1,1,2
266,1,119,NA,NA,NA,2,0.60482,NA,NA,S_Image_119.bmp,2,1,3
267,1,133,NA,NA,NA,2,0.3196,NA,NA,S_Image_133.bmp,1,0,3
268,1,45,NA,NA,NA,2,0.30233,NA,NA,F_Image_45.bmp,1,1,1
269,1,77,NA,NA,NA,1,0.19029,NA,NA,O_Image_77.bmp,1,1,2
270,1,33,NA,NA,NA,1,0.31634,NA,NA,F_Image_33.bmp,1,1,1
271,1,67,NA,NA,NA,1,0.9413,NA,NA,O_Lure_67.bmp,0,1,2
272,1,62,NA,NA,NA,1,0.83384,NA,NA,O_Image_62.bmp,1,0,2
273,1,143,NA,NA,NA,2,0.051777,NA,NA,S_Image_143.bmp,2,0,3
274,1,91,NA,NA,NA,2,0.26588,NA,NA,O_Image_91.bmp,2,0,2
275,1,77,NA,NA,NA,1,0.2166,NA,NA,O_Lure_77.bmp,0,1,2
276,1,29,NA,NA,NA,1,0.24393,NA,NA,F_Image_29.bmp,2,0,1
277,1,100,NA,NA,NA,2,0.2013,NA,NA,S_Lure_100.bmp,0,0,3
278,1,96,NA,NA,NA,1,0.32562,NA,NA,O_Lure_96.bmp,0,1,2
279,1,17,NA,NA,NA,1,0.27763,NA,NA,F_Image_17.bmp,2,1,1
280,1,48,NA,NA,NA,1,0.23746,NA,NA,F_Image_48.bmp,1,1,1
281,1,31,NA,NA,NA,1,0.22428,NA,NA,F_Image_31.bmp,2,0,1
282,1,35,NA,NA,NA,2,0.25103,NA,NA,F_Image_35.bmp,1,1,1
283,1,17,NA,NA,NA,1,0.18823,NA,NA,F_Lure_17.bmp,0,1,1
284,1,15,NA,NA,NA,2,0.24819,NA,NA,F_Lure_15.bmp,0,0,1
285,1,90,NA,NA,NA,1,0.00095775,NA,NA,O_Lure_90.bmp,0,1,2
286,1,126,NA,NA,NA,2,0.22854,NA,NA,S_Image_126.bmp,1,1,3
287,1,127,NA,NA,NA,1,0.10229,NA,NA,S_Lure_127.bmp,0,0,3
288,1,83,NA,NA,NA,1,0.21367,NA,NA,O_Image_83.bmp,1,0,2
289,2,2,arch,1,1,0,3.4999,0,NA,F_Image_2.bmp-F_Lure_2.bmp,1,1,1
290,2,35,hurricane,1,1,0,3.4999,0,NA,F_Image_35.bmp-F_Lure_35.bmp,1,1,1
291,2,116,kiss,1,1,0,3.4996,0,NA,S_Image_116.bmp-S_Lure_116.bmp,1,0,3
292,2,74,menu,1,1,0,3.4998,0,NA,O_Image_74.bmp-O_Lure_74.bmp,1,1,2
293,2,14,board,1,1,0,3.4998,0,NA,F_Image_14.bmp-F_Lure_14.bmp,1,1,1
294,2,114,paper,1,1,1,1.6823,1,NA,S_Image_114.bmp-S_Lure_114.bmp,1,0,3
295,2,94,sunshine,1,2,2,1.0923,1,NA,O_Image_94.bmp-O_Lure_94.bmp,1,1,2
296,2,63,alcohol,1,1,1,0.79837,1,NA,O_Image_63.bmp-O_Lure_63.bmp,1,1,2
297,2,64,orchestra,1,1,1,1.6597,1,NA,O_Image_64.bmp-O_Lure_64.bmp,1,1,2
298,2,56,corpse,1,2,2,0.63947,1,NA,O_Image_56.bmp-O_Lure_56.bmp,1,0,2
299,2,126,measles,1,1,1,1.7155,1,NA,S_Image_126.bmp-S_Lure_126.bmp,1,1,3
300,2,136,magnet,1,2,2,0.89246,1,NA,S_Image_136.bmp-S_Lure_136.bmp,1,0,3
301,2,33,tourist,1,2,1,1.4623,0,NA,F_Image_33.bmp-F_Lure_33.bmp,1,1,1
302,2,79,costume,1,2,1,1.3293,0,NA,O_Image_79.bmp-O_Lure_79.bmp,1,0,2
303,2,5,crumb,1,2,2,1.481,1,NA,F_Image_5.bmp-F_Lure_5.bmp,1,0,1
304,2,133,attack,1,2,2,1.5713,1,NA,S_Image_133.bmp-S_Lure_133.bmp,1,0,3
305,2,20,stem,1,2,2,1.0259,1,NA,F_Image_20.bmp-F_Lure_20.bmp,1,0,1
306,2,24,yellow,1,2,2,1.2626,1,NA,F_Image_24.bmp-F_Lure_24.bmp,1,0,1
307,2,34,sweat,1,1,2,1.1055,0,NA,F_Image_34.bmp-F_Lure_34.bmp,1,0,1
308,2,58,angel,1,1,1,0.73876,1,NA,O_Image_58.bmp-O_Lure_58.bmp,1,0,2
309,2,99,witch,1,1,2,0.93899,0,NA,S_Image_99.bmp-S_Lure_99.bmp,1,0,3
310,2,77,poison,1,2,2,0.50723,1,NA,O_Image_77.bmp-O_Lure_77.bmp,1,1,2
311,2,49,drizzle,1,2,2,0.94872,1,NA,O_Image_49.bmp-O_Lure_49.bmp,1,1,2
312,2,139,flood,1,2,1,1.0279,0,NA,S_Image_139.bmp-S_Lure_139.bmp,1,0,3
313,3,99,witch,1,2,0,3.4996,0,NA,S_Image_99.bmp-S_Lure_99.bmp,1,0,3
314,3,94,sunshine,1,2,2,2.3806,1,NA,O_Image_94.bmp-O_Lure_94.bmp,1,1,2
315,3,74,menu,1,1,1,0.79492,1,NA,O_Image_74.bmp-O_Lure_74.bmp,1,1,2
316,3,24,yellow,1,2,1,1.7206,0,NA,F_Image_24.bmp-F_Lure_24.bmp,1,0,1
317,3,114,paper,1,1,1,1.241,1,NA,S_Image_114.bmp-S_Lure_114.bmp,1,0,3
318,3,126,measles,1,1,1,1.0211,1,NA,S_Image_126.bmp-S_Lure_126.bmp,1,1,3
319,3,139,flood,1,2,1,0.90589,0,NA,S_Image_139.bmp-S_Lure_139.bmp,1,0,3
320,3,63,alcohol,1,1,1,0.58765,1,NA,O_Image_63.bmp-O_Lure_63.bmp,1,1,2
321,3,58,angel,1,1,1,0.6261,1,NA,O_Image_58.bmp-O_Lure_58.bmp,1,0,2
322,3,49,drizzle,1,1,1,0.71013,1,NA,O_Image_49.bmp-O_Lure_49.bmp,1,1,2
323,3,5,crumb,1,1,1,0.99187,1,NA,F_Image_5.bmp-F_Lure_5.bmp,1,0,1
324,3,20,stem,1,1,1,0.75772,1,NA,F_Image_20.bmp-F_Lure_20.bmp,1,0,1
325,3,33,tourist,1,1,1,0.66145,1,NA,F_Image_33.bmp-F_Lure_33.bmp,1,1,1
326,3,133,attack,1,2,1,1.0238,0,NA,S_Image_133.bmp-S_Lure_133.bmp,1,0,3
327,3,64,orchestra,1,1,2,1.4369,0,NA,O_Image_64.bmp-O_Lure_64.bmp,1,1,2
328,3,77,poison,1,1,1,0.62474,1,NA,O_Image_77.bmp-O_Lure_77.bmp,1,1,2
329,3,35,hurricane,1,1,2,1.3576,0,NA,F_Image_35.bmp-F_Lure_35.bmp,1,1,1
330,3,116,kiss,1,2,1,0.74114,0,NA,S_Image_116.bmp-S_Lure_116.bmp,1,0,3
331,3,56,corpse,1,1,1,0.46899,1,NA,O_Image_56.bmp-O_Lure_56.bmp,1,0,2
332,3,2,arch,1,1,1,1.0403,1,NA,F_Image_2.bmp-F_Lure_2.bmp,1,1,1
333,3,14,board,1,2,1,1.108,0,NA,F_Image_14.bmp-F_Lure_14.bmp,1,1,1
334,3,136,magnet,1,2,2,0.91743,1,NA,S_Image_136.bmp-S_Lure_136.bmp,1,0,3
335,3,34,sweat,1,2,1,0.96637,0,NA,F_Image_34.bmp-F_Lure_34.bmp,1,0,1
336,3,79,costume,1,1,1,1.141,1,NA,O_Image_79.bmp-O_Lure_79.bmp,1,0,2
337,2,44,wool,2,1,2,0.91714,0,NA,F_Image_44.bmp-F_Lure_44.bmp,1,1,1
338,2,78,sand,2,2,2,0.93417,1,NA,O_Image_78.bmp-O_Lure_78.bmp,1,1,2
339,2,138,bubble,2,1,1,1.0859,1,NA,S_Image_138.bmp-S_Lure_138.bmp,1,0,3
340,2,38,army,2,1,1,1.0803,1,NA,F_Image_38.bmp-F_Lure_38.bmp,1,1,1
341,2,72,tear,2,2,2,0.78633,1,NA,O_Image_72.bmp-O_Lure_72.bmp,1,0,2
342,2,62,money,2,2,2,0.99256,1,NA,O_Image_62.bmp-O_Lure_62.bmp,1,0,2
343,2,25,shadow,2,2,2,0.81464,1,NA,F_Image_25.bmp-F_Lure_25.bmp,1,1,1
344,2,59,slope,2,1,1,1.0033,1,NA,O_Image_59.bmp-O_Lure_59.bmp,1,1,2
345,2,117,honeymoon,2,1,1,1.2724,1,NA,S_Image_117.bmp-S_Lure_117.bmp,1,1,3
346,2,15,ghost,2,1,1,1.0996,1,NA,F_Image_15.bmp-F_Lure_15.bmp,1,0,1
347,2,27,stripe,2,2,2,0.90882,1,NA,F_Image_27.bmp-F_Lure_27.bmp,1,1,1
348,2,54,breakfast,2,2,1,0.6221,0,NA,O_Image_54.bmp-O_Lure_54.bmp,1,0,2
349,2,111,lever,2,2,2,1.4512,1,NA,S_Image_111.bmp-S_Lure_111.bmp,1,0,3
350,2,130,signal,2,1,1,1.1422,1,NA,S_Image_130.bmp-S_Lure_130.bmp,1,0,3
351,2,26,spray,2,1,1,0.60645,1,NA,F_Image_26.bmp-F_Lure_26.bmp,1,1,1
352,2,104,spike,2,1,1,1.1161,1,NA,S_Image_104.bmp-S_Lure_104.bmp,1,1,3
353,2,12,vegetable,2,2,2,1.2288,1,NA,F_Image_12.bmp-F_Lure_12.bmp,1,1,1
354,2,82,scar,2,2,2,0.7368,1,NA,O_Image_82.bmp-O_Lure_82.bmp,1,0,2
355,2,66,galaxy,2,1,2,1.4886,0,NA,O_Image_66.bmp-O_Lure_66.bmp,1,0,2
356,2,115,animal,2,1,1,1.7228,1,NA,S_Image_115.bmp-S_Lure_115.bmp,1,0,3
357,2,90,cone,2,2,2,0.77997,1,NA,O_Image_90.bmp-O_Lure_90.bmp,1,1,2
358,2,45,quake,2,2,2,1.1137,1,NA,F_Image_45.bmp-F_Lure_45.bmp,1,1,1
359,2,50,shell,2,1,2,1.4508,0,NA,O_Image_50.bmp-O_Lure_50.bmp,1,1,2
360,2,131,harem,2,2,2,1.23,1,NA,S_Image_131.bmp-S_Lure_131.bmp,1,1,3
361,3,26,spray,2,1,1,0.61318,1,NA,F_Image_26.bmp-F_Lure_26.bmp,1,1,1
362,3,111,lever,2,1,1,0.66639,1,NA,S_Image_111.bmp-S_Lure_111.bmp,1,0,3
363,3,78,sand,2,2,2,0.73285,1,NA,O_Image_78.bmp-O_Lure_78.bmp,1,1,2
364,3,82,scar,2,1,1,1.0448,1,NA,O_Image_82.bmp-O_Lure_82.bmp,1,0,2
365,3,72,tear,2,2,2,0.80041,1,NA,O_Image_72.bmp-O_Lure_72.bmp,1,0,2
366,3,38,army,2,2,2,1.6937,1,NA,F_Image_38.bmp-F_Lure_38.bmp,1,1,1
367,3,54,breakfast,2,2,2,1.0158,1,NA,O_Image_54.bmp-O_Lure_54.bmp,1,0,2
368,3,117,honeymoon,2,1,1,0.94898,1,NA,S_Image_117.bmp-S_Lure_117.bmp,1,1,3
369,3,45,quake,2,2,2,1.0281,1,NA,F_Image_45.bmp-F_Lure_45.bmp,1,1,1
370,3,138,bubble,2,1,1,1.0162,1,NA,S_Image_138.bmp-S_Lure_138.bmp,1,0,3
371,3,15,ghost,2,2,2,0.97316,1,NA,F_Image_15.bmp-F_Lure_15.bmp,1,0,1
372,3,50,shell,2,1,1,1.0761,1,NA,O_Image_50.bmp-O_Lure_50.bmp,1,1,2
373,3,12,vegetable,2,2,2,1.0226,1,NA,F_Image_12.bmp-F_Lure_12.bmp,1,1,1
374,3,90,cone,2,2,1,1.4594,0,NA,O_Image_90.bmp-O_Lure_90.bmp,1,1,2
375,3,115,animal,2,1,1,1.2067,1,NA,S_Image_115.bmp-S_Lure_115.bmp,1,0,3
376,3,62,money,2,2,2,0.89229,1,NA,O_Image_62.bmp-O_Lure_62.bmp,1,0,2
377,3,131,harem,2,1,1,1.3901,1,NA,S_Image_131.bmp-S_Lure_131.bmp,1,1,3
378,3,104,spike,2,2,2,0.97274,1,NA,S_Image_104.bmp-S_Lure_104.bmp,1,1,3
379,3,27,stripe,2,2,2,1.4271,1,NA,F_Image_27.bmp-F_Lure_27.bmp,1,1,1
380,3,66,galaxy,2,2,1,0.89574,0,NA,O_Image_66.bmp-O_Lure_66.bmp,1,0,2
381,3,130,signal,2,1,1,1.1455,1,NA,S_Image_130.bmp-S_Lure_130.bmp,1,0,3
382,3,59,slope,2,1,1,0.46507,1,NA,O_Image_59.bmp-O_Lure_59.bmp,1,1,2
383,3,25,shadow,2,2,2,0.88378,1,NA,F_Image_25.bmp-F_Lure_25.bmp,1,1,1
384,3,44,wool,2,2,1,2.1177,0,NA,F_Image_44.bmp-F_Lure_44.bmp,1,1,1
385,2,18,marble,3,2,2,1.1502,1,NA,F_Image_18.bmp-F_Lure_18.bmp,1,1,1
386,2,85,arrow,3,1,1,0.54975,1,NA,O_Image_85.bmp-O_Lure_85.bmp,1,0,2
387,2,51,fuel,3,2,2,0.93368,1,NA,O_Image_51.bmp-O_Lure_51.bmp,1,0,2
388,2,108,wound,3,2,2,0.88577,1,NA,S_Image_108.bmp-S_Lure_108.bmp,1,0,3
389,2,105,tube,3,1,1,1.1757,1,NA,S_Image_105.bmp-S_Lure_105.bmp,1,0,3
390,2,125,corner,3,2,2,1.6225,1,NA,S_Image_125.bmp-S_Lure_125.bmp,1,1,3
391,2,102,triangle,3,2,2,0.80334,1,NA,S_Image_102.bmp-S_Lure_102.bmp,1,1,3
392,2,121,laundry,3,2,2,0.96038,1,NA,S_Image_121.bmp-S_Lure_121.bmp,1,0,3
393,2,6,water,3,1,1,0.85617,1,NA,F_Image_6.bmp-F_Lure_6.bmp,1,1,1
394,2,9,hostage,3,1,1,1.5472,1,NA,F_Image_9.bmp-F_Lure_9.bmp,1,1,1
395,2,48,tail,3,1,1,1.171,1,NA,F_Image_48.bmp-F_Lure_48.bmp,1,1,1
396,2,3,steam,3,1,1,1.1137,1,NA,F_Image_3.bmp-F_Lure_3.bmp,1,0,1
397,2,129,alien,3,1,1,0.93825,1,NA,S_Image_129.bmp-S_Lure_129.bmp,1,1,3
398,2,52,rock,3,2,1,0.49868,0,NA,O_Image_52.bmp-O_Lure_52.bmp,1,0,2
399,2,68,rust,3,1,1,0.59606,1,NA,O_Image_68.bmp-O_Lure_68.bmp,1,1,2
400,2,13,seed,3,2,2,1.1772,1,NA,F_Image_13.bmp-F_Lure_13.bmp,1,1,1
401,2,100,giant,3,1,1,1.3835,1,NA,S_Image_100.bmp-S_Lure_100.bmp,1,0,3
402,2,122,black,3,1,1,0.98131,1,NA,S_Image_122.bmp-S_Lure_122.bmp,1,1,3
403,2,28,asphalt,3,2,2,0.96381,1,NA,F_Image_28.bmp-F_Lure_28.bmp,1,1,1
404,2,87,antique,3,2,2,0.63464,1,NA,O_Image_87.bmp-O_Lure_87.bmp,1,0,2
405,2,144,fire,3,2,2,1.1103,1,NA,S_Image_144.bmp-S_Lure_144.bmp,1,0,3
406,2,83,cloud,3,2,2,0.7603,1,NA,O_Image_83.bmp-O_Lure_83.bmp,1,0,2
407,2,123,snow,3,2,2,0.75113,1,NA,S_Image_123.bmp-S_Lure_123.bmp,1,0,3
408,2,30,wreck,3,1,1,1.2468,1,NA,F_Image_30.bmp-F_Lure_30.bmp,1,0,1
409,3,100,giant,3,2,2,0.51727,1,NA,S_Image_100.bmp-S_Lure_100.bmp,1,0,3
410,3,13,seed,3,1,1,2.2703,1,NA,F_Image_13.bmp-F_Lure_13.bmp,1,1,1
411,3,18,marble,3,1,1,1.0409,1,NA,F_Image_18.bmp-F_Lure_18.bmp,1,1,1
412,3,87,antique,3,1,1,0.67714,1,NA,O_Image_87.bmp-O_Lure_87.bmp,1,0,2
413,3,129,alien,3,2,2,0.54377,1,NA,S_Image_129.bmp-S_Lure_129.bmp,1,1,3
414,3,144,fire,3,2,2,1.3517,1,NA,S_Image_144.bmp-S_Lure_144.bmp,1,0,3
415,3,108,wound,3,2,2,0.67958,1,NA,S_Image_108.bmp-S_Lure_108.bmp,1,0,3
416,3,68,rust,3,1,1,0.5619,1,NA,O_Image_68.bmp-O_Lure_68.bmp,1,1,2
417,3,3,steam,3,2,2,1.256,1,NA,F_Image_3.bmp-F_Lure_3.bmp,1,0,1
418,3,83,cloud,3,2,2,0.73957,1,NA,O_Image_83.bmp-O_Lure_83.bmp,1,0,2
419,3,51,fuel,3,2,2,0.86001,1,NA,O_Image_51.bmp-O_Lure_51.bmp,1,0,2
420,3,9,hostage,3,2,2,0.6153,1,NA,F_Image_9.bmp-F_Lure_9.bmp,1,1,1
421,3,121,laundry,3,2,2,0.5721,1,NA,S_Image_121.bmp-S_Lure_121.bmp,1,0,3
422,3,48,tail,3,2,2,0.62657,1,NA,F_Image_48.bmp-F_Lure_48.bmp,1,1,1
423,3,52,rock,3,1,1,0.49573,1,NA,O_Image_52.bmp-O_Lure_52.bmp,1,0,2
424,3,125,corner,3,1,2,0.80878,0,NA,S_Image_125.bmp-S_Lure_125.bmp,1,1,3
425,3,123,snow,3,2,2,1.0622,1,NA,S_Image_123.bmp-S_Lure_123.bmp,1,0,3
426,3,102,triangle,3,2,2,0.72916,1,NA,S_Image_102.bmp-S_Lure_102.bmp,1,1,3
427,3,85,arrow,3,1,1,0.4414,1,NA,O_Image_85.bmp-O_Lure_85.bmp,1,0,2
428,3,28,asphalt,3,1,1,0.68543,1,NA,F_Image_28.bmp-F_Lure_28.bmp,1,1,1
429,3,6,water,3,2,2,0.78304,1,NA,F_Image_6.bmp-F_Lure_6.bmp,1,1,1
430,3,122,black,3,1,1,0.5096,1,NA,S_Image_122.bmp-S_Lure_122.bmp,1,1,3
431,3,105,tube,3,2,2,1.3589,1,NA,S_Image_105.bmp-S_Lure_105.bmp,1,0,3
432,3,30,wreck,3,1,1,0.80658,1,NA,F_Image_30.bmp-F_Lure_30.bmp,1,0,1
433,4,128,corpse,1,1,1,0.89994,1,NA,S_Image_128.bmp-S_Lure_128.bmp,2,0,3
434,4,4,scar,1,2,2,1.2853,1,NA,F_Image_4.bmp-F_Lure_4.bmp,2,0,1
435,4,103,arrow,1,1,1,1.1115,1,NA,S_Image_103.bmp-S_Lure_103.bmp,2,0,3
436,4,23,triangle,1,2,2,0.61592,1,NA,F_Image_23.bmp-F_Lure_23.bmp,2,1,1
437,4,106,tail,1,1,1,1.5889,1,NA,S_Image_106.bmp-S_Lure_106.bmp,2,1,3
438,4,140,alcohol,1,1,1,1.7789,1,NA,S_Image_140.bmp-S_Lure_140.bmp,2,1,3
439,4,135,water,1,1,1,0.70519,1,NA,S_Image_135.bmp-S_Lure_135.bmp,2,1,3
440,4,96,board,1,2,2,0.42669,1,NA,O_Image_96.bmp-O_Lure_96.bmp,2,1,2
441,4,43,kiss,1,1,1,1.191,1,NA,F_Image_43.bmp-F_Lure_43.bmp,2,0,1
442,4,81,crumb,1,2,2,0.34944,1,NA,O_Image_81.bmp-O_Lure_81.bmp,2,0,2
443,4,127,sweat,1,2,2,0.65248,1,NA,S_Image_127.bmp-S_Lure_127.bmp,2,0,3
444,4,19,snow,1,1,1,0.62429,1,NA,F_Image_19.bmp-F_Lure_19.bmp,2,0,1
445,4,119,shell,1,2,2,1.1969,1,NA,S_Image_119.bmp-S_Lure_119.bmp,2,1,3
446,4,17,slope,1,1,1,1.0422,1,NA,F_Image_17.bmp-F_Lure_17.bmp,2,1,1
447,4,143,steam,1,1,1,0.99812,1,NA,S_Image_143.bmp-S_Lure_143.bmp,2,0,3
448,4,16,costume,1,1,2,0.8518,0,NA,F_Image_16.bmp-F_Lure_16.bmp,2,0,1
449,4,69,stripe,1,2,2,0.7592,1,NA,O_Image_69.bmp-O_Lure_69.bmp,2,1,2
450,4,89,ghost,1,1,1,0.53455,1,NA,O_Image_89.bmp-O_Lure_89.bmp,2,0,2
451,4,84,marble,1,1,1,0.56705,1,NA,O_Image_84.bmp-O_Lure_84.bmp,2,1,2
452,4,141,drizzle,1,2,2,1.3333,1,NA,S_Image_141.bmp-S_Lure_141.bmp,2,1,3
453,4,53,harem,1,2,2,1.4457,1,NA,O_Image_53.bmp-O_Lure_53.bmp,2,1,2
454,4,65,tourist,1,1,2,0.66492,0,NA,O_Image_65.bmp-O_Lure_65.bmp,2,1,2
455,4,112,rust,1,1,1,0.86797,1,NA,S_Image_112.bmp-S_Lure_112.bmp,2,1,3
456,4,71,bubble,1,1,1,0.59844,1,NA,O_Image_71.bmp-O_Lure_71.bmp,2,0,2
457,4,88,yellow,2,1,1,1.5399,1,NA,O_Image_88.bmp-O_Lure_88.bmp,2,0,2
458,4,86,wound,2,2,2,0.76416,1,NA,O_Image_86.bmp-O_Lure_86.bmp,2,0,2
459,4,55,giant,2,1,1,0.57885,1,NA,O_Image_55.bmp-O_Lure_55.bmp,2,0,2
460,4,107,tear,2,2,2,0.76137,1,NA,S_Image_107.bmp-S_Lure_107.bmp,2,0,3
461,4,120,poison,2,2,2,0.83193,1,NA,S_Image_120.bmp-S_Lure_120.bmp,2,1,3
462,4,92,spray,2,1,1,0.8199,1,NA,O_Image_92.bmp-O_Lure_92.bmp,2,1,2
463,4,101,army,2,1,1,0.9848,1,NA,S_Image_101.bmp-S_Lure_101.bmp,2,1,3
464,4,21,angel,2,1,1,1.0148,1,NA,F_Image_21.bmp-F_Lure_21.bmp,2,0,1
465,4,41,antique,2,1,1,1.0596,1,NA,F_Image_41.bmp-F_Lure_41.bmp,2,0,1
466,4,61,shadow,2,2,2,0.5189,1,NA,O_Image_61.bmp-O_Lure_61.bmp,2,1,2
467,4,36,measles,2,2,2,0.71179,1,NA,F_Image_36.bmp-F_Lure_36.bmp,2,1,1
468,4,40,cone,2,1,1,0.72074,1,NA,F_Image_40.bmp-F_Lure_40.bmp,2,1,1
469,4,46,spike,2,2,2,0.80144,1,NA,F_Image_46.bmp-F_Lure_46.bmp,2,1,1
470,4,37,sunshine,2,2,2,1.0309,1,NA,F_Image_37.bmp-F_Lure_37.bmp,2,1,1
471,4,73,wool,2,2,2,0.63473,1,NA,O_Image_73.bmp-O_Lure_73.bmp,2,1,2
472,4,11,tube,2,2,1,0.92764,0,NA,F_Image_11.bmp-F_Lure_11.bmp,2,0,1
473,4,113,asphalt,2,2,2,0.89556,1,NA,S_Image_113.bmp-S_Lure_113.bmp,2,1,3
474,4,137,rock,2,2,2,0.90509,1,NA,S_Image_137.bmp-S_Lure_137.bmp,2,0,3
475,4,57,hostage,2,1,1,0.45871,1,NA,O_Image_57.bmp-O_Lure_57.bmp,2,1,2
476,4,67,hurricane,2,1,1,0.55816,1,NA,O_Image_67.bmp-O_Lure_67.bmp,2,1,2
477,4,1,witch,2,1,1,0.79765,1,NA,F_Image_1.bmp-F_Lure_1.bmp,2,0,1
478,4,75,laundry,2,1,1,1.0425,1,NA,O_Image_75.bmp-O_Lure_75.bmp,2,0,2
479,4,7,money,2,2,2,1.0549,1,NA,F_Image_7.bmp-F_Lure_7.bmp,2,0,1
480,4,32,breakfast,2,1,1,1.2822,1,NA,F_Image_32.bmp-F_Lure_32.bmp,2,0,1
481,4,109,galaxy,3,2,2,0.70839,1,NA,S_Image_109.bmp-S_Lure_109.bmp,2,0,3
482,4,70,vegetable,3,1,1,0.61411,1,NA,O_Image_70.bmp-O_Lure_70.bmp,2,1,2
483,4,42,paper,3,2,2,0.92241,1,NA,F_Image_42.bmp-F_Lure_42.bmp,2,0,1
484,4,95,attack,3,1,1,1.1554,1,NA,O_Image_95.bmp-O_Lure_95.bmp,2,0,2
485,4,98,quake,3,1,1,1.323,1,NA,S_Image_98.bmp-S_Lure_98.bmp,2,1,3
486,4,10,animal,3,2,2,0.6834,1,NA,F_Image_10.bmp-F_Lure_10.bmp,2,0,1
487,4,110,arch,3,2,2,1.7735,1,NA,S_Image_110.bmp-S_Lure_110.bmp,2,1,3
488,4,93,magnet,3,1,1,0.98831,1,NA,O_Image_93.bmp-O_Lure_93.bmp,2,0,2
489,4,80,seed,3,1,1,0.73048,1,NA,O_Image_80.bmp-O_Lure_80.bmp,2,1,2
490,4,60,honeymoon,3,1,1,1.1466,1,NA,O_Image_60.bmp-O_Lure_60.bmp,2,1,2
491,4,91,signal,3,1,1,0.6343,1,NA,O_Image_91.bmp-O_Lure_91.bmp,2,0,2
492,4,22,corner,3,1,1,0.82214,1,NA,F_Image_22.bmp-F_Lure_22.bmp,2,1,1
493,4,76,flood,3,1,1,0.73098,1,NA,O_Image_76.bmp-O_Lure_76.bmp,2,0,2
494,4,142,wreck,3,2,2,0.82702,1,NA,S_Image_142.bmp-S_Lure_142.bmp,2,0,3
495,4,39,alien,3,2,2,0.5357,1,NA,F_Image_39.bmp-F_Lure_39.bmp,2,1,1
496,4,132,fuel,3,2,2,1.4716,1,NA,S_Image_132.bmp-S_Lure_132.bmp,2,0,3
497,4,31,lever,3,2,2,0.88267,1,NA,F_Image_31.bmp-F_Lure_31.bmp,2,0,1
498,4,29,cloud,3,2,2,0.89304,1,NA,F_Image_29.bmp-F_Lure_29.bmp,2,0,1
499,4,118,orchestra,3,2,1,1.2868,0,NA,S_Image_118.bmp-S_Lure_118.bmp,2,1,3
500,4,47,fire,3,2,2,0.81692,1,NA,F_Image_47.bmp-F_Lure_47.bmp,2,0,1
501,4,97,stem,3,1,1,1.6055,1,NA,S_Image_97.bmp-S_Lure_97.bmp,2,0,3
502,4,124,menu,3,1,2,1.1229,0,NA,S_Image_124.bmp-S_Lure_124.bmp,2,1,3
503,4,134,sand,3,2,2,0.77207,1,NA,S_Image_134.bmp-S_Lure_134.bmp,2,1,3
504,4,8,black,3,1,1,0.70661,1,NA,F_Image_8.bmp-F_Lure_8.bmp,2,1,1
