Subject,Trial,Cond,ImageNum,CueNum,Correct,Resp,Accuracy,RT,CueRep,ImageType,Baseline,Category,Block
1,1,1,104,NaN,NaN,2,NaN,1.571798e+00,NaN,2,0,3,1
1,2,1,4,NaN,NaN,1,NaN,3.821254e-01,NaN,2,0,1,1
1,3,1,26,NaN,NaN,1,NaN,5.680209e-01,NaN,0,1,1,1
1,4,1,30,NaN,NaN,1,NaN,6.107850e-01,NaN,0,0,1,1
1,5,1,95,NaN,NaN,1,NaN,3.564570e-01,NaN,2,1,2,1
1,6,1,11,NaN,NaN,1,NaN,3.836349e-01,NaN,1,0,1,1
1,7,1,58,NaN,NaN,1,NaN,2.495047e-01,NaN,0,1,2,1
1,8,1,141,NaN,NaN,1,NaN,2.648235e-01,NaN,0,1,3,1
1,9,1,113,NaN,NaN,1,NaN,3.837732e-01,NaN,0,0,3,1
1,10,1,14,NaN,NaN,1,NaN,2.499494e-01,NaN,0,1,1,1
1,11,1,134,NaN,NaN,2,NaN,4.170691e-01,NaN,2,0,3,1
1,12,1,69,NaN,NaN,1,NaN,2.337036e-01,NaN,0,0,2,1
1,13,1,57,NaN,NaN,1,NaN,2.895507e-01,NaN,1,0,2,1
1,14,1,40,NaN,NaN,1,NaN,3.769277e-01,NaN,1,0,1,1
1,15,1,100,NaN,NaN,2,NaN,3.705547e-01,NaN,0,0,3,1
1,16,1,108,NaN,NaN,2,NaN,6.053758e-01,NaN,0,0,3,1
1,17,1,60,NaN,NaN,1,NaN,3.585014e-01,NaN,0,1,2,1
1,18,1,35,NaN,NaN,2,NaN,5.060964e-01,NaN,1,0,1,1
1,19,1,109,NaN,NaN,1,NaN,3.832947e-01,NaN,0,0,3,1
1,20,1,22,NaN,NaN,2,NaN,5.222805e-01,NaN,1,1,1,1
1,21,1,5,NaN,NaN,1,NaN,2.779598e-01,NaN,0,1,1,1
1,22,1,4,NaN,NaN,1,NaN,3.161210e-01,NaN,0,0,1,1
1,23,1,3,NaN,NaN,2,NaN,3.527777e-01,NaN,1,0,1,1
1,24,1,2,NaN,NaN,1,NaN,2.841354e-01,NaN,1,0,1,1
1,25,1,2,NaN,NaN,1,NaN,3.541113e-01,NaN,0,0,1,1
1,26,1,123,NaN,NaN,1,NaN,2.294650e-01,NaN,1,0,3,1
1,27,1,1,NaN,NaN,1,NaN,2.937772e-01,NaN,1,0,1,1
1,28,1,69,NaN,NaN,1,NaN,3.877634e-01,NaN,1,0,2,1
1,29,1,82,NaN,NaN,1,NaN,5.019079e-01,NaN,0,0,2,1
1,30,1,31,NaN,NaN,1,NaN,3.629432e-01,NaN,2,0,1,1
1,31,1,28,NaN,NaN,2,NaN,3.656735e-01,NaN,0,0,1,1
1,32,1,36,NaN,NaN,1,NaN,3.763941e-01,NaN,0,0,1,1
1,33,1,29,NaN,NaN,1,NaN,4.513357e-01,NaN,2,0,1,1
1,34,1,143,NaN,NaN,2,NaN,5.066491e-01,NaN,2,0,3,1
1,35,1,129,NaN,NaN,2,NaN,4.639462e-01,NaN,0,0,3,1
1,36,1,13,NaN,NaN,1,NaN,4.704264e-01,NaN,2,1,1,1
1,37,1,43,NaN,NaN,1,NaN,3.575542e-01,NaN,1,0,1,1
1,38,1,87,NaN,NaN,1,NaN,5.050136e-01,NaN,1,0,2,1
1,39,1,41,NaN,NaN,1,NaN,3.659967e-01,NaN,0,1,1,1
1,40,1,99,NaN,NaN,2,NaN,2.567537e-01,NaN,0,0,3,1
1,41,1,55,NaN,NaN,1,NaN,4.928233e-02,NaN,0,1,2,1
1,42,1,77,NaN,NaN,1,NaN,2.718959e-01,NaN,1,0,2,1
1,43,1,135,NaN,NaN,1,NaN,5.021907e-01,NaN,0,0,3,1
1,44,1,127,NaN,NaN,1,NaN,5.154140e-01,NaN,1,0,3,1
1,45,1,7,NaN,NaN,1,NaN,2.881111e-01,NaN,0,0,1,1
1,46,1,112,NaN,NaN,1,NaN,4.702755e-01,NaN,1,1,3,1
1,47,1,107,NaN,NaN,1,NaN,4.692724e-01,NaN,0,1,3,1
1,48,1,49,NaN,NaN,1,NaN,4.440623e-01,NaN,1,1,2,1
1,49,1,77,NaN,NaN,1,NaN,4.280656e-01,NaN,0,0,2,1
1,50,1,46,NaN,NaN,2,NaN,3.718180e-01,NaN,0,1,1,1
1,51,1,128,NaN,NaN,2,NaN,4.626036e-01,NaN,1,0,3,1
1,52,1,64,NaN,NaN,1,NaN,3.896050e-01,NaN,1,0,2,1
1,53,1,87,NaN,NaN,1,NaN,6.474481e-01,NaN,0,0,2,1
1,54,1,110,NaN,NaN,2,NaN,3.505730e-01,NaN,0,0,3,1
1,55,1,94,NaN,NaN,1,NaN,2.822727e-01,NaN,0,1,2,1
1,56,1,24,NaN,NaN,1,NaN,4.482426e-01,NaN,2,1,1,1
1,57,1,106,NaN,NaN,1,NaN,7.756629e-01,NaN,0,0,3,1
1,58,1,120,NaN,NaN,1,NaN,7.300646e-01,NaN,0,0,3,1
1,59,1,48,NaN,NaN,1,NaN,5.661105e-01,NaN,2,1,1,1
1,60,1,62,NaN,NaN,1,NaN,3.207580e-01,NaN,1,0,2,1
1,61,1,136,NaN,NaN,1,NaN,4.215534e-01,NaN,1,0,3,1
1,62,1,61,NaN,NaN,1,NaN,5.582252e-01,NaN,0,0,2,1
1,63,1,115,NaN,NaN,2,NaN,5.465513e-01,NaN,2,1,3,1
1,64,1,97,NaN,NaN,2,NaN,5.649224e-01,NaN,0,1,3,1
1,65,1,36,NaN,NaN,1,NaN,5.359173e-01,NaN,1,0,1,1
1,66,1,116,NaN,NaN,1,NaN,5.317080e-01,NaN,0,1,3,1
1,67,1,83,NaN,NaN,1,NaN,3.436131e-01,NaN,0,0,2,1
1,68,1,120,NaN,NaN,2,NaN,4.761335e-01,NaN,2,0,3,1
1,69,1,16,NaN,NaN,1,NaN,3.387947e-01,NaN,1,0,1,1
1,70,1,140,NaN,NaN,1,NaN,3.265609e-01,NaN,1,0,3,1
1,71,1,81,NaN,NaN,1,NaN,3.073250e-01,NaN,2,1,2,1
1,72,1,124,NaN,NaN,1,NaN,6.650509e-01,NaN,1,0,3,1
1,73,1,93,NaN,NaN,1,NaN,4.233724e-01,NaN,0,0,2,1
1,74,1,45,NaN,NaN,2,NaN,4.401173e-01,NaN,2,0,1,1
1,75,1,49,NaN,NaN,1,NaN,2.480296e-01,NaN,0,1,2,1
1,76,1,73,NaN,NaN,1,NaN,5.034567e-01,NaN,0,1,2,1
1,77,1,57,NaN,NaN,1,NaN,3.168835e-01,NaN,0,0,2,1
1,78,1,93,NaN,NaN,1,NaN,3.298456e-01,NaN,2,0,2,1
1,79,1,104,NaN,NaN,2,NaN,3.974245e-01,NaN,0,0,3,1
1,80,1,75,NaN,NaN,1,NaN,3.433034e-01,NaN,2,0,2,1
1,81,1,132,NaN,NaN,2,NaN,3.472571e-01,NaN,2,1,3,1
1,82,1,136,NaN,NaN,1,NaN,5.027008e-01,NaN,0,0,3,1
1,83,1,76,NaN,NaN,1,NaN,3.955762e-01,NaN,0,0,2,1
1,84,1,6,NaN,NaN,1,NaN,2.851324e-01,NaN,0,0,1,1
1,85,1,53,NaN,NaN,1,NaN,3.955059e-01,NaN,0,1,2,1
1,86,1,20,NaN,NaN,1,NaN,3.168007e-01,NaN,2,0,1,1
1,87,1,19,NaN,NaN,1,NaN,4.811515e-01,NaN,0,1,1,1
1,88,1,144,NaN,NaN,1,NaN,4.713114e-01,NaN,0,0,3,1
1,89,1,82,NaN,NaN,1,NaN,3.099752e-01,NaN,2,0,2,1
1,90,1,71,NaN,NaN,1,NaN,2.762106e-01,NaN,0,0,2,1
1,91,1,72,NaN,NaN,1,NaN,4.898534e-01,NaN,2,0,2,1
1,92,1,90,NaN,NaN,1,NaN,5.764634e-01,NaN,2,0,2,1
1,93,1,98,NaN,NaN,1,NaN,4.349807e-01,NaN,2,0,3,1
1,94,1,115,NaN,NaN,2,NaN,4.673427e-01,NaN,0,1,3,1
1,95,1,71,NaN,NaN,1,NaN,6.735303e-01,NaN,1,0,2,1
1,96,1,103,NaN,NaN,1,NaN,4.562592e-01,NaN,2,0,3,1
1,97,1,70,NaN,NaN,1,NaN,3.596956e-01,NaN,1,0,2,1
1,98,1,56,NaN,NaN,1,NaN,2.193125e-01,NaN,2,0,2,1
1,99,1,63,NaN,NaN,1,NaN,5.319196e-01,NaN,1,0,2,1
1,100,1,47,NaN,NaN,1,NaN,3.040444e-01,NaN,1,0,1,1
1,101,1,112,NaN,NaN,1,NaN,4.050701e-01,NaN,0,1,3,1
1,102,1,68,NaN,NaN,1,NaN,2.467159e-01,NaN,1,1,2,1
1,103,1,122,NaN,NaN,2,NaN,6.059442e-01,NaN,0,0,3,1
1,104,1,137,NaN,NaN,1,NaN,3.674523e-01,NaN,0,0,3,1
1,105,1,84,NaN,NaN,1,NaN,3.300750e-01,NaN,1,0,2,1
1,106,1,92,NaN,NaN,1,NaN,2.060781e-01,NaN,0,0,2,1
1,107,1,25,NaN,NaN,1,NaN,3.352086e-01,NaN,2,0,1,1
1,108,1,65,NaN,NaN,1,NaN,3.715801e-01,NaN,0,0,2,1
1,109,1,10,NaN,NaN,1,NaN,3.261552e-01,NaN,0,0,1,1
1,110,1,109,NaN,NaN,1,NaN,4.350610e-01,NaN,1,0,3,1
1,111,1,32,NaN,NaN,1,NaN,2.586086e-01,NaN,0,0,1,1
1,112,1,88,NaN,NaN,1,NaN,2.342687e-01,NaN,1,0,2,1
1,113,1,3,NaN,NaN,2,NaN,2.020978e-01,NaN,0,0,1,1
1,114,1,9,NaN,NaN,1,NaN,3.478916e-01,NaN,0,0,1,1
1,115,1,123,NaN,NaN,1,NaN,2.630090e-01,NaN,0,0,3,1
1,116,1,37,NaN,NaN,1,NaN,4.380225e-01,NaN,0,0,1,1
1,117,1,118,NaN,NaN,1,NaN,2.455483e-01,NaN,2,0,3,1
1,118,1,39,NaN,NaN,2,NaN,3.488820e-01,NaN,0,0,1,1
1,119,1,80,NaN,NaN,1,NaN,2.487688e-01,NaN,1,0,2,1
1,120,1,67,NaN,NaN,1,NaN,2.799774e-01,NaN,0,1,2,1
1,121,1,11,NaN,NaN,1,NaN,2.222287e-01,NaN,0,0,1,1
1,122,1,38,NaN,NaN,1,NaN,2.784932e-01,NaN,2,0,1,1
1,123,1,52,NaN,NaN,1,NaN,2.205739e-01,NaN,0,0,2,1
1,124,1,12,NaN,NaN,1,NaN,2.533153e-01,NaN,0,0,1,1
1,125,1,139,NaN,NaN,1,NaN,2.688442e-01,NaN,0,0,3,1
1,126,1,59,NaN,NaN,1,NaN,2.354656e-01,NaN,2,0,2,1
1,127,1,56,NaN,NaN,1,NaN,3.397144e-01,NaN,0,0,2,1
1,128,1,144,NaN,NaN,1,NaN,2.875138e-01,NaN,2,0,3,1
1,129,1,126,NaN,NaN,2,NaN,3.177815e-01,NaN,1,0,3,1
1,130,1,63,NaN,NaN,1,NaN,1.543836e-01,NaN,0,0,2,1
1,131,1,60,NaN,NaN,1,NaN,2.775792e-01,NaN,1,1,2,1
1,132,1,10,NaN,NaN,1,NaN,3.804495e-01,NaN,2,0,1,1
1,133,1,91,NaN,NaN,1,NaN,3.341594e-01,NaN,0,0,2,1
1,134,1,14,NaN,NaN,1,NaN,4.825217e-01,NaN,1,1,1,1
1,135,1,15,NaN,NaN,2,NaN,3.685534e-01,NaN,2,1,1,1
1,136,1,103,NaN,NaN,1,NaN,3.151985e-01,NaN,0,0,3,1
1,137,1,46,NaN,NaN,2,NaN,2.718760e-01,NaN,2,1,1,1
1,138,1,53,NaN,NaN,1,NaN,2.545795e-01,NaN,2,1,2,1
1,139,1,121,NaN,NaN,2,NaN,3.816686e-01,NaN,0,0,3,1
1,140,1,101,NaN,NaN,2,NaN,3.038694e-01,NaN,0,1,3,1
1,141,1,54,NaN,NaN,1,NaN,1.261745e-04,NaN,0,0,2,1
1,142,1,108,NaN,NaN,1,NaN,4.786776e-01,NaN,1,0,3,1
1,143,1,97,NaN,NaN,2,NaN,3.649886e-01,NaN,1,1,3,1
1,144,1,44,NaN,NaN,1,NaN,2.551418e-01,NaN,0,0,1,1
1,145,1,130,NaN,NaN,2,NaN,2.790685e-01,NaN,2,0,3,1
1,146,1,62,NaN,NaN,1,NaN,3.008475e-01,NaN,0,0,2,1
1,147,1,12,NaN,NaN,1,NaN,3.459932e-01,NaN,2,0,1,1
1,148,1,86,NaN,NaN,1,NaN,6.294969e-01,NaN,0,0,2,1
1,149,1,119,NaN,NaN,1,NaN,9.339208e-01,NaN,2,0,3,1
1,150,1,34,NaN,NaN,1,NaN,3.377922e-01,NaN,1,0,1,1
1,151,1,5,NaN,NaN,1,NaN,2.858023e-01,NaN,2,1,1,1
1,152,1,138,NaN,NaN,1,NaN,3.238176e-01,NaN,2,1,3,1
1,153,1,78,NaN,NaN,1,NaN,3.523310e-01,NaN,0,0,2,1
1,154,1,24,NaN,NaN,1,NaN,2.678840e-01,NaN,0,1,1,1
1,155,1,61,NaN,NaN,1,NaN,2.104271e-01,NaN,2,0,2,1
1,156,1,64,NaN,NaN,1,NaN,5.161481e-01,NaN,0,0,2,1
1,157,1,20,NaN,NaN,1,NaN,2.808772e-01,NaN,0,0,1,1
1,158,1,116,NaN,NaN,1,NaN,1.509410e-01,NaN,2,1,3,1
1,159,1,35,NaN,NaN,2,NaN,2.260951e-01,NaN,0,0,1,1
1,160,1,33,NaN,NaN,1,NaN,3.466649e-01,NaN,2,0,1,1
1,161,1,90,NaN,NaN,1,NaN,3.422310e-01,NaN,0,0,2,1
1,162,1,138,NaN,NaN,1,NaN,2.978124e-01,NaN,0,1,3,1
1,163,1,44,NaN,NaN,1,NaN,2.877248e-01,NaN,1,0,1,1
1,164,1,79,NaN,NaN,1,NaN,3.495711e-01,NaN,0,0,2,1
1,165,1,85,NaN,NaN,1,NaN,2.488488e-01,NaN,0,0,2,1
1,166,1,131,NaN,NaN,2,NaN,3.365320e-01,NaN,0,0,3,1
1,167,1,127,NaN,NaN,1,NaN,3.640957e-01,NaN,0,0,3,1
1,168,1,95,NaN,NaN,1,NaN,2.707419e-01,NaN,0,1,2,1
1,169,1,141,NaN,NaN,1,NaN,2.375722e-01,NaN,1,1,3,1
1,170,1,99,NaN,NaN,2,NaN,3.096849e-01,NaN,2,0,3,1
1,171,1,102,NaN,NaN,2,NaN,3.471137e-01,NaN,0,1,3,1
1,172,1,133,NaN,NaN,2,NaN,3.584350e-01,NaN,0,1,3,1
1,173,1,117,NaN,NaN,2,NaN,2.820566e-01,NaN,2,0,3,1
1,174,1,59,NaN,NaN,1,NaN,1.678629e-01,NaN,0,0,2,1
1,175,1,41,NaN,NaN,1,NaN,3.068698e-01,NaN,1,1,1,1
1,176,1,96,NaN,NaN,1,NaN,1.582947e-02,NaN,0,0,2,1
1,177,1,105,NaN,NaN,2,NaN,4.837526e-02,NaN,0,0,3,1
1,178,1,114,NaN,NaN,1,NaN,2.882515e-01,NaN,0,0,3,1
1,179,1,34,NaN,NaN,1,NaN,3.019321e-01,NaN,0,0,1,1
1,180,1,92,NaN,NaN,1,NaN,2.833189e-01,NaN,2,0,2,1
1,181,1,42,NaN,NaN,1,NaN,2.732944e-01,NaN,2,0,1,1
1,182,1,39,NaN,NaN,2,NaN,3.444399e-01,NaN,1,0,1,1
1,183,1,89,NaN,NaN,1,NaN,2.599522e-01,NaN,0,0,2,1
1,184,1,33,NaN,NaN,1,NaN,2.755242e-01,NaN,0,0,1,1
1,185,1,98,NaN,NaN,1,NaN,2.824469e-01,NaN,0,0,3,1
1,186,1,113,NaN,NaN,1,NaN,3.046666e-01,NaN,1,0,3,1
1,187,1,27,NaN,NaN,1,NaN,2.776465e-01,NaN,0,1,1,1
1,188,1,32,NaN,NaN,1,NaN,1.322729e-01,NaN,1,0,1,1
1,189,1,131,NaN,NaN,2,NaN,8.359215e-03,NaN,2,0,3,1
1,190,1,31,NaN,NaN,1,NaN,2.738205e-01,NaN,0,0,1,1
1,191,1,85,NaN,NaN,1,NaN,2.963747e-01,NaN,1,0,2,1
1,192,1,86,NaN,NaN,1,NaN,3.179170e-01,NaN,2,0,2,1
1,193,1,134,NaN,NaN,2,NaN,3.064750e-01,NaN,0,0,3,1
1,194,1,125,NaN,NaN,1,NaN,3.519008e-01,NaN,0,0,3,1
1,195,1,122,NaN,NaN,2,NaN,3.231952e-01,NaN,2,0,3,1
1,196,1,125,NaN,NaN,1,NaN,2.638615e-01,NaN,1,0,3,1
1,197,1,1,NaN,NaN,1,NaN,2.869022e-01,NaN,0,0,1,1
1,198,1,26,NaN,NaN,1,NaN,2.926099e-01,NaN,1,1,1,1
1,199,1,30,NaN,NaN,1,NaN,3.868871e-01,NaN,1,0,1,1
1,200,1,17,NaN,NaN,1,NaN,3.328783e-01,NaN,0,0,1,1
1,201,1,8,NaN,NaN,1,NaN,2.649478e-01,NaN,2,1,1,1
1,202,1,91,NaN,NaN,1,NaN,3.433264e-01,NaN,2,0,2,1
1,203,1,58,NaN,NaN,1,NaN,3.398768e-01,NaN,2,1,2,1
1,204,1,55,NaN,NaN,1,NaN,2.554802e-01,NaN,1,1,2,1
1,205,1,132,NaN,NaN,2,NaN,2.631527e-01,NaN,0,1,3,1
1,206,1,76,NaN,NaN,1,NaN,3.015427e-01,NaN,2,0,2,1
1,207,1,88,NaN,NaN,1,NaN,2.911647e-01,NaN,0,0,2,1
1,208,1,66,NaN,NaN,1,NaN,2.410224e-01,NaN,0,0,2,1
1,209,1,111,NaN,NaN,1,NaN,6.171556e-01,NaN,0,0,3,1
1,210,1,129,NaN,NaN,2,NaN,2.818721e-01,NaN,1,0,3,1
1,211,1,74,NaN,NaN,1,NaN,2.721911e-01,NaN,0,0,2,1
1,212,1,89,NaN,NaN,1,NaN,2.388222e-01,NaN,1,0,2,1
1,213,1,94,NaN,NaN,1,NaN,3.509648e-01,NaN,1,1,2,1
1,214,1,50,NaN,NaN,1,NaN,3.058320e-01,NaN,0,1,2,1
1,215,1,72,NaN,NaN,1,NaN,2.556523e-01,NaN,0,0,2,1
1,216,1,130,NaN,NaN,2,NaN,2.947317e-01,NaN,0,0,3,1
1,217,1,21,NaN,NaN,1,NaN,3.081711e-01,NaN,0,0,1,1
1,218,1,17,NaN,NaN,1,NaN,2.494103e-01,NaN,2,0,1,1
1,219,1,140,NaN,NaN,1,NaN,1.136709e+00,NaN,0,0,3,1
1,220,1,13,NaN,NaN,1,NaN,4.370867e-01,NaN,0,1,1,1
1,221,1,37,NaN,NaN,1,NaN,3.648536e-01,NaN,1,0,1,1
1,222,1,66,NaN,NaN,1,NaN,3.038700e-01,NaN,1,0,2,1
1,223,1,135,NaN,NaN,1,NaN,7.248115e-01,NaN,1,0,3,1
1,224,1,7,NaN,NaN,1,NaN,4.500655e-01,NaN,2,0,1,1
1,225,1,23,NaN,NaN,1,NaN,2.411775e-01,NaN,0,0,1,1
1,226,1,48,NaN,NaN,1,NaN,2.489865e-01,NaN,0,1,1,1
1,227,1,121,NaN,NaN,2,NaN,2.725316e-01,NaN,1,0,3,1
1,228,1,133,NaN,NaN,2,NaN,2.555590e-01,NaN,1,1,3,1
1,229,1,126,NaN,NaN,2,NaN,2.865101e-01,NaN,0,0,3,1
1,230,1,74,NaN,NaN,1,NaN,4.128476e-01,NaN,2,0,2,1
1,231,1,137,NaN,NaN,1,NaN,2.216422e-01,NaN,1,0,3,1
1,232,1,38,NaN,NaN,1,NaN,2.223733e-01,NaN,0,0,1,1
1,233,1,8,NaN,NaN,1,NaN,2.467811e-01,NaN,0,1,1,1
1,234,1,19,NaN,NaN,1,NaN,2.222525e-01,NaN,1,1,1,1
1,235,1,75,NaN,NaN,1,NaN,1.347614e-01,NaN,0,0,2,1
1,236,1,40,NaN,NaN,1,NaN,2.669657e-01,NaN,0,0,1,1
1,237,1,142,NaN,NaN,2,NaN,2.821598e-01,NaN,0,0,3,1
1,238,1,22,NaN,NaN,2,NaN,2.238222e-01,NaN,0,1,1,1
1,239,1,15,NaN,NaN,1,NaN,1.121284e-01,NaN,0,1,1,1
1,240,1,142,NaN,NaN,2,NaN,4.448972e-01,NaN,2,0,3,1
1,241,1,105,NaN,NaN,2,NaN,2.042217e-01,NaN,2,0,3,1
1,242,1,128,NaN,NaN,2,NaN,2.376181e-01,NaN,0,0,3,1
1,243,1,81,NaN,NaN,1,NaN,2.059842e-01,NaN,0,1,2,1
1,244,1,83,NaN,NaN,1,NaN,2.548708e-01,NaN,1,0,2,1
1,245,1,100,NaN,NaN,2,NaN,2.384919e-01,NaN,1,0,3,1
1,246,1,67,NaN,NaN,1,NaN,2.788983e-01,NaN,2,1,2,1
1,247,1,43,NaN,NaN,1,NaN,4.207094e-01,NaN,0,0,1,1
1,248,1,51,NaN,NaN,1,NaN,1.172910e-01,NaN,2,0,2,1
1,249,1,118,NaN,NaN,1,NaN,2.900617e-01,NaN,0,0,3,1
1,250,1,70,NaN,NaN,1,NaN,2.561693e-01,NaN,0,0,2,1
1,251,1,45,NaN,NaN,2,NaN,2.392420e-01,NaN,0,0,1,1
1,252,1,29,NaN,NaN,1,NaN,2.477612e-01,NaN,0,0,1,1
1,253,1,80,NaN,NaN,1,NaN,2.871325e-01,NaN,0,0,2,1
1,254,1,96,NaN,NaN,1,NaN,3.089049e-01,NaN,1,0,2,1
1,255,1,16,NaN,NaN,1,NaN,4.502240e-01,NaN,0,0,1,1
1,256,1,102,NaN,NaN,2,NaN,4.574630e-01,NaN,1,1,3,1
1,257,1,78,NaN,NaN,1,NaN,1.689670e-01,NaN,2,0,2,1
1,258,1,18,NaN,NaN,1,NaN,2.275012e-01,NaN,0,0,1,1
1,259,1,25,NaN,NaN,1,NaN,2.366787e-01,NaN,0,0,1,1
1,260,1,27,NaN,NaN,1,NaN,2.282507e-01,NaN,1,1,1,1
1,261,1,42,NaN,NaN,1,NaN,2.287517e-01,NaN,0,0,1,1
1,262,1,111,NaN,NaN,1,NaN,2.522763e-01,NaN,1,0,3,1
1,263,1,50,NaN,NaN,1,NaN,2.598559e-01,NaN,2,1,2,1
1,264,1,110,NaN,NaN,2,NaN,7.311869e-01,NaN,2,0,3,1
1,265,1,106,NaN,NaN,1,NaN,3.912042e-01,NaN,1,0,3,1
1,266,1,6,NaN,NaN,1,NaN,2.812488e-01,NaN,1,0,1,1
1,267,1,52,NaN,NaN,1,NaN,1.674548e-01,NaN,2,0,2,1
1,268,1,124,NaN,NaN,1,NaN,2.258295e-01,NaN,0,0,3,1
1,269,1,65,NaN,NaN,1,NaN,2.430167e-01,NaN,2,0,2,1
1,270,1,54,NaN,NaN,1,NaN,2.670837e-01,NaN,1,0,2,1
1,271,1,107,NaN,NaN,1,NaN,2.737290e-01,NaN,2,1,3,1
1,272,1,18,NaN,NaN,1,NaN,2.319499e-01,NaN,1,0,1,1
1,273,1,79,NaN,NaN,1,NaN,2.324998e-01,NaN,2,0,2,1
1,274,1,21,NaN,NaN,1,NaN,2.644987e-01,NaN,2,0,1,1
1,275,1,143,NaN,NaN,2,NaN,2.628611e-01,NaN,0,0,3,1
1,276,1,114,NaN,NaN,1,NaN,2.299383e-01,NaN,2,0,3,1
1,277,1,73,NaN,NaN,1,NaN,9.395748e-02,NaN,1,1,2,1
1,278,1,9,NaN,NaN,1,NaN,1.480133e-01,NaN,2,0,1,1
1,279,1,68,NaN,NaN,1,NaN,2.069616e-01,NaN,0,1,2,1
1,280,1,84,NaN,NaN,1,NaN,1.127922e-01,NaN,0,0,2,1
1,281,1,101,NaN,NaN,1,NaN,1.261745e-04,NaN,1,1,3,1
1,282,1,139,NaN,NaN,1,NaN,6.289801e-02,NaN,2,0,3,1
1,283,1,28,NaN,NaN,2,NaN,2.455061e-01,NaN,2,0,1,1
1,284,1,119,NaN,NaN,1,NaN,2.844732e-01,NaN,0,0,3,1
1,285,1,47,NaN,NaN,1,NaN,3.064991e-01,NaN,0,0,1,1
1,286,1,117,NaN,NaN,2,NaN,1.264764e-04,NaN,0,0,3,1
1,287,1,51,NaN,NaN,1,NaN,1.310042e-04,NaN,0,0,2,1
1,288,1,23,NaN,NaN,1,NaN,2.749938e-01,NaN,2,0,1,1
1,373,2,133,71,1,1,1,2.979224e+00,NaN,1,1,3,1
1,374,2,97,11,1,1,1,1.794323e+00,NaN,1,1,3,1
1,375,2,2,37,1,1,1,1.936374e+00,NaN,1,0,1,1
1,376,2,40,31,1,1,1,1.576611e+00,NaN,1,0,1,1
1,377,2,127,53,1,2,0,2.263227e+00,NaN,1,0,3,1
1,378,2,41,21,1,1,1,2.146097e+00,NaN,1,1,1,1
1,379,2,137,70,2,2,1,1.265150e+00,NaN,1,0,3,1
1,380,2,71,26,1,1,1,7.403062e-01,NaN,1,0,2,1
1,381,2,57,32,1,1,1,1.556280e+00,NaN,1,0,2,1
1,382,2,135,61,1,1,1,5.874934e-01,NaN,1,0,3,1
1,383,2,1,29,1,1,1,1.257702e+00,NaN,1,0,1,1
1,384,2,125,34,2,2,1,1.781371e+00,NaN,1,0,3,1
1,385,2,3,36,1,1,1,1.147089e+00,NaN,1,0,1,1
1,386,2,36,55,1,1,1,1.018704e+00,NaN,1,0,1,1
1,387,2,14,50,1,1,1,1.207370e+00,NaN,1,1,1,1
1,388,2,108,8,1,1,1,2.556745e+00,NaN,1,0,3,1
1,389,2,94,33,1,1,1,1.228447e+00,NaN,1,1,2,1
1,390,2,55,16,2,2,1,8.729600e-01,NaN,1,1,2,1
1,391,2,140,57,2,2,1,1.243614e+00,NaN,1,0,3,1
1,392,2,80,45,2,2,1,1.207600e+00,NaN,1,0,2,1
1,393,2,63,25,1,2,0,7.806757e-01,NaN,1,0,2,1
1,394,2,121,14,1,1,1,2.434969e+00,NaN,1,0,3,1
1,395,2,54,66,1,2,0,7.987069e-01,NaN,1,0,2,1
1,396,2,113,10,1,1,1,1.340437e+00,NaN,1,0,3,1
1,397,3,57,32,1,1,1,1.496016e+00,NaN,1,0,2,1
1,398,3,127,53,1,2,0,1.089695e+00,NaN,1,0,3,1
1,399,3,40,31,2,2,1,1.115215e+00,NaN,1,0,1,1
1,400,3,2,37,1,1,1,1.340078e+00,NaN,1,0,1,1
1,401,3,97,11,2,2,1,1.236235e+00,NaN,1,1,3,1
1,402,3,121,14,2,2,1,1.576461e+00,NaN,1,0,3,1
1,403,3,137,70,1,1,1,1.102991e+00,NaN,1,0,3,1
1,404,3,71,26,2,2,1,9.046634e-01,NaN,1,0,2,1
1,405,3,140,57,2,2,1,4.582460e-01,NaN,1,0,3,1
1,406,3,63,25,2,1,0,1.357226e+00,NaN,1,0,2,1
1,407,3,54,66,2,1,0,1.733179e+00,NaN,1,0,2,1
1,408,3,135,61,1,1,1,6.453285e-01,NaN,1,0,3,1
1,409,3,55,16,1,1,1,6.485157e-01,NaN,1,1,2,1
1,410,3,3,36,2,2,1,1.379903e+00,NaN,1,0,1,1
1,411,3,133,71,2,2,1,1.002108e+00,NaN,1,1,3,1
1,412,3,80,45,2,2,1,7.596589e-01,NaN,1,0,2,1
1,413,3,94,33,2,2,1,1.062695e+00,NaN,1,1,2,1
1,414,3,41,21,2,2,1,1.697407e+00,NaN,1,1,1,1
1,415,3,14,50,1,1,1,1.122923e+00,NaN,1,1,1,1
1,416,3,113,10,1,1,1,1.123986e+00,NaN,1,0,3,1
1,417,3,1,29,1,2,0,1.924506e+00,NaN,1,0,1,1
1,418,3,125,34,2,2,1,7.411248e-01,NaN,1,0,3,1
1,419,3,36,55,1,1,1,8.133157e-01,NaN,1,0,1,1
1,420,3,108,8,2,2,1,1.043186e+00,NaN,1,0,3,1
1,445,2,62,23,2,2,1,3.817263e-01,NaN,1,0,2,2
1,446,2,83,42,2,2,1,1.355436e+00,NaN,1,0,2,2
1,447,2,136,54,1,1,1,9.787746e-01,NaN,1,0,3,2
1,448,2,35,19,2,2,1,1.464603e+00,NaN,1,0,1,2
1,449,2,11,43,2,2,1,1.571716e+00,NaN,1,0,1,2
1,450,2,70,39,2,2,1,1.218255e+00,NaN,1,0,2,2
1,451,2,34,63,2,2,1,1.055271e+00,NaN,1,0,1,2
1,452,2,96,46,2,2,1,5.143499e-01,NaN,1,0,2,2
1,453,2,68,20,2,2,1,5.075401e-01,NaN,1,1,2,2
1,454,2,87,64,1,1,1,6.690873e-01,NaN,1,0,2,2
1,455,2,123,12,2,2,1,1.519596e+00,NaN,1,0,3,2
1,456,2,126,6,1,1,1,1.304172e+00,NaN,1,0,3,2
1,457,2,102,68,1,1,1,1.170268e+00,NaN,1,1,3,2
1,458,2,84,22,2,2,1,1.272538e+00,NaN,1,0,2,2
1,459,2,30,24,1,1,1,7.556225e-01,NaN,1,0,1,2
1,460,2,6,5,2,2,1,1.498507e+00,NaN,1,0,1,2
1,461,2,106,44,2,2,1,1.148001e+00,NaN,1,0,3,2
1,462,2,111,4,2,2,1,1.339457e+00,NaN,1,0,3,2
1,463,2,109,58,1,1,1,1.099913e+00,NaN,1,0,3,2
1,464,2,100,56,1,2,0,1.508839e+00,NaN,1,0,3,2
1,465,2,37,7,1,1,1,1.078264e+00,NaN,1,0,1,2
1,466,2,44,60,2,2,1,1.208596e+00,NaN,1,0,1,2
1,467,2,39,69,2,2,1,6.939301e-01,NaN,1,0,1,2
1,468,2,16,30,1,1,1,1.328067e+00,NaN,1,0,1,2
1,469,3,39,69,1,1,1,7.519206e-01,NaN,1,0,1,2
1,470,3,102,68,2,2,1,6.787505e-01,NaN,1,1,3,2
1,471,3,70,39,2,2,1,5.848984e-01,NaN,1,0,2,2
1,472,3,6,5,1,1,1,9.593235e-01,NaN,1,0,1,2
1,473,3,62,23,2,2,1,4.148097e-01,NaN,1,0,2,2
1,474,3,84,22,1,1,1,1.043467e+00,NaN,1,0,2,2
1,475,3,11,43,2,2,1,7.353241e-01,NaN,1,0,1,2
1,476,3,96,46,1,1,1,6.075138e-01,NaN,1,0,2,2
1,477,3,100,56,2,2,1,1.365107e+00,NaN,1,0,3,2
1,478,3,106,44,1,1,1,1.275917e+00,NaN,1,0,3,2
1,479,3,126,6,1,1,1,8.623741e-01,NaN,1,0,3,2
1,480,3,136,54,1,1,1,9.052339e-01,NaN,1,0,3,2
1,481,3,87,64,1,1,1,4.109264e-01,NaN,1,0,2,2
1,482,3,83,42,1,1,1,5.278222e-01,NaN,1,0,2,2
1,483,3,37,7,1,1,1,8.647022e-01,NaN,1,0,1,2
1,484,3,44,60,1,1,1,9.873361e-01,NaN,1,0,1,2
1,485,3,34,63,2,2,1,1.081771e+00,NaN,1,0,1,2
1,486,3,16,30,1,2,0,1.155510e+00,NaN,1,0,1,2
1,487,3,123,12,2,2,1,1.363161e+00,NaN,1,0,3,2
1,488,3,30,24,1,1,1,8.817657e-01,NaN,1,0,1,2
1,489,3,35,19,2,2,1,1.259883e+00,NaN,1,0,1,2
1,490,3,111,4,2,2,1,1.135664e+00,NaN,1,0,3,2
1,491,3,68,20,2,2,1,3.515694e-01,NaN,1,1,2,2
1,492,3,109,58,2,2,1,5.589200e-01,NaN,1,0,3,2
1,517,2,66,67,2,2,1,1.273982e+00,NaN,1,0,2,3
1,518,2,88,72,1,2,0,4.289240e-01,NaN,1,0,2,3
1,519,2,47,1,2,2,1,9.531280e-01,NaN,1,0,1,3
1,520,2,27,17,1,1,1,1.120134e+00,NaN,1,1,1,3
1,521,2,128,13,2,2,1,6.968699e-01,NaN,1,0,3,3
1,522,2,32,18,1,1,1,6.744461e-01,NaN,1,0,1,3
1,523,2,19,59,1,1,1,7.892209e-01,NaN,1,1,1,3
1,524,2,60,62,1,2,0,6.754051e-01,NaN,1,1,2,3
1,525,2,18,28,1,1,1,1.213865e+00,NaN,1,0,1,3
1,526,2,49,27,1,1,1,8.914259e-01,NaN,1,1,2,3
1,527,2,129,40,2,1,0,1.052565e+00,NaN,1,0,3,3
1,528,2,69,49,2,2,1,4.646076e-01,NaN,1,0,2,3
1,529,2,64,15,1,1,1,5.952248e-01,NaN,1,0,2,3
1,530,2,26,3,1,2,0,1.128725e+00,NaN,1,1,1,3
1,531,2,43,52,2,2,1,9.368179e-01,NaN,1,0,1,3
1,532,2,22,2,1,2,0,1.496434e+00,NaN,1,1,1,3
1,533,2,85,38,2,2,1,8.020336e-01,NaN,1,0,2,3
1,534,2,141,47,2,2,1,1.551656e+00,NaN,1,1,3,3
1,535,2,77,9,1,1,1,8.552271e-01,NaN,1,0,2,3
1,536,2,101,48,1,1,1,1.394203e+00,NaN,1,1,3,3
1,537,2,73,35,2,2,1,1.008695e+00,NaN,1,1,2,3
1,538,2,89,51,1,1,1,6.218159e-01,NaN,1,0,2,3
1,539,2,112,65,2,2,1,1.074537e+00,NaN,1,1,3,3
1,540,2,124,41,1,1,1,7.093977e-01,NaN,1,0,3,3
1,541,3,88,72,2,2,1,5.535000e-01,NaN,1,0,2,3
1,542,3,47,1,2,2,1,1.129198e+00,NaN,1,0,1,3
1,543,3,26,3,2,2,1,1.048838e+00,NaN,1,1,1,3
1,544,3,85,38,2,2,1,5.241792e-01,NaN,1,0,2,3
1,545,3,32,18,1,1,1,7.651608e-01,NaN,1,0,1,3
1,546,3,18,28,1,1,1,1.371931e+00,NaN,1,0,1,3
1,547,3,19,59,1,1,1,6.188119e-01,NaN,1,1,1,3
1,548,3,27,17,2,2,1,4.955578e-01,NaN,1,1,1,3
1,549,3,101,48,1,1,1,1.480813e+00,NaN,1,1,3,3
1,550,3,124,41,1,1,1,3.473280e-01,NaN,1,0,3,3
1,551,3,112,65,2,2,1,5.625803e-01,NaN,1,1,3,3
1,552,3,128,13,2,2,1,8.332634e-01,NaN,1,0,3,3
1,553,3,69,49,1,1,1,5.173359e-01,NaN,1,0,2,3
1,554,3,73,35,1,2,0,5.899771e-01,NaN,1,1,2,3
1,555,3,89,51,2,2,1,6.678594e-01,NaN,1,0,2,3
1,556,3,141,47,2,2,1,6.068972e-01,NaN,1,1,3,3
1,557,3,77,9,1,1,1,6.042224e-01,NaN,1,0,2,3
1,558,3,66,67,1,1,1,9.377175e-01,NaN,1,0,2,3
1,559,3,129,40,2,1,0,1.722023e+00,NaN,1,0,3,3
1,560,3,43,52,1,1,1,1.378740e+00,NaN,1,0,1,3
1,561,3,60,62,1,2,0,1.096922e+00,NaN,1,1,2,3
1,562,3,64,15,2,2,1,9.942708e-01,NaN,1,0,2,3
1,563,3,22,2,2,1,0,1.208049e+00,NaN,1,1,1,3
1,564,3,49,27,2,2,1,1.077369e+00,NaN,1,1,2,3
1,589,4,53,59,2,2,1,7.150185e-01,NaN,2,1,2,1
1,590,4,115,35,2,2,1,1.675677e+00,NaN,2,1,3,1
1,591,4,78,13,1,1,1,6.944309e-01,NaN,2,0,2,1
1,592,4,5,47,2,2,1,7.848615e-01,NaN,2,1,1,1
1,593,4,119,19,2,2,1,1.014589e+00,NaN,2,0,3,1
1,594,4,31,26,2,2,1,7.874161e-01,NaN,2,0,1,1
1,595,4,24,33,1,1,1,1.057659e+00,NaN,2,1,1,1
1,596,4,98,45,1,1,1,1.845086e+00,NaN,2,0,3,1
1,597,4,91,12,1,1,1,9.286257e-01,NaN,2,0,2,1
1,598,4,9,6,2,2,1,1.168942e+00,NaN,2,0,1,1
1,599,4,52,37,1,1,1,8.075892e-01,NaN,2,0,2,1
1,600,4,21,58,2,2,1,1.060912e+00,NaN,2,0,1,1
1,601,4,142,29,1,1,1,1.223982e+00,NaN,2,0,3,1
1,602,4,117,72,1,1,1,1.252869e+00,NaN,2,0,3,1
1,603,4,20,57,1,1,1,8.085805e-01,NaN,2,0,1,1
1,604,4,42,67,2,2,1,1.741767e+00,NaN,2,0,1,1
1,605,4,28,66,1,1,1,7.987450e-01,NaN,2,0,1,1
1,606,4,50,50,1,1,1,8.752203e-01,NaN,2,1,2,1
1,607,4,118,39,2,2,1,1.238360e+00,NaN,2,0,3,1
1,608,4,38,23,2,2,1,2.345925e+00,NaN,2,0,1,1
1,609,4,56,18,1,1,1,5.135823e-01,NaN,2,0,2,1
1,610,4,76,14,2,2,1,1.066364e+00,NaN,2,0,2,1
1,611,4,132,2,1,1,1,1.957399e+00,NaN,2,1,3,1
1,612,4,17,61,1,2,0,7.964762e-01,NaN,2,0,1,1
1,637,4,12,4,1,2,0,1.235816e+00,NaN,2,0,1,2
1,638,4,23,22,1,1,1,8.796642e-01,NaN,2,0,1,2
1,639,4,114,38,2,2,1,1.417660e+00,NaN,2,0,3,2
1,640,4,139,43,1,1,1,1.118347e+00,NaN,2,0,3,2
1,641,4,138,21,1,1,1,7.912267e-01,NaN,2,1,3,2
1,642,4,130,31,1,1,1,1.789643e+00,NaN,2,0,3,2
1,643,4,4,70,2,2,1,1.011576e+00,NaN,2,0,1,2
1,644,4,95,48,1,1,1,7.446604e-01,NaN,2,1,2,2
1,645,4,116,20,2,2,1,1.136112e+00,NaN,2,1,3,2
1,646,4,103,49,1,1,1,2.824077e+00,NaN,2,0,3,2
1,647,4,104,64,2,2,1,1.061100e+00,NaN,2,0,3,2
1,648,4,143,52,1,1,1,1.312423e+00,NaN,2,0,3,2
1,649,4,46,62,1,1,1,1.065082e+00,NaN,2,1,1,2
1,650,4,65,5,1,1,1,1.580132e+00,NaN,2,0,2,2
1,651,4,86,34,1,2,0,8.981977e-01,NaN,2,0,2,2
1,652,4,10,44,2,2,1,2.051454e+00,NaN,2,0,1,2
1,653,4,90,40,1,1,1,6.953799e-01,NaN,2,0,2,2
1,654,4,29,25,2,2,1,9.606221e-01,NaN,2,0,1,2
1,655,4,131,30,2,2,1,9.998832e-01,NaN,2,0,3,2
1,656,4,134,28,2,1,0,1.485700e+00,NaN,2,0,3,2
1,657,4,81,65,2,2,1,5.435412e-01,NaN,2,1,2,2
1,658,4,13,68,1,1,1,9.278460e-01,NaN,2,1,1,2
1,659,4,92,56,2,2,1,1.096333e+00,NaN,2,0,2,2
1,660,4,110,15,2,1,0,1.209672e+00,NaN,2,0,3,2
1,685,4,25,46,1,1,1,6.497301e-01,NaN,2,0,1,3
1,686,4,144,36,2,2,1,6.771272e-01,NaN,2,0,3,3
1,687,4,67,17,2,2,1,6.244463e-01,NaN,2,1,2,3
1,688,4,120,55,1,1,1,1.509084e+00,NaN,2,0,3,3
1,689,4,51,63,2,2,1,1.166563e+00,NaN,2,0,2,3
1,690,4,93,8,1,1,1,7.092914e-01,NaN,2,0,2,3
1,691,4,99,51,2,2,1,1.054393e+00,NaN,2,0,3,3
1,692,4,79,10,2,2,1,6.422647e-01,NaN,2,0,2,3
1,693,4,74,1,1,1,1,1.006305e+00,NaN,2,0,2,3
1,694,4,122,24,1,1,1,1.211402e+00,NaN,2,0,3,3
1,695,4,105,42,1,1,1,1.665031e+00,NaN,2,0,3,3
1,696,4,45,9,1,1,1,1.227946e+00,NaN,2,0,1,3
1,697,4,107,16,2,2,1,1.184276e+00,NaN,2,1,3,3
1,698,4,15,11,2,2,1,1.486465e+00,NaN,2,1,1,3
1,699,4,61,60,2,2,1,1.064703e+00,NaN,2,0,2,3
1,700,4,59,69,2,2,1,5.792773e-01,NaN,2,0,2,3
1,701,4,48,27,2,2,1,1.081405e+00,NaN,2,1,1,3
1,702,4,8,71,2,2,1,1.299386e+00,NaN,2,1,1,3
1,703,4,58,3,1,2,0,8.048533e-01,NaN,2,1,2,3
1,704,4,7,53,1,1,1,1.162759e+00,NaN,2,0,1,3
1,705,4,33,32,2,2,1,1.712985e+00,NaN,2,0,1,3
1,706,4,72,7,1,1,1,8.817032e-01,NaN,2,0,2,3
1,707,4,82,54,2,2,1,1.172082e+00,NaN,2,0,2,3
1,708,4,75,41,1,2,0,1.610640e+00,NaN,2,0,2,3
1,709,5,8.423000e+01,22,2,2,1,1.479080e-04,1,1,0,2.100000e+00,1
1,710,5,8.999000e+01,51,2,2,1,9.323234e-01,1,1,0,2.300000e+00,1
1,711,5,4.461000e+01,60,1,0,0,2.500564e+00,1,1,0,1.200000e+00,1
1,712,5,8.999000e+01,51,2,0,0,2.500454e+00,2,1,0,2.300000e+00,1
1,713,5,9.625000e+01,46,2,0,0,2.500615e+00,1,1,0,2.100000e+00,1
1,714,5,1.089300e+02,8,3,0,0,2.500284e+00,1,1,0,3.200000e+00,1
1,715,5,8.917000e+01,72,2,0,0,2.500105e+00,1,1,0,2.300000e+00,1
1,716,5,1.009200e+02,56,3,0,0,2.500555e+00,1,1,0,3.200000e+00,1
1,717,5,1.731000e+01,30,1,0,0,2.500203e+00,1,1,0,1.300000e+00,1
1,718,5,4.443000e+01,52,1,0,0,2.500170e+00,1,1,0,1.300000e+00,1
1,719,5,3.451000e+01,63,1,0,0,2.500382e+00,1,1,0,1.200000e+00,1
1,720,5,6.642000e+01,67,2,0,0,2.500204e+00,1,1,0,2.100000e+00,1
1,721,5,1.402000e+02,57,3,0,0,2.500588e+00,1,1,0,3.100000e+00,1
1,722,5,1.299000e+02,40,3,3,1,1.204696e+00,1,1,0,3.200000e+00,1
1,723,5,8.804000e+01,64,2,2,1,4.299787e-01,1,1,0,2.300000e+00,1
1,724,5,1.299000e+02,40,3,3,1,4.552939e-01,2,1,0,3.200000e+00,1
1,725,5,1.092100e+02,58,3,3,1,7.212198e-01,1,1,0,3.100000e+00,1
1,726,5,1.217600e+02,14,3,3,1,3.862930e-01,1,1,0,3.200000e+00,1
1,727,5,1.247500e+02,41,3,3,1,4.120640e-01,1,1,0,3.200000e+00,1
1,728,5,3.256000e+01,18,1,1,1,4.540578e-01,1,1,0,1.200000e+00,1
1,729,5,1.260900e+02,6,3,3,1,4.786905e-01,1,1,0,3.100000e+00,1
1,730,5,1.370400e+02,70,3,3,1,3.601613e-01,1,1,0,3.100000e+00,1
1,731,5,8.423000e+01,22,2,1,0,2.500043e-01,2,1,0,2.100000e+00,1
1,732,5,4.130000e+01,31,1,1,1,5.238121e-01,1,1,0,1.300000e+00,1
1,733,5,1.217600e+02,14,3,3,1,3.650003e-01,2,1,0,3.200000e+00,1
1,734,5,7.118000e+01,39,2,2,1,3.433228e-01,1,1,0,2.300000e+00,1
1,735,5,1.247500e+02,41,3,3,1,3.122811e-01,2,1,0,3.200000e+00,1
1,736,5,4.443000e+01,52,1,1,1,3.619739e-01,2,1,0,1.300000e+00,1
1,737,5,5.733000e+01,32,2,2,1,7.155576e-01,1,1,0,2.100000e+00,1
1,738,5,1.258600e+02,34,3,3,1,3.887803e-01,1,1,0,3.200000e+00,1
1,739,5,4.443000e+01,52,1,1,1,3.261998e-01,3,1,0,1.300000e+00,1
1,740,5,7.003000e+01,49,2,3,0,4.401370e-01,1,1,0,2.300000e+00,1
1,741,5,5.733000e+01,32,2,2,1,5.696298e-01,2,1,0,2.100000e+00,1
1,742,5,7.745000e+01,9,2,2,1,3.068251e-01,1,1,0,2.100000e+00,1
1,743,5,8.098000e+01,45,2,2,1,2.364300e-01,1,1,0,2.300000e+00,1
1,744,5,1.009200e+02,56,3,3,1,2.622819e-01,2,1,0,3.200000e+00,1
1,745,5,1.370400e+02,70,3,3,1,2.794709e-01,2,1,0,3.100000e+00,1
1,746,5,5.428000e+01,66,2,2,1,3.687113e-01,1,1,0,2.100000e+00,1
1,747,5,5.733000e+01,32,2,2,1,2.984813e-01,3,1,0,2.100000e+00,1
1,748,5,1.092100e+02,58,3,3,1,3.553667e-01,2,1,0,3.100000e+00,1
1,749,5,1.402000e+02,57,3,3,1,3.572481e-01,2,1,0,3.100000e+00,1
1,750,5,1.287800e+02,13,3,2,0,2.465348e-01,1,1,0,3.200000e+00,1
1,751,5,1.299000e+02,40,3,3,1,2.640082e-01,3,1,0,3.200000e+00,1
1,752,5,1.092100e+02,58,3,3,1,3.613555e-01,3,1,0,3.100000e+00,1
1,753,5,1.009200e+02,56,3,3,1,2.986576e-01,3,1,0,3.200000e+00,1
1,754,5,1.089300e+02,8,3,2,0,4.441812e-01,2,1,0,3.200000e+00,1
1,755,5,6.238000e+01,23,2,2,1,2.862931e-01,1,1,0,2.100000e+00,1
1,756,5,7.003000e+01,49,2,2,1,3.198498e-01,2,1,0,2.300000e+00,1
1,757,5,7.003000e+01,49,2,2,1,2.572156e-01,3,1,0,2.300000e+00,1
1,758,5,5.428000e+01,66,2,2,1,3.945228e-01,2,1,0,2.100000e+00,1
1,759,5,8.999000e+01,51,2,2,1,2.524873e-01,3,1,0,2.300000e+00,1
1,760,5,3.451000e+01,63,1,1,1,3.178189e-01,2,1,0,1.200000e+00,1
1,761,5,1.239000e+01,43,1,1,1,7.993182e-01,1,1,0,1.300000e+00,1
1,762,5,2.520000e+00,37,1,1,1,2.890369e-01,1,1,0,1.200000e+00,1
1,763,5,8.614000e+01,38,2,2,1,4.899934e-01,1,1,0,2.300000e+00,1
1,764,5,6.329000e+01,25,2,1,0,2.916350e-01,1,1,0,2.100000e+00,1
1,765,5,1.111200e+02,4,3,3,1,3.573287e-01,1,1,0,3.100000e+00,1
1,766,5,1.270700e+02,53,3,3,1,2.305127e-01,1,1,0,3.100000e+00,1
1,767,5,5.428000e+01,66,2,2,1,3.438259e-01,3,1,0,2.100000e+00,1
1,768,5,1.270700e+02,53,3,3,1,2.820569e-01,2,1,0,3.100000e+00,1
1,769,5,1.137900e+02,10,3,3,1,2.592534e-01,1,1,0,3.200000e+00,1
1,770,5,1.217600e+02,14,3,3,1,3.175098e-01,3,1,0,3.200000e+00,1
1,771,5,2.420000e+00,29,1,1,1,5.192058e-01,1,1,0,1.300000e+00,1
1,772,5,1.217600e+02,14,3,3,1,2.806644e-01,4,1,0,3.200000e+00,1
1,773,5,8.804000e+01,64,2,2,1,4.097606e-01,2,1,0,2.300000e+00,1
1,774,5,6.642000e+01,67,2,2,1,4.440858e-01,2,1,0,2.100000e+00,1
1,775,5,1.260900e+02,6,3,3,1,7.821904e-01,2,1,0,3.100000e+00,1
1,776,5,6.642000e+01,67,2,2,1,3.673789e-01,3,1,0,2.100000e+00,1
1,777,5,1.351700e+02,61,3,3,1,9.850287e-01,1,1,0,3.100000e+00,1
1,778,5,1.258600e+02,34,3,3,1,3.703238e-01,2,1,0,3.200000e+00,1
1,779,5,4.774000e+01,1,1,1,1,4.356946e-01,1,1,0,1.200000e+00,1
1,780,5,3.256000e+01,18,1,1,1,3.656303e-01,2,1,0,1.200000e+00,1
1,781,5,6.510000e+01,15,2,2,1,3.744079e-01,1,1,0,2.300000e+00,1
1,782,5,1.368200e+02,54,3,3,1,6.157731e-01,1,1,0,3.200000e+00,1
1,783,5,8.405000e+01,42,2,2,1,3.452371e-01,1,1,0,2.300000e+00,1
1,784,5,1.089300e+02,8,3,4,0,3.866541e-01,3,1,0,3.200000e+00,1
1,785,5,1.258600e+02,34,3,3,1,3.720755e-01,3,1,0,3.200000e+00,1
1,786,5,1.287800e+02,13,3,3,1,1.439839e-04,2,1,0,3.200000e+00,1
1,787,5,1.260900e+02,6,3,3,1,3.669313e-01,3,1,0,3.100000e+00,1
1,788,5,1.351700e+02,61,3,3,1,2.885247e-01,2,1,0,3.100000e+00,1
1,789,5,9.625000e+01,46,2,2,1,3.220083e-01,2,1,0,2.100000e+00,1
1,790,5,1.402000e+02,57,3,3,1,3.871071e-01,3,1,0,3.100000e+00,1
1,791,5,3.720000e+01,55,1,1,1,4.445594e-01,1,1,0,1.300000e+00,1
1,792,5,9.625000e+01,46,2,2,1,3.426723e-01,3,1,0,2.100000e+00,1
1,793,5,4.130000e+01,31,1,1,1,5.447450e-01,2,1,0,1.300000e+00,1
1,794,5,1.239100e+02,12,3,3,1,6.588162e-01,1,1,0,3.200000e+00,1
1,795,5,1.260900e+02,6,3,3,1,4.211619e-01,4,1,0,3.100000e+00,1
1,796,5,1.061000e+02,44,3,2,0,5.984634e-01,1,1,0,3.100000e+00,1
1,797,5,3.772000e+01,7,1,1,1,6.876232e-01,1,1,0,1.200000e+00,1
1,798,5,6.650000e+00,5,1,1,1,9.210724e-01,1,1,0,1.200000e+00,1
1,799,5,6.238000e+01,23,2,2,1,3.544503e-01,2,1,0,2.100000e+00,1
1,800,5,8.098000e+01,45,2,2,1,2.998837e-01,2,1,0,2.300000e+00,1
1,801,5,1.731000e+01,30,1,1,1,2.698726e-01,2,1,0,1.300000e+00,1
1,802,5,7.118000e+01,39,2,2,1,5.271056e-01,2,1,0,2.300000e+00,1
1,803,5,3.959000e+01,69,1,1,1,1.840702e+00,1,1,0,1.200000e+00,1
1,804,5,1.368200e+02,54,3,3,1,7.153674e-01,2,1,0,3.200000e+00,1
1,805,5,1.137900e+02,10,3,3,1,2.367699e-01,2,1,0,3.200000e+00,1
1,806,5,3.720000e+01,55,1,1,1,1.406635e-04,2,1,0,1.300000e+00,1
1,807,5,6.329000e+01,25,2,2,1,5.596173e-01,2,1,0,2.100000e+00,1
1,808,5,3.619000e+01,19,1,3,0,2.733481e-01,1,1,0,1.300000e+00,1
1,809,5,3.451000e+01,63,1,1,1,3.788228e-01,3,1,0,1.200000e+00,1
1,810,5,3.959000e+01,69,1,1,1,5.081767e-01,2,1,0,1.200000e+00,1
1,811,5,7.131000e+01,26,2,2,1,2.536111e-01,1,1,0,2.100000e+00,1
1,812,5,3.772000e+01,7,1,1,1,5.030015e-01,2,1,0,1.200000e+00,1
1,813,5,1.270700e+02,53,3,3,1,1.448864e+00,3,1,0,3.100000e+00,1
1,814,5,4.443000e+01,52,1,1,1,4.984296e-01,4,1,0,1.300000e+00,1
1,815,5,1.731000e+01,30,1,1,1,1.259411e+00,3,1,0,1.300000e+00,1
1,816,5,4.774000e+01,1,1,1,1,3.416547e-01,2,1,0,1.200000e+00,1
1,817,5,6.510000e+01,15,2,2,1,4.396175e-01,2,1,0,2.300000e+00,1
1,818,5,6.329000e+01,25,2,2,1,2.657067e-01,3,1,0,2.100000e+00,1
1,819,5,1.934000e+01,28,1,1,1,3.227355e-01,1,1,0,1.300000e+00,1
1,820,5,8.917000e+01,72,2,2,1,3.400727e-01,2,1,0,2.300000e+00,1
1,821,5,1.061000e+02,44,3,3,1,9.814056e-01,2,1,0,3.100000e+00,1
1,822,5,1.239000e+01,43,1,1,1,3.826183e-01,2,1,0,1.300000e+00,1
1,823,5,6.510000e+01,15,2,2,1,2.883137e-01,3,1,0,2.300000e+00,1
1,824,5,7.118000e+01,39,2,2,1,3.216195e-01,3,1,0,2.300000e+00,1
1,825,5,8.098000e+01,45,2,2,1,3.069809e-01,3,1,0,2.300000e+00,1
1,826,5,5.428000e+01,66,2,2,1,2.206926e-01,4,1,0,2.100000e+00,1
1,827,5,4.440000e+00,36,1,3,0,3.101379e-01,1,1,0,1.300000e+00,1
1,828,5,8.999000e+01,51,2,2,1,3.597357e-01,4,1,0,2.300000e+00,1
1,829,5,4.130000e+01,31,1,1,1,2.340136e-01,3,1,0,1.300000e+00,1
1,830,5,3.959000e+01,69,1,1,1,2.356527e-01,3,1,0,1.200000e+00,1
1,831,5,4.130000e+01,31,1,1,1,2.368818e-01,4,1,0,1.300000e+00,1
1,832,5,1.111200e+02,4,3,3,1,6.780925e-01,2,1,0,3.100000e+00,1
1,833,5,2.420000e+00,29,1,1,1,2.237060e-01,2,1,0,1.300000e+00,1
1,834,5,1.287800e+02,13,3,3,1,2.648905e-01,3,1,0,3.200000e+00,1
1,835,5,7.131000e+01,26,2,2,1,2.987883e-01,2,1,0,2.100000e+00,1
1,836,5,8.098000e+01,45,2,3,0,3.399740e-01,4,1,0,2.300000e+00,1
1,837,5,2.420000e+00,29,1,1,1,3.091343e-01,3,1,0,1.300000e+00,1
1,838,5,6.642000e+01,67,2,2,1,2.312094e-01,4,1,0,2.100000e+00,1
1,839,5,6.650000e+00,5,1,1,1,3.689495e-01,2,1,0,1.200000e+00,1
1,840,5,6.510000e+01,15,2,2,1,2.103897e-01,4,1,0,2.300000e+00,1
1,841,5,7.745000e+01,9,2,2,1,3.885228e-01,2,1,0,2.100000e+00,1
1,842,5,6.650000e+00,5,1,1,1,2.459054e-01,3,1,0,1.200000e+00,1
1,843,5,8.614000e+01,38,2,2,1,3.670345e-01,2,1,0,2.300000e+00,1
1,844,5,6.650000e+00,5,1,1,1,2.168817e-01,4,1,0,1.200000e+00,1
1,845,5,1.402000e+02,57,3,3,1,3.217997e-01,4,1,0,3.100000e+00,1
1,846,5,1.111200e+02,4,3,3,1,5.156479e-01,3,1,0,3.100000e+00,1
1,847,5,3.619000e+01,19,1,1,1,4.129210e-01,2,1,0,1.300000e+00,1
1,848,5,6.329000e+01,25,2,2,1,4.622411e-01,4,1,0,2.100000e+00,1
1,849,5,4.774000e+01,1,1,1,1,5.916213e-01,3,1,0,1.200000e+00,1
1,850,5,3.451000e+01,63,1,1,1,6.980688e-01,4,1,0,1.200000e+00,1
1,851,5,1.092100e+02,58,3,3,1,3.552417e-01,4,1,0,3.100000e+00,1
1,852,5,3.619000e+01,19,1,1,1,1.036861e+00,3,1,0,1.300000e+00,1
1,853,5,1.247500e+02,41,3,3,1,8.542956e-01,3,1,0,3.200000e+00,1
1,854,5,8.917000e+01,72,2,2,1,4.718282e-01,3,1,0,2.300000e+00,1
1,855,5,8.423000e+01,22,2,1,0,7.686366e-01,3,1,0,2.100000e+00,1
1,856,5,4.461000e+01,60,1,1,1,7.462216e-01,2,1,0,1.200000e+00,1
1,857,5,8.405000e+01,42,2,2,1,3.960417e-01,2,1,0,2.300000e+00,1
1,858,5,4.461000e+01,60,1,1,1,3.010872e-01,3,1,0,1.200000e+00,1
1,859,5,1.247500e+02,41,3,0,0,2.500298e+00,4,1,0,3.200000e+00,1
1,860,5,1.368200e+02,54,3,3,1,8.100798e-02,3,1,0,3.200000e+00,1
1,861,5,2.520000e+00,37,1,1,1,2.419152e-01,2,1,0,1.200000e+00,1
1,862,5,1.368200e+02,54,3,3,1,4.521574e-01,4,1,0,3.200000e+00,1
1,863,5,7.745000e+01,9,2,2,1,4.138887e-01,3,1,0,2.100000e+00,1
1,864,5,8.614000e+01,38,2,2,1,3.033007e-01,3,1,0,2.300000e+00,1
1,865,5,3.772000e+01,7,1,1,1,2.802533e-01,3,1,0,1.200000e+00,1
1,866,5,8.614000e+01,38,2,2,1,1.521951e+00,4,1,0,2.300000e+00,1
1,867,5,1.934000e+01,28,1,1,1,4.360731e-01,2,1,0,1.300000e+00,1
1,868,5,1.111200e+02,4,3,1,0,1.317098e+00,4,1,0,3.100000e+00,1
1,869,5,1.239100e+02,12,3,3,1,7.830480e-01,2,1,0,3.200000e+00,1
1,870,5,1.239100e+02,12,3,3,1,5.363070e-01,3,1,0,3.200000e+00,1
1,871,5,6.238000e+01,23,2,2,1,5.785580e-01,3,1,0,2.100000e+00,1
1,872,5,8.804000e+01,64,2,2,1,2.508987e-01,3,1,0,2.300000e+00,1
1,873,5,8.917000e+01,72,2,2,1,3.402988e-01,4,1,0,2.300000e+00,1
1,874,5,2.520000e+00,37,1,1,1,2.141421e-01,3,1,0,1.200000e+00,1
1,875,5,3.256000e+01,18,1,1,1,2.796656e-01,3,1,0,1.200000e+00,1
1,876,5,7.131000e+01,26,2,2,1,2.167241e-01,3,1,0,2.100000e+00,1
1,877,5,2.520000e+00,37,1,1,1,4.181237e-01,4,1,0,1.200000e+00,1
1,878,5,1.061000e+02,44,3,3,1,3.719309e-01,3,1,0,3.100000e+00,1
1,879,5,1.934000e+01,28,1,1,1,9.652133e-01,3,1,0,1.300000e+00,1
1,880,5,1.258600e+02,34,3,2,0,1.062774e+00,4,1,0,3.200000e+00,1
1,881,5,1.370400e+02,70,3,3,1,4.316259e-01,3,1,0,3.100000e+00,1
1,882,5,7.003000e+01,49,2,2,1,6.651916e-01,4,1,0,2.300000e+00,1
1,883,5,7.745000e+01,9,2,2,1,5.384399e-01,4,1,0,2.100000e+00,1
1,884,5,8.405000e+01,42,2,2,1,4.762959e-01,3,1,0,2.300000e+00,1
1,885,5,3.122000e+01,24,1,1,1,3.263960e-01,1,1,0,1.300000e+00,1
1,886,5,3.772000e+01,7,1,1,1,4.641322e-01,4,1,0,1.200000e+00,1
1,887,5,4.774000e+01,1,1,1,1,3.378547e-01,4,1,0,1.200000e+00,1
1,888,5,1.270700e+02,53,3,3,1,3.308378e-01,4,1,0,3.100000e+00,1
1,889,5,3.122000e+01,24,1,1,1,1.276714e+00,2,1,0,1.300000e+00,1
1,890,5,1.934000e+01,28,1,1,1,3.907245e-01,4,1,0,1.300000e+00,1
1,891,5,1.351700e+02,61,3,3,1,3.601828e-01,3,1,0,3.100000e+00,1
1,892,5,4.461000e+01,60,1,1,1,2.983448e-01,4,1,0,1.200000e+00,1
1,893,5,3.959000e+01,69,1,1,1,4.914139e-01,4,1,0,1.200000e+00,1
1,894,5,1.351700e+02,61,3,3,1,6.292276e-01,4,1,0,3.100000e+00,1
1,895,5,3.720000e+01,55,1,3,0,2.704503e-01,3,1,0,1.300000e+00,1
1,896,5,1.239000e+01,43,1,1,1,3.437004e-01,3,1,0,1.300000e+00,1
1,897,5,4.440000e+00,36,1,3,0,2.497824e-01,2,1,0,1.300000e+00,1
1,898,5,1.299000e+02,40,3,3,1,3.792587e-01,4,1,0,3.200000e+00,1
1,899,5,5.733000e+01,32,2,1,0,7.327185e-01,4,1,0,2.100000e+00,1
1,900,5,4.440000e+00,36,1,1,1,4.220134e-01,3,1,0,1.300000e+00,1
1,901,5,1.009200e+02,56,3,3,1,6.072908e-01,4,1,0,3.200000e+00,1
1,902,5,8.804000e+01,64,2,2,1,6.249072e-01,4,1,0,2.300000e+00,1
1,903,5,9.625000e+01,46,2,2,1,1.562071e+00,4,1,0,2.100000e+00,1
1,904,5,7.118000e+01,39,2,2,1,4.606210e-01,4,1,0,2.300000e+00,1
1,905,5,3.720000e+01,55,1,1,1,3.907955e-01,4,1,0,1.300000e+00,1
1,906,5,2.420000e+00,29,1,1,1,3.996965e-01,4,1,0,1.300000e+00,1
1,907,5,1.287800e+02,13,3,3,1,2.976455e-01,4,1,0,3.200000e+00,1
1,908,5,1.137900e+02,10,3,1,0,1.138767e+00,3,1,0,3.200000e+00,1
1,909,5,4.440000e+00,36,1,1,1,2.843805e-01,4,1,0,1.300000e+00,1
1,910,5,1.137900e+02,10,3,3,1,2.297741e-01,4,1,0,3.200000e+00,1
1,911,5,1.061000e+02,44,3,3,1,2.712007e-01,4,1,0,3.100000e+00,1
1,912,5,1.731000e+01,30,1,1,1,8.163252e-01,4,1,0,1.300000e+00,1
1,913,5,8.405000e+01,42,2,2,1,3.063144e-01,4,1,0,2.300000e+00,1
1,914,5,1.239100e+02,12,3,3,1,4.834381e-01,4,1,0,3.200000e+00,1
1,915,5,1.239000e+01,43,1,1,1,4.370532e-01,4,1,0,1.300000e+00,1
1,916,5,1.089300e+02,8,3,2,0,7.182362e-01,4,1,0,3.200000e+00,1
1,917,5,6.238000e+01,23,2,2,1,8.795226e-01,4,1,0,2.100000e+00,1
1,918,5,3.256000e+01,18,1,1,1,6.488378e-01,4,1,0,1.200000e+00,1
1,919,5,8.423000e+01,22,2,1,0,3.786275e-01,4,1,0,2.100000e+00,1
1,920,5,3.122000e+01,24,1,1,1,4.837559e-01,3,1,0,1.300000e+00,1
1,921,5,3.122000e+01,24,1,1,1,4.292168e-01,4,1,0,1.300000e+00,1
1,922,5,3.619000e+01,19,1,1,1,6.227683e-01,4,1,0,1.300000e+00,1
1,923,5,7.131000e+01,26,2,2,1,3.201552e-01,4,1,0,2.100000e+00,1
1,924,5,1.370400e+02,70,3,3,1,7.054325e-01,4,1,0,3.100000e+00,1
1,925,6,120,55,2,1,0,9.406110e-01,NaN,2,0,3,1
1,926,6,105,42,1,1,1,8.459252e-01,NaN,2,0,3,1
1,927,6,38,23,2,2,1,7.942857e-01,NaN,2,0,1,1
1,928,6,7,53,1,1,1,7.769331e-01,NaN,2,0,1,1
1,929,6,93,8,2,2,1,7.843327e-01,NaN,2,0,2,1
1,930,6,61,60,1,1,1,6.550089e-01,NaN,2,0,2,1
1,931,6,65,5,2,2,1,8.029389e-01,NaN,2,0,2,1
1,932,6,114,38,2,2,1,9.771497e-01,NaN,2,0,3,1
1,933,6,74,1,1,1,1,6.881937e-01,NaN,2,0,2,1
1,934,6,20,57,2,2,1,7.872039e-01,NaN,2,0,1,1
1,935,6,116,20,2,2,1,8.818442e-01,NaN,2,1,3,1
1,936,6,12,4,2,2,1,7.722474e-01,NaN,2,0,1,1
1,937,6,5,47,1,2,0,1.035622e+00,NaN,2,1,1,1
1,938,6,143,52,1,2,0,8.969607e-01,NaN,2,0,3,1
1,939,6,103,49,2,2,1,7.544598e-01,NaN,2,0,3,1
1,940,6,28,66,1,1,1,7.465386e-01,NaN,2,0,1,1
1,941,6,72,7,1,1,1,7.065370e-01,NaN,2,0,2,1
1,942,6,117,72,1,2,0,1.028472e+00,NaN,2,0,3,1
1,943,6,132,2,2,1,0,8.748231e-01,NaN,2,1,3,1
1,944,6,42,67,2,2,1,8.854395e-01,NaN,2,0,1,1
1,945,6,8,71,1,2,0,1.087861e+00,NaN,2,1,1,1
1,946,6,75,41,1,1,1,1.066514e+00,NaN,2,0,2,1
1,947,6,67,17,2,2,1,7.985131e-01,NaN,2,1,2,1
1,948,6,131,30,2,2,1,7.239702e-01,NaN,2,0,3,1
1,949,6,4,70,1,2,0,1.005216e+00,NaN,2,0,1,1
1,950,6,56,18,2,2,1,8.751853e-01,NaN,2,0,2,1
1,951,6,58,3,1,2,0,6.386198e-01,NaN,2,1,2,1
1,952,6,142,29,1,1,1,1.059254e+00,NaN,2,0,3,1
1,953,6,48,27,1,2,0,7.677063e-01,NaN,2,1,1,1
1,954,6,90,40,1,2,0,6.627034e-01,NaN,2,0,2,1
1,955,6,95,48,2,1,0,8.743323e-01,NaN,2,1,2,1
1,956,6,122,24,1,1,1,8.934133e-01,NaN,2,0,3,1
1,957,6,92,56,2,2,1,6.643295e-01,NaN,2,0,2,1
1,958,6,110,15,2,1,0,9.958438e-01,NaN,2,0,3,1
1,959,6,25,46,1,1,1,1.137363e+00,NaN,2,0,1,1
1,960,6,29,25,1,1,1,9.224437e-01,NaN,2,0,1,1
1,961,6,86,34,2,2,1,1.347710e+00,NaN,2,0,2,1
1,962,6,115,35,2,2,1,1.203483e+00,NaN,2,1,3,1
1,963,6,144,36,2,2,1,1.057898e+00,NaN,2,0,3,1
1,964,6,45,9,2,2,1,1.182045e+00,NaN,2,0,1,1
1,965,6,107,16,2,2,1,6.764746e-01,NaN,2,1,3,1
1,966,6,91,12,2,2,1,1.040101e+00,NaN,2,0,2,1
1,967,6,119,19,2,2,1,8.845198e-01,NaN,2,0,3,1
1,968,6,33,32,2,2,1,1.047398e+00,NaN,2,0,1,1
1,969,6,79,10,2,2,1,6.192282e-01,NaN,2,0,2,1
1,970,6,21,58,2,2,1,8.884825e-01,NaN,2,0,1,1
1,971,6,17,61,1,1,1,1.355422e+00,NaN,2,0,1,1
1,972,6,10,44,2,2,1,7.472796e-01,NaN,2,0,1,1
1,973,6,81,65,1,1,1,6.913411e-01,NaN,2,1,2,1
1,974,6,118,39,2,2,1,1.061979e+00,NaN,2,0,3,1
1,975,6,51,63,1,1,1,1.057268e+00,NaN,2,0,2,1
1,976,6,138,21,1,1,1,1.125653e+00,NaN,2,1,3,1
1,977,6,104,64,2,2,1,7.429526e-01,NaN,2,0,3,1
1,978,6,53,59,1,1,1,6.478154e-01,NaN,2,1,2,1
1,979,6,46,62,2,2,1,8.917006e-01,NaN,2,1,1,1
1,980,6,130,31,2,2,1,9.343373e-01,NaN,2,0,3,1
1,981,6,59,69,2,2,1,7.349088e-01,NaN,2,0,2,1
1,982,6,9,6,1,2,0,8.958360e-01,NaN,2,0,1,1
1,983,6,78,13,2,2,1,1.313750e+00,NaN,2,0,2,1
1,984,6,15,11,1,1,1,8.350748e-01,NaN,2,1,1,1
1,985,6,31,26,1,2,0,7.595192e-01,NaN,2,0,1,1
1,986,6,98,45,2,2,1,1.999943e+00,NaN,2,0,3,1
1,987,6,50,50,1,1,1,7.259785e-01,NaN,2,1,2,1
1,988,6,13,68,1,1,1,8.712778e-01,NaN,2,1,1,1
1,989,6,23,22,2,2,1,7.383774e-01,NaN,2,0,1,1
1,990,6,139,43,2,2,1,9.713397e-01,NaN,2,0,3,1
1,991,6,99,51,2,2,1,7.542893e-01,NaN,2,0,3,1
1,992,6,24,33,1,1,1,8.663362e-01,NaN,2,1,1,1
1,993,6,76,14,2,2,1,5.497920e-01,NaN,2,0,2,1
1,994,6,134,28,2,2,1,6.863274e-01,NaN,2,0,3,1
1,995,6,52,37,1,1,1,8.963223e-01,NaN,2,0,2,1
1,996,6,82,54,1,1,1,1.002611e+00,NaN,2,0,2,1
1,997,6,35,19,2,2,1,9.208309e-01,NaN,1,0,1,1
1,998,6,126,6,1,1,1,1.170031e+00,NaN,1,0,3,1
1,999,6,54,66,2,2,1,7.373912e-01,NaN,1,0,2,1
1,1000,6,127,53,1,2,0,1.346185e+00,NaN,1,0,3,1
1,1001,6,32,18,2,2,1,6.898871e-01,NaN,1,0,1,1
1,1002,6,89,51,2,2,1,5.809037e-01,NaN,1,0,2,1
1,1003,6,77,9,2,2,1,5.314707e-01,NaN,1,0,2,1
1,1004,6,1,29,1,1,1,8.124660e-01,NaN,1,0,1,1
1,1005,6,66,67,2,2,1,5.533841e-01,NaN,1,0,2,1
1,1006,6,87,64,1,1,1,7.053562e-01,NaN,1,0,2,1
1,1007,6,16,30,1,2,0,8.754521e-01,NaN,1,0,1,1
1,1008,6,57,32,2,2,1,7.588391e-01,NaN,1,0,2,1
1,1009,6,64,15,2,2,1,6.871179e-01,NaN,1,0,2,1
1,1010,6,129,40,2,1,0,9.774854e-01,NaN,1,0,3,1
1,1011,6,44,60,1,1,1,9.372185e-01,NaN,1,0,1,1
1,1012,6,41,21,2,2,1,8.734862e-01,NaN,1,1,1,1
1,1013,6,85,38,1,1,1,7.171299e-01,NaN,1,0,2,1
1,1014,6,68,20,1,1,1,7.663791e-01,NaN,1,1,2,1
1,1015,6,39,69,2,2,1,8.379964e-01,NaN,1,0,1,1
1,1016,6,121,14,2,2,1,1.314219e+00,NaN,1,0,3,1
1,1017,6,84,22,1,1,1,5.799740e-01,NaN,1,0,2,1
1,1018,6,108,8,2,2,1,9.224618e-01,NaN,1,0,3,1
1,1019,6,22,2,1,2,0,9.077764e-01,NaN,1,1,1,1
1,1020,6,2,37,1,1,1,8.377703e-01,NaN,1,0,1,1
1,1021,6,30,24,1,1,1,6.823477e-01,NaN,1,0,1,1
1,1022,6,73,35,1,2,0,9.331764e-01,NaN,1,1,2,1
1,1023,6,109,58,1,1,1,1.142185e+00,NaN,1,0,3,1
1,1024,6,97,11,2,2,1,1.134490e+00,NaN,1,1,3,1
1,1025,6,14,50,2,2,1,9.830860e-01,NaN,1,1,1,1
1,1026,6,40,31,1,1,1,1.013935e+00,NaN,1,0,1,1
1,1027,6,96,46,2,2,1,9.793499e-01,NaN,1,0,2,1
1,1028,6,19,59,1,1,1,8.499519e-01,NaN,1,1,1,1
1,1029,6,141,47,2,2,1,8.380698e-01,NaN,1,1,3,1
1,1030,6,34,63,1,2,0,6.347612e-01,NaN,1,0,1,1
1,1031,6,6,5,1,1,1,6.716917e-01,NaN,1,0,1,1
1,1032,6,88,72,2,2,1,8.509429e-01,NaN,1,0,2,1
1,1033,6,140,57,2,2,1,8.387885e-01,NaN,1,0,3,1
1,1034,6,102,68,2,2,1,8.759218e-01,NaN,1,1,3,1
1,1035,6,62,23,1,1,1,5.911607e-01,NaN,1,0,2,1
1,1036,6,36,55,1,1,1,1.093502e+00,NaN,1,0,1,1
1,1037,6,111,4,2,2,1,7.201974e-01,NaN,1,0,3,1
1,1038,6,60,62,1,1,1,8.015492e-01,NaN,1,1,2,1
1,1039,6,135,61,1,1,1,7.835488e-01,NaN,1,0,3,1
1,1040,6,37,7,2,2,1,7.982535e-01,NaN,1,0,1,1
1,1041,6,11,43,1,2,0,8.126199e-01,NaN,1,0,1,1
1,1042,6,101,48,2,2,1,8.741216e-01,NaN,1,1,3,1
1,1043,6,18,28,2,2,1,9.892568e-01,NaN,1,0,1,1
1,1044,6,55,16,2,2,1,6.276966e-01,NaN,1,1,2,1
1,1045,6,69,49,2,2,1,6.252857e-01,NaN,1,0,2,1
1,1046,6,27,17,2,2,1,1.334459e+00,NaN,1,1,1,1
1,1047,6,124,41,1,1,1,8.154664e-01,NaN,1,0,3,1
1,1048,6,63,25,2,2,1,1.404812e+00,NaN,1,0,2,1
1,1049,6,128,13,1,1,1,9.307960e-01,NaN,1,0,3,1
1,1050,6,106,44,1,1,1,1.243447e+00,NaN,1,0,3,1
1,1051,6,123,12,2,2,1,1.528165e+00,NaN,1,0,3,1
1,1052,6,94,33,1,1,1,1.161446e+00,NaN,1,1,2,1
1,1053,6,112,65,1,1,1,7.534673e-01,NaN,1,1,3,1
1,1054,6,47,1,2,2,1,1.073309e+00,NaN,1,0,1,1
1,1055,6,100,56,2,1,0,1.132509e+00,NaN,1,0,3,1
1,1056,6,49,27,1,1,1,6.935459e-01,NaN,1,1,2,1
1,1057,6,83,42,1,1,1,1.063912e+00,NaN,1,0,2,1
1,1058,6,133,71,1,1,1,8.915002e-01,NaN,1,1,3,1
1,1059,6,26,3,1,2,0,1.054503e+00,NaN,1,1,1,1
1,1060,6,3,36,1,2,0,1.274382e+00,NaN,1,0,1,1
1,1061,6,43,52,1,1,1,1.493958e+00,NaN,1,0,1,1
1,1062,6,71,26,1,1,1,6.165374e-01,NaN,1,0,2,1
1,1063,6,80,45,2,2,1,5.975162e-01,NaN,1,0,2,1
1,1064,6,137,70,1,1,1,9.159886e-01,NaN,1,0,3,1
1,1065,6,125,34,2,2,1,9.333599e-01,NaN,1,0,3,1
1,1066,6,136,54,1,1,1,9.417421e-01,NaN,1,0,3,1
1,1067,6,70,39,2,2,1,5.983583e-01,NaN,1,0,2,1
1,1068,6,113,10,2,2,1,9.804119e-01,NaN,1,0,3,1
