Subject,Trial,Cond,ImageNum,CueNum,Correct,Resp,Accuracy,RT,CueRep,ImageType,Baseline,Category,Block
3,1,1,31,NaN,NaN,1,NaN,1.076796e+00,NaN,1,0,1,1
3,2,1,78,NaN,NaN,1,NaN,6.715574e-01,NaN,0,0,2,1
3,3,1,111,NaN,NaN,1,NaN,4.462435e-01,NaN,2,0,3,1
3,4,1,59,NaN,NaN,1,NaN,3.895038e-01,NaN,0,0,2,1
3,5,1,140,NaN,NaN,1,NaN,6.158172e-01,NaN,2,0,3,1
3,6,1,36,NaN,NaN,1,NaN,7.203112e-01,NaN,0,0,1,1
3,7,1,26,NaN,NaN,1,NaN,4.769099e-01,NaN,1,1,1,1
3,8,1,91,NaN,NaN,1,NaN,6.517157e-01,NaN,2,0,2,1
3,9,1,54,NaN,NaN,1,NaN,4.029713e-01,NaN,0,0,2,1
3,10,1,6,NaN,NaN,1,NaN,4.926346e-01,NaN,0,0,1,1
3,11,1,139,NaN,NaN,1,NaN,4.823327e-01,NaN,0,0,3,1
3,12,1,77,NaN,NaN,1,NaN,5.363224e-01,NaN,0,0,2,1
3,13,1,64,NaN,NaN,1,NaN,3.089139e-01,NaN,0,1,2,1
3,14,1,21,NaN,NaN,1,NaN,3.139247e-01,NaN,0,0,1,1
3,15,1,118,NaN,NaN,1,NaN,4.869257e-01,NaN,0,1,3,1
3,16,1,107,NaN,NaN,1,NaN,3.566556e-01,NaN,2,1,3,1
3,17,1,35,NaN,NaN,1,NaN,1.064456e+00,NaN,0,0,1,1
3,18,1,137,NaN,NaN,1,NaN,5.827990e-01,NaN,2,0,3,1
3,19,1,52,NaN,NaN,1,NaN,6.326377e-01,NaN,0,0,2,1
3,20,1,38,NaN,NaN,1,NaN,3.529588e-01,NaN,0,0,1,1
3,21,1,95,NaN,NaN,1,NaN,4.679367e-01,NaN,2,0,2,1
3,22,1,71,NaN,NaN,1,NaN,5.549057e-01,NaN,1,0,2,1
3,23,1,121,NaN,NaN,1,NaN,4.224396e-01,NaN,0,1,3,1
3,24,1,20,NaN,NaN,1,NaN,3.348923e-01,NaN,0,1,1,1
3,25,1,138,NaN,NaN,1,NaN,3.632082e-01,NaN,0,0,3,1
3,26,1,49,NaN,NaN,1,NaN,4.389130e-01,NaN,1,0,2,1
3,27,1,85,NaN,NaN,1,NaN,3.498141e-01,NaN,2,1,2,1
3,28,1,78,NaN,NaN,1,NaN,5.610550e-01,NaN,2,0,2,1
3,29,1,39,NaN,NaN,2,NaN,2.046980e-01,NaN,0,0,1,1
3,30,1,73,NaN,NaN,1,NaN,3.816360e-01,NaN,2,0,2,1
3,31,1,7,NaN,NaN,1,NaN,4.241659e-01,NaN,2,1,1,1
3,32,1,43,NaN,NaN,1,NaN,3.448891e-01,NaN,2,1,1,1
3,33,1,30,NaN,NaN,1,NaN,3.877881e-01,NaN,0,0,1,1
3,34,1,51,NaN,NaN,1,NaN,1.252690e-04,NaN,0,0,2,1
3,35,1,76,NaN,NaN,1,NaN,4.956094e-01,NaN,1,1,2,1
3,36,1,140,NaN,NaN,1,NaN,3.884649e-01,NaN,0,0,3,1
3,37,1,118,NaN,NaN,1,NaN,3.988655e-01,NaN,1,1,3,1
3,38,1,130,NaN,NaN,1,NaN,4.720797e-01,NaN,0,0,3,1
3,39,1,55,NaN,NaN,1,NaN,5.271938e-01,NaN,0,0,2,1
3,40,1,20,NaN,NaN,1,NaN,4.355886e-01,NaN,1,1,1,1
3,41,1,113,NaN,NaN,1,NaN,4.677025e-01,NaN,0,0,3,1
3,42,1,87,NaN,NaN,1,NaN,1.845348e-02,NaN,0,1,2,1
3,43,1,16,NaN,NaN,1,NaN,4.033097e-01,NaN,0,0,1,1
3,44,1,53,NaN,NaN,1,NaN,4.042968e-01,NaN,2,0,2,1
3,45,1,72,NaN,NaN,1,NaN,3.260018e-01,NaN,1,1,2,1
3,46,1,129,NaN,NaN,1,NaN,7.544420e-01,NaN,0,1,3,1
3,47,1,42,NaN,NaN,1,NaN,4.698348e-01,NaN,0,0,1,1
3,48,1,68,NaN,NaN,1,NaN,4.443318e-01,NaN,0,0,2,1
3,49,1,61,NaN,NaN,1,NaN,4.520457e-01,NaN,1,0,2,1
3,50,1,126,NaN,NaN,2,NaN,6.595614e-01,NaN,0,0,3,1
3,51,1,88,NaN,NaN,1,NaN,6.829074e-01,NaN,1,0,2,1
3,52,1,2,NaN,NaN,1,NaN,4.488720e-01,NaN,2,0,1,1
3,53,1,114,NaN,NaN,1,NaN,3.440107e-01,NaN,2,0,3,1
3,54,1,134,NaN,NaN,2,NaN,3.565330e-01,NaN,0,0,3,1
3,55,1,19,NaN,NaN,1,NaN,2.717830e-01,NaN,0,1,1,1
3,56,1,142,NaN,NaN,1,NaN,4.062048e-01,NaN,1,0,3,1
3,57,1,33,NaN,NaN,1,NaN,4.155305e-01,NaN,1,0,1,1
3,58,1,119,NaN,NaN,1,NaN,3.521707e-01,NaN,0,0,3,1
3,59,1,15,NaN,NaN,1,NaN,2.675649e-01,NaN,0,1,1,1
3,60,1,87,NaN,NaN,1,NaN,3.304940e-01,NaN,1,1,2,1
3,61,1,107,NaN,NaN,1,NaN,3.183269e-01,NaN,0,1,3,1
3,62,1,46,NaN,NaN,2,NaN,3.552106e-01,NaN,0,1,1,1
3,63,1,65,NaN,NaN,1,NaN,2.942575e-01,NaN,0,0,2,1
3,64,1,92,NaN,NaN,1,NaN,3.255717e-01,NaN,0,0,2,1
3,65,1,57,NaN,NaN,1,NaN,3.375332e-01,NaN,1,0,2,1
3,66,1,117,NaN,NaN,2,NaN,6.532527e-01,NaN,0,0,3,1
3,67,1,63,NaN,NaN,1,NaN,4.128150e-01,NaN,0,0,2,1
3,68,1,23,NaN,NaN,1,NaN,3.093504e-01,NaN,0,0,1,1
3,69,1,64,NaN,NaN,1,NaN,4.270106e-01,NaN,2,1,2,1
3,70,1,22,NaN,NaN,1,NaN,4.032300e-01,NaN,1,0,1,1
3,71,1,34,NaN,NaN,1,NaN,3.490024e-01,NaN,0,0,1,1
3,72,1,125,NaN,NaN,1,NaN,3.282811e-01,NaN,0,0,3,1
3,73,1,124,NaN,NaN,1,NaN,5.641681e-01,NaN,1,0,3,1
3,74,1,121,NaN,NaN,1,NaN,2.787972e-01,NaN,1,1,3,1
3,75,1,127,NaN,NaN,1,NaN,2.530989e-01,NaN,0,0,3,1
3,76,1,142,NaN,NaN,1,NaN,2.602637e-01,NaN,0,0,3,1
3,77,1,35,NaN,NaN,1,NaN,2.757204e-01,NaN,1,0,1,1
3,78,1,123,NaN,NaN,1,NaN,4.584911e-01,NaN,0,1,3,1
3,79,1,138,NaN,NaN,1,NaN,2.177899e-01,NaN,2,0,3,1
3,80,1,43,NaN,NaN,1,NaN,2.982763e-01,NaN,0,1,1,1
3,81,1,102,NaN,NaN,2,NaN,1.207412e-04,NaN,2,0,3,1
3,82,1,67,NaN,NaN,1,NaN,4.924822e-02,NaN,2,0,2,1
3,83,1,109,NaN,NaN,1,NaN,4.044921e-02,NaN,2,1,3,1
3,84,1,4,NaN,NaN,1,NaN,2.887942e-01,NaN,0,0,1,1
3,85,1,84,NaN,NaN,1,NaN,2.943773e-01,NaN,1,0,2,1
3,86,1,92,NaN,NaN,1,NaN,3.798974e-01,NaN,1,0,2,1
3,87,1,40,NaN,NaN,1,NaN,2.058662e-01,NaN,0,1,1,1
3,88,1,83,NaN,NaN,1,NaN,4.713818e-01,NaN,2,1,2,1
3,89,1,48,NaN,NaN,1,NaN,4.061203e-01,NaN,2,1,1,1
3,90,1,93,NaN,NaN,1,NaN,5.914939e-01,NaN,0,0,2,1
3,91,1,46,NaN,NaN,1,NaN,4.657534e-01,NaN,2,1,1,1
3,92,1,17,NaN,NaN,1,NaN,5.442005e-01,NaN,1,0,1,1
3,93,1,130,NaN,NaN,2,NaN,1.148465e+00,NaN,2,0,3,1
3,94,1,110,NaN,NaN,2,NaN,5.193984e-01,NaN,2,0,3,1
3,95,1,89,NaN,NaN,1,NaN,5.325435e-01,NaN,0,1,2,1
3,96,1,7,NaN,NaN,1,NaN,3.364459e-01,NaN,0,1,1,1
3,97,1,129,NaN,NaN,1,NaN,2.367789e-01,NaN,2,1,3,1
3,98,1,56,NaN,NaN,1,NaN,4.926718e-01,NaN,2,1,2,1
3,99,1,94,NaN,NaN,1,NaN,4.584718e-01,NaN,0,0,2,1
3,100,1,37,NaN,NaN,1,NaN,3.699205e-01,NaN,2,0,1,1
3,101,1,68,NaN,NaN,1,NaN,3.646022e-01,NaN,2,0,2,1
3,102,1,88,NaN,NaN,1,NaN,4.475167e-01,NaN,0,0,2,1
3,103,1,16,NaN,NaN,1,NaN,2.227829e-01,NaN,1,0,1,1
3,104,1,139,NaN,NaN,1,NaN,3.512108e-01,NaN,1,0,3,1
3,105,1,57,NaN,NaN,1,NaN,3.306440e-01,NaN,0,0,2,1
3,106,1,141,NaN,NaN,1,NaN,7.065050e-02,NaN,0,0,3,1
3,107,1,132,NaN,NaN,2,NaN,8.296076e-01,NaN,0,1,3,1
3,108,1,39,NaN,NaN,2,NaN,1.293777e+00,NaN,2,0,1,1
3,109,1,117,NaN,NaN,1,NaN,5.635816e-01,NaN,1,0,3,1
3,110,1,15,NaN,NaN,1,NaN,4.465003e-01,NaN,1,1,1,1
3,111,1,124,NaN,NaN,1,NaN,5.173274e-01,NaN,0,0,3,1
3,112,1,37,NaN,NaN,1,NaN,4.023326e-01,NaN,0,0,1,1
3,113,1,27,NaN,NaN,1,NaN,3.595371e-02,NaN,2,0,1,1
3,114,1,86,NaN,NaN,1,NaN,4.836636e-01,NaN,0,0,2,1
3,115,1,110,NaN,NaN,1,NaN,3.536054e-01,NaN,0,0,3,1
3,116,1,133,NaN,NaN,2,NaN,6.133843e-01,NaN,0,0,3,1
3,117,1,116,NaN,NaN,1,NaN,4.461212e-01,NaN,1,0,3,1
3,118,1,10,NaN,NaN,1,NaN,3.415518e-01,NaN,1,1,1,1
3,119,1,73,NaN,NaN,1,NaN,3.292959e-01,NaN,0,0,2,1
3,120,1,4,NaN,NaN,1,NaN,4.052023e-01,NaN,1,0,1,1
3,121,1,82,NaN,NaN,1,NaN,3.109016e-01,NaN,0,0,2,1
3,122,1,131,NaN,NaN,1,NaN,2.998269e-01,NaN,1,0,3,1
3,123,1,101,NaN,NaN,2,NaN,4.816454e-01,NaN,0,1,3,1
3,124,1,91,NaN,NaN,1,NaN,3.432971e-01,NaN,0,0,2,1
3,125,1,66,NaN,NaN,1,NaN,4.434456e-01,NaN,2,0,2,1
3,126,1,65,NaN,NaN,1,NaN,3.315194e-01,NaN,1,0,2,1
3,127,1,119,NaN,NaN,1,NaN,4.472580e-01,NaN,1,0,3,1
3,128,1,62,NaN,NaN,1,NaN,4.147101e-01,NaN,1,1,2,1
3,129,1,60,NaN,NaN,1,NaN,2.477117e-01,NaN,0,0,2,1
3,130,1,34,NaN,NaN,1,NaN,6.710334e-01,NaN,1,0,1,1
3,131,1,69,NaN,NaN,1,NaN,4.779287e-01,NaN,1,0,2,1
3,132,1,6,NaN,NaN,1,NaN,2.047451e-01,NaN,2,0,1,1
3,133,1,32,NaN,NaN,1,NaN,2.777838e-01,NaN,2,0,1,1
3,134,1,128,NaN,NaN,1,NaN,4.047550e-01,NaN,0,0,3,1
3,135,1,62,NaN,NaN,1,NaN,3.735615e-01,NaN,0,1,2,1
3,136,1,82,NaN,NaN,1,NaN,2.567495e-01,NaN,1,0,2,1
3,137,1,71,NaN,NaN,1,NaN,2.322288e-01,NaN,0,0,2,1
3,138,1,30,NaN,NaN,1,NaN,3.042008e-01,NaN,2,0,1,1
3,139,1,97,NaN,NaN,1,NaN,2.053436e-01,NaN,2,0,3,1
3,140,1,77,NaN,NaN,1,NaN,1.745999e-01,NaN,2,0,2,1
3,141,1,112,NaN,NaN,1,NaN,2.538402e-02,NaN,2,0,3,1
3,142,1,89,NaN,NaN,1,NaN,1.285894e-04,NaN,2,1,2,1
3,143,1,106,NaN,NaN,1,NaN,4.275835e-01,NaN,2,0,3,1
3,144,1,120,NaN,NaN,1,NaN,1.805998e-01,NaN,0,1,3,1
3,145,1,103,NaN,NaN,1,NaN,3.663427e-01,NaN,1,0,3,1
3,146,1,108,NaN,NaN,2,NaN,6.483862e-02,NaN,1,0,3,1
3,147,1,85,NaN,NaN,1,NaN,3.356560e-01,NaN,0,1,2,1
3,148,1,97,NaN,NaN,1,NaN,3.475439e-01,NaN,0,0,3,1
3,149,1,108,NaN,NaN,1,NaN,1.588601e-01,NaN,0,0,3,1
3,150,1,24,NaN,NaN,1,NaN,1.703036e-01,NaN,0,0,1,1
3,151,1,96,NaN,NaN,1,NaN,1.332047e-01,NaN,2,1,2,1
3,152,1,11,NaN,NaN,1,NaN,2.089783e-01,NaN,2,0,1,1
3,153,1,9,NaN,NaN,1,NaN,2.104923e-01,NaN,0,0,1,1
3,154,1,22,NaN,NaN,1,NaN,2.519712e-01,NaN,0,0,1,1
3,155,1,103,NaN,NaN,1,NaN,2.350659e-01,NaN,0,0,3,1
3,156,1,36,NaN,NaN,1,NaN,2.354441e-01,NaN,2,0,1,1
3,157,1,14,NaN,NaN,2,NaN,3.156443e-01,NaN,0,0,1,1
3,158,1,100,NaN,NaN,2,NaN,1.441472e-01,NaN,1,0,3,1
3,159,1,47,NaN,NaN,1,NaN,2.361124e-01,NaN,2,0,1,1
3,160,1,105,NaN,NaN,2,NaN,8.683049e-01,NaN,1,1,3,1
3,161,1,131,NaN,NaN,1,NaN,2.201610e-01,NaN,0,0,3,1
3,162,1,115,NaN,NaN,2,NaN,2.035057e-01,NaN,2,0,3,1
3,163,1,51,NaN,NaN,1,NaN,5.166950e-01,NaN,1,0,2,1
3,164,1,144,NaN,NaN,1,NaN,3.297107e-01,NaN,0,0,3,1
3,165,1,74,NaN,NaN,1,NaN,4.460237e-01,NaN,0,0,2,1
3,166,1,61,NaN,NaN,1,NaN,3.173658e-01,NaN,0,0,2,1
3,167,1,116,NaN,NaN,1,NaN,2.977644e-01,NaN,0,0,3,1
3,168,1,112,NaN,NaN,1,NaN,4.072522e-01,NaN,0,0,3,1
3,169,1,76,NaN,NaN,1,NaN,2.804942e-01,NaN,0,1,2,1
3,170,1,86,NaN,NaN,1,NaN,1.262216e-01,NaN,2,0,2,1
3,171,1,47,NaN,NaN,1,NaN,3.313102e-01,NaN,0,0,1,1
3,172,1,42,NaN,NaN,1,NaN,2.795095e-01,NaN,1,0,1,1
3,173,1,8,NaN,NaN,1,NaN,1.412295e-01,NaN,1,0,1,1
3,174,1,27,NaN,NaN,1,NaN,3.132863e-01,NaN,0,0,1,1
3,175,1,54,NaN,NaN,1,NaN,3.180625e-01,NaN,1,0,2,1
3,176,1,45,NaN,NaN,1,NaN,2.349624e-01,NaN,0,1,1,1
3,177,1,29,NaN,NaN,1,NaN,2.906702e-01,NaN,2,0,1,1
3,178,1,60,NaN,NaN,1,NaN,3.129557e-01,NaN,1,0,2,1
3,179,1,38,NaN,NaN,1,NaN,2.694294e-01,NaN,1,0,1,1
3,180,1,90,NaN,NaN,1,NaN,1.481069e-01,NaN,2,0,2,1
3,181,1,12,NaN,NaN,1,NaN,2.477163e-01,NaN,0,0,1,1
3,182,1,143,NaN,NaN,1,NaN,4.226558e-01,NaN,1,0,3,1
3,183,1,8,NaN,NaN,1,NaN,4.077246e-01,NaN,0,0,1,1
3,184,1,122,NaN,NaN,2,NaN,1.049307e-01,NaN,0,0,3,1
3,185,1,96,NaN,NaN,1,NaN,1.261745e-04,NaN,0,1,2,1
3,186,1,133,NaN,NaN,2,NaN,2.799611e-01,NaN,1,0,3,1
3,187,1,44,NaN,NaN,1,NaN,2.854874e-01,NaN,0,0,1,1
3,188,1,81,NaN,NaN,1,NaN,5.558001e-01,NaN,0,0,2,1
3,189,1,9,NaN,NaN,1,NaN,2.951434e-01,NaN,1,0,1,1
3,190,1,31,NaN,NaN,1,NaN,5.085344e-01,NaN,0,0,1,1
3,191,1,70,NaN,NaN,1,NaN,3.862529e-01,NaN,1,1,2,1
3,192,1,105,NaN,NaN,1,NaN,2.682314e-01,NaN,0,1,3,1
3,193,1,75,NaN,NaN,1,NaN,3.068607e-01,NaN,0,0,2,1
3,194,1,49,NaN,NaN,1,NaN,4.160331e-01,NaN,0,0,2,1
3,195,1,132,NaN,NaN,1,NaN,2.167120e-01,NaN,1,1,3,1
3,196,1,104,NaN,NaN,1,NaN,2.656587e-01,NaN,0,0,3,1
3,197,1,100,NaN,NaN,1,NaN,1.258727e-04,NaN,0,0,3,1
3,198,1,58,NaN,NaN,1,NaN,2.818229e-01,NaN,1,0,2,1
3,199,1,50,NaN,NaN,1,NaN,7.933602e-03,NaN,0,0,2,1
3,200,1,52,NaN,NaN,1,NaN,3.928765e-01,NaN,2,0,2,1
3,201,1,95,NaN,NaN,1,NaN,8.512209e-01,NaN,0,0,2,1
3,202,1,13,NaN,NaN,1,NaN,3.381707e-01,NaN,0,0,1,1
3,203,1,109,NaN,NaN,1,NaN,3.187405e-01,NaN,0,1,3,1
3,204,1,3,NaN,NaN,1,NaN,3.631651e-01,NaN,0,0,1,1
3,205,1,79,NaN,NaN,1,NaN,3.419210e-01,NaN,0,0,2,1
3,206,1,75,NaN,NaN,1,NaN,2.499741e-01,NaN,2,0,2,1
3,207,1,24,NaN,NaN,1,NaN,4.171829e-01,NaN,2,0,1,1
3,208,1,80,NaN,NaN,1,NaN,3.541330e-01,NaN,0,0,2,1
3,209,1,80,NaN,NaN,1,NaN,5.972276e-01,NaN,2,0,2,1
3,210,1,113,NaN,NaN,1,NaN,3.825775e-01,NaN,2,0,3,1
3,211,1,2,NaN,NaN,1,NaN,3.126131e-01,NaN,0,0,1,1
3,212,1,90,NaN,NaN,1,NaN,7.735765e-01,NaN,0,0,2,1
3,213,1,33,NaN,NaN,1,NaN,4.403274e-01,NaN,0,0,1,1
3,214,1,101,NaN,NaN,1,NaN,3.040991e-01,NaN,1,1,3,1
3,215,1,5,NaN,NaN,1,NaN,7.892825e-01,NaN,1,0,1,1
3,216,1,1,NaN,NaN,1,NaN,4.086157e-01,NaN,2,0,1,1
3,217,1,136,NaN,NaN,1,NaN,3.607904e-01,NaN,2,0,3,1
3,218,1,17,NaN,NaN,1,NaN,4.034727e-01,NaN,0,0,1,1
3,219,1,104,NaN,NaN,1,NaN,3.569270e-01,NaN,1,0,3,1
3,220,1,58,NaN,NaN,1,NaN,3.681737e-01,NaN,0,0,2,1
3,221,1,141,NaN,NaN,1,NaN,4.512174e-01,NaN,2,0,3,1
3,222,1,125,NaN,NaN,1,NaN,3.146739e-01,NaN,1,0,3,1
3,223,1,1,NaN,NaN,1,NaN,5.114229e-01,NaN,0,0,1,1
3,224,1,67,NaN,NaN,1,NaN,1.171902e+00,NaN,0,0,2,1
3,225,1,12,NaN,NaN,1,NaN,3.027012e-01,NaN,1,0,1,1
3,226,1,23,NaN,NaN,1,NaN,3.157802e-01,NaN,2,0,1,1
3,227,1,143,NaN,NaN,1,NaN,7.767713e-01,NaN,0,0,3,1
3,228,1,50,NaN,NaN,1,NaN,6.354887e-01,NaN,1,0,2,1
3,229,1,25,NaN,NaN,1,NaN,3.716770e-01,NaN,1,0,1,1
3,230,1,136,NaN,NaN,1,NaN,4.458836e-01,NaN,0,0,3,1
3,231,1,14,NaN,NaN,1,NaN,4.295806e-01,NaN,1,0,1,1
3,232,1,32,NaN,NaN,1,NaN,2.377548e-01,NaN,0,0,1,1
3,233,1,45,NaN,NaN,1,NaN,3.656807e-01,NaN,1,1,1,1
3,234,1,18,NaN,NaN,1,NaN,3.122394e-01,NaN,0,1,1,1
3,235,1,44,NaN,NaN,1,NaN,4.207637e-01,NaN,1,0,1,1
3,236,1,126,NaN,NaN,1,NaN,4.535217e-01,NaN,2,0,3,1
3,237,1,41,NaN,NaN,1,NaN,3.411808e-01,NaN,1,0,1,1
3,238,1,99,NaN,NaN,2,NaN,2.489928e-01,NaN,0,1,3,1
3,239,1,111,NaN,NaN,1,NaN,3.688640e-01,NaN,0,0,3,1
3,240,1,63,NaN,NaN,1,NaN,5.152612e-01,NaN,1,0,2,1
3,241,1,48,NaN,NaN,1,NaN,3.037809e-01,NaN,0,1,1,1
3,242,1,102,NaN,NaN,1,NaN,4.291607e-01,NaN,0,0,3,1
3,243,1,98,NaN,NaN,1,NaN,4.054347e-01,NaN,1,1,3,1
3,244,1,74,NaN,NaN,1,NaN,5.508880e-01,NaN,2,0,2,1
3,245,1,122,NaN,NaN,1,NaN,7.459394e-01,NaN,1,0,3,1
3,246,1,93,NaN,NaN,1,NaN,6.373894e-01,NaN,2,0,2,1
3,247,1,56,NaN,NaN,1,NaN,3.416312e-01,NaN,0,1,2,1
3,248,1,28,NaN,NaN,1,NaN,3.773265e-01,NaN,0,0,1,1
3,249,1,72,NaN,NaN,1,NaN,2.759824e-01,NaN,0,1,2,1
3,250,1,114,NaN,NaN,1,NaN,3.221236e-01,NaN,0,0,3,1
3,251,1,94,NaN,NaN,1,NaN,3.266517e-01,NaN,2,0,2,1
3,252,1,69,NaN,NaN,1,NaN,4.358009e-01,NaN,0,0,2,1
3,253,1,19,NaN,NaN,1,NaN,3.157192e-01,NaN,2,1,1,1
3,254,1,106,NaN,NaN,1,NaN,7.045729e-01,NaN,0,0,3,1
3,255,1,13,NaN,NaN,1,NaN,5.659958e-01,NaN,2,0,1,1
3,256,1,28,NaN,NaN,1,NaN,3.042805e-01,NaN,2,0,1,1
3,257,1,11,NaN,NaN,1,NaN,3.019535e-01,NaN,0,0,1,1
3,258,1,135,NaN,NaN,1,NaN,3.152085e-01,NaN,0,1,3,1
3,259,1,144,NaN,NaN,1,NaN,5.360909e-01,NaN,2,0,3,1
3,260,1,81,NaN,NaN,1,NaN,3.079477e-01,NaN,2,0,2,1
3,261,1,29,NaN,NaN,1,NaN,4.251545e-01,NaN,0,0,1,1
3,262,1,59,NaN,NaN,1,NaN,5.699138e-01,NaN,1,0,2,1
3,263,1,115,NaN,NaN,1,NaN,3.806206e-01,NaN,0,0,3,1
3,264,1,83,NaN,NaN,1,NaN,4.949906e-01,NaN,0,1,2,1
3,265,1,25,NaN,NaN,1,NaN,4.524592e-01,NaN,0,0,1,1
3,266,1,84,NaN,NaN,1,NaN,2.755643e-01,NaN,0,0,2,1
3,267,1,10,NaN,NaN,1,NaN,2.903174e-01,NaN,0,1,1,1
3,268,1,127,NaN,NaN,1,NaN,2.644585e-01,NaN,1,0,3,1
3,269,1,21,NaN,NaN,1,NaN,3.432186e-01,NaN,2,0,1,1
3,270,1,120,NaN,NaN,1,NaN,5.150083e-01,NaN,2,1,3,1
3,271,1,137,NaN,NaN,1,NaN,2.796686e-01,NaN,0,0,3,1
3,272,1,98,NaN,NaN,1,NaN,1.099382e-01,NaN,0,1,3,1
3,273,1,5,NaN,NaN,1,NaN,2.923760e-01,NaN,0,0,1,1
3,274,1,135,NaN,NaN,1,NaN,2.969177e-01,NaN,1,1,3,1
3,275,1,128,NaN,NaN,1,NaN,2.143893e-01,NaN,2,0,3,1
3,276,1,18,NaN,NaN,1,NaN,3.114081e-01,NaN,2,1,1,1
3,277,1,3,NaN,NaN,1,NaN,3.161659e-01,NaN,1,0,1,1
3,278,1,66,NaN,NaN,1,NaN,3.766546e-01,NaN,0,0,2,1
3,279,1,123,NaN,NaN,1,NaN,4.273942e-01,NaN,1,1,3,1
3,280,1,53,NaN,NaN,1,NaN,3.797416e-01,NaN,0,0,2,1
3,281,1,41,NaN,NaN,1,NaN,4.061199e-01,NaN,0,0,1,1
3,282,1,99,NaN,NaN,1,NaN,5.275476e-01,NaN,2,1,3,1
3,283,1,26,NaN,NaN,1,NaN,3.321156e-01,NaN,0,1,1,1
3,284,1,55,NaN,NaN,1,NaN,4.852860e-02,NaN,1,0,2,1
3,285,1,79,NaN,NaN,1,NaN,2.555080e-01,NaN,1,0,2,1
3,286,1,134,NaN,NaN,1,NaN,2.709257e-01,NaN,2,0,3,1
3,287,1,40,NaN,NaN,1,NaN,3.095868e-01,NaN,2,1,1,1
3,288,1,70,NaN,NaN,1,NaN,3.713580e-01,NaN,0,1,2,1
3,333,2,9,67,2,0,0,3.500141e+00,NaN,1,0,1,1
3,334,2,60,25,1,1,1,1.131682e+00,NaN,1,0,2,1
3,335,2,100,47,1,1,1,1.412021e+00,NaN,1,0,3,1
3,336,2,121,21,1,1,1,1.272837e+00,NaN,1,1,3,1
3,337,2,54,65,2,2,1,2.139101e+00,NaN,1,0,2,1
3,338,2,127,5,1,1,1,2.059410e+00,NaN,1,0,3,1
3,339,2,98,24,1,1,1,1.534713e+00,NaN,1,1,3,1
3,340,2,55,39,1,1,1,1.398690e+00,NaN,1,0,2,1
3,341,2,101,57,1,1,1,1.589490e+00,NaN,1,1,3,1
3,342,2,51,72,2,2,1,1.570489e+00,NaN,1,0,2,1
3,343,2,62,53,1,1,1,1.289126e+00,NaN,1,1,2,1
3,344,2,116,23,2,2,1,2.083132e+00,NaN,1,0,3,1
3,345,2,61,14,2,2,1,1.197162e+00,NaN,1,0,2,1
3,346,2,17,34,2,2,1,2.746630e+00,NaN,1,0,1,1
3,347,2,15,42,2,1,0,2.338253e+00,NaN,1,1,1,1
3,348,2,104,27,1,1,1,1.930620e+00,NaN,1,0,3,1
3,349,2,79,46,1,1,1,1.114593e+00,NaN,1,0,2,1
3,350,2,34,49,2,2,1,2.419091e+00,NaN,1,0,1,1
3,351,2,71,70,2,2,1,2.040289e+00,NaN,1,0,2,1
3,352,2,123,64,1,1,1,1.507949e+00,NaN,1,1,3,1
3,353,2,82,1,1,1,1,1.325764e+00,NaN,1,0,2,1
3,354,2,88,63,2,2,1,1.790416e+00,NaN,1,0,2,1
3,355,2,25,17,1,1,1,1.756612e+00,NaN,1,0,1,1
3,356,2,142,32,1,2,0,1.835611e+00,NaN,1,0,3,1
3,357,3,71,70,1,1,1,1.081938e+00,NaN,1,0,2,1
3,358,3,9,67,1,1,1,1.564060e+00,NaN,1,0,1,1
3,359,3,79,46,1,1,1,6.830477e-01,NaN,1,0,2,1
3,360,3,82,1,1,1,1,8.449940e-01,NaN,1,0,2,1
3,361,3,25,17,1,1,1,8.482860e-01,NaN,1,0,1,1
3,362,3,61,14,1,1,1,8.040458e-01,NaN,1,0,2,1
3,363,3,101,57,1,1,1,1.201466e+00,NaN,1,1,3,1
3,364,3,55,39,1,1,1,1.998673e+00,NaN,1,0,2,1
3,365,3,62,53,2,2,1,9.883047e-01,NaN,1,1,2,1
3,366,3,100,47,1,1,1,1.161971e+00,NaN,1,0,3,1
3,367,3,60,25,2,2,1,1.208932e+00,NaN,1,0,2,1
3,368,3,51,72,1,1,1,1.606342e+00,NaN,1,0,2,1
3,369,3,121,21,1,1,1,1.059775e+00,NaN,1,1,3,1
3,370,3,15,42,2,2,1,1.263153e+00,NaN,1,1,1,1
3,371,3,88,63,2,2,1,1.162379e+00,NaN,1,0,2,1
3,372,3,123,64,2,2,1,2.648961e+00,NaN,1,1,3,1
3,373,3,54,65,1,1,1,1.372113e+00,NaN,1,0,2,1
3,374,3,127,5,2,2,1,1.554981e+00,NaN,1,0,3,1
3,375,3,17,34,2,2,1,1.402345e+00,NaN,1,0,1,1
3,376,3,34,49,1,1,1,1.048545e+00,NaN,1,0,1,1
3,377,3,104,27,1,1,1,1.579084e+00,NaN,1,0,3,1
3,378,3,116,23,2,2,1,1.857736e+00,NaN,1,0,3,1
3,379,3,142,32,2,2,1,2.085091e+00,NaN,1,0,3,1
3,380,3,98,24,1,1,1,2.622775e+00,NaN,1,1,3,1
3,405,2,44,71,2,2,1,1.114614e+00,NaN,1,0,1,2
3,406,2,4,51,2,2,1,1.299713e+00,NaN,1,0,1,2
3,407,2,87,37,1,1,1,1.404657e+00,NaN,1,1,2,2
3,408,2,50,7,1,1,1,1.026532e+00,NaN,1,0,2,2
3,409,2,105,28,1,1,1,1.798744e+00,NaN,1,1,3,2
3,410,2,49,8,2,2,1,1.156291e+00,NaN,1,0,2,2
3,411,2,59,62,1,1,1,1.307566e+00,NaN,1,0,2,2
3,412,2,118,66,2,2,1,1.741532e+00,NaN,1,1,3,2
3,413,2,103,11,2,1,0,2.365980e+00,NaN,1,0,3,2
3,414,2,69,29,1,1,1,9.564674e-01,NaN,1,0,2,2
3,415,2,122,50,2,2,1,1.251874e+00,NaN,1,0,3,2
3,416,2,76,52,1,1,1,9.192872e-01,NaN,1,1,2,2
3,417,2,119,4,1,1,1,1.623890e+00,NaN,1,0,3,2
3,418,2,33,12,2,2,1,9.803298e-01,NaN,1,0,1,2
3,419,2,65,13,1,1,1,2.146487e+00,NaN,1,0,2,2
3,420,2,8,2,2,2,1,1.433993e+00,NaN,1,0,1,2
3,421,2,58,20,2,2,1,9.024339e-01,NaN,1,0,2,2
3,422,2,5,43,1,1,1,1.599576e+00,NaN,1,0,1,2
3,423,2,14,56,1,1,1,1.589241e+00,NaN,1,0,1,2
3,424,2,10,58,2,2,1,1.179226e+00,NaN,1,1,1,2
3,425,2,72,15,2,2,1,9.292985e-01,NaN,1,1,2,2
3,426,2,125,36,2,2,1,1.569346e+00,NaN,1,0,3,2
3,427,2,131,9,2,2,1,1.744320e+00,NaN,1,0,3,2
3,428,2,12,54,2,2,1,2.288313e+00,NaN,1,0,1,2
3,429,3,58,20,2,2,1,5.991580e-01,NaN,1,0,2,2
3,430,3,49,8,2,2,1,4.443641e-01,NaN,1,0,2,2
3,431,3,87,37,2,2,1,1.400582e+00,NaN,1,1,2,2
3,432,3,105,28,2,2,1,1.518189e+00,NaN,1,1,3,2
3,433,3,4,51,2,2,1,9.110355e-01,NaN,1,0,1,2
3,434,3,12,54,1,1,1,2.487856e+00,NaN,1,0,1,2
3,435,3,14,56,2,2,1,1.482200e+00,NaN,1,0,1,2
3,436,3,59,62,1,2,0,1.020441e+00,NaN,1,0,2,2
3,437,3,5,43,2,2,1,1.521259e+00,NaN,1,0,1,2
3,438,3,44,71,2,2,1,9.457196e-01,NaN,1,0,1,2
3,439,3,33,12,2,2,1,1.057128e+00,NaN,1,0,1,2
3,440,3,8,2,1,1,1,8.445768e-01,NaN,1,0,1,2
3,441,3,122,50,2,2,1,1.209125e+00,NaN,1,0,3,2
3,442,3,118,66,1,1,1,1.446173e+00,NaN,1,1,3,2
3,443,3,76,52,2,2,1,9.855521e-01,NaN,1,1,2,2
3,444,3,65,13,2,2,1,1.463972e+00,NaN,1,0,2,2
3,445,3,125,36,2,2,1,1.186737e+00,NaN,1,0,3,2
3,446,3,119,4,2,2,1,1.496854e+00,NaN,1,0,3,2
3,447,3,72,15,1,1,1,7.301534e-01,NaN,1,1,2,2
3,448,3,69,29,1,1,1,1.145986e+00,NaN,1,0,2,2
3,449,3,10,58,1,1,1,1.217895e+00,NaN,1,1,1,2
3,450,3,103,11,1,1,1,1.622228e+00,NaN,1,0,3,2
3,451,3,131,9,1,1,1,1.419455e+00,NaN,1,0,3,2
3,452,3,50,7,2,2,1,1.311679e+00,NaN,1,0,2,2
3,477,2,41,22,2,2,1,1.624204e+00,NaN,1,0,1,3
3,478,2,38,41,2,2,1,1.340973e+00,NaN,1,0,1,3
3,479,2,16,18,2,2,1,9.332277e-01,NaN,1,0,1,3
3,480,2,3,35,1,1,1,1.565185e+00,NaN,1,0,1,3
3,481,2,92,10,2,2,1,1.163963e+00,NaN,1,0,2,3
3,482,2,84,6,1,1,1,9.228277e-01,NaN,1,0,2,3
3,483,2,132,3,1,1,1,1.355286e+00,NaN,1,1,3,3
3,484,2,63,48,2,2,1,1.658571e+00,NaN,1,0,2,3
3,485,2,31,33,1,1,1,1.566096e+00,NaN,1,0,1,3
3,486,2,42,44,1,1,1,2.340899e+00,NaN,1,0,1,3
3,487,2,108,40,1,1,1,1.485037e+00,NaN,1,0,3,3
3,488,2,117,45,1,1,1,1.991094e+00,NaN,1,0,3,3
3,489,2,45,60,2,2,1,1.757627e+00,NaN,1,1,1,3
3,490,2,143,16,2,1,0,2.068860e+00,NaN,1,0,3,3
3,491,2,22,55,1,1,1,1.679759e+00,NaN,1,0,1,3
3,492,2,26,30,2,2,1,1.562892e+00,NaN,1,1,1,3
3,493,2,139,38,1,1,1,1.328735e+00,NaN,1,0,3,3
3,494,2,20,68,2,2,1,2.144764e+00,NaN,1,1,1,3
3,495,2,135,31,1,1,1,7.126972e-01,NaN,1,1,3,3
3,496,2,57,59,1,1,1,9.371162e-01,NaN,1,0,2,3
3,497,2,35,26,1,1,1,1.817345e+00,NaN,1,0,1,3
3,498,2,70,61,1,1,1,1.461958e+00,NaN,1,1,2,3
3,499,2,133,19,1,1,1,1.801324e+00,NaN,1,0,3,3
3,500,2,124,69,2,2,1,1.678620e+00,NaN,1,0,3,3
3,501,3,22,55,1,1,1,8.706783e-01,NaN,1,0,1,3
3,502,3,38,41,2,2,1,8.574572e-01,NaN,1,0,1,3
3,503,3,84,6,1,1,1,8.130579e-01,NaN,1,0,2,3
3,504,3,20,68,2,2,1,1.017399e+00,NaN,1,1,1,3
3,505,3,108,40,2,2,1,1.870516e+00,NaN,1,0,3,3
3,506,3,42,44,2,2,1,6.894805e-01,NaN,1,0,1,3
3,507,3,92,10,2,2,1,7.874605e-01,NaN,1,0,2,3
3,508,3,143,16,2,2,1,1.568986e+00,NaN,1,0,3,3
3,509,3,3,35,2,2,1,2.337076e+00,NaN,1,0,1,3
3,510,3,26,30,2,2,1,1.008125e+00,NaN,1,1,1,3
3,511,3,135,31,1,1,1,4.857620e-01,NaN,1,1,3,3
3,512,3,70,61,2,2,1,6.880518e-01,NaN,1,1,2,3
3,513,3,63,48,2,2,1,5.299723e-01,NaN,1,0,2,3
3,514,3,139,38,1,1,1,6.260069e-01,NaN,1,0,3,3
3,515,3,117,45,2,2,1,1.398773e+00,NaN,1,0,3,3
3,516,3,41,22,1,1,1,1.595968e+00,NaN,1,0,1,3
3,517,3,124,69,2,2,1,1.169432e+00,NaN,1,0,3,3
3,518,3,132,3,2,2,1,1.352039e+00,NaN,1,1,3,3
3,519,3,57,59,2,2,1,8.635667e-01,NaN,1,0,2,3
3,520,3,35,26,1,1,1,1.946275e+00,NaN,1,0,1,3
3,521,3,16,18,1,1,1,1.849536e+00,NaN,1,0,1,3
3,522,3,31,33,2,1,0,9.170946e-01,NaN,1,0,1,3
3,523,3,45,60,1,1,1,1.502305e+00,NaN,1,1,1,3
3,524,3,133,19,2,2,1,1.023728e+00,NaN,1,0,3,3
3,549,4,56,60,2,2,1,7.474994e-01,NaN,2,1,2,1
3,550,4,144,29,2,2,1,1.370773e+00,NaN,2,0,3,1
3,551,4,75,26,2,2,1,7.857617e-01,NaN,2,0,2,1
3,552,4,29,38,1,1,1,1.591939e+00,NaN,2,0,1,1
3,553,4,83,64,1,1,1,1.518065e+00,NaN,2,1,2,1
3,554,4,47,5,2,2,1,1.246743e+00,NaN,2,0,1,1
3,555,4,73,2,2,1,0,1.546195e+00,NaN,2,0,2,1
3,556,4,126,59,2,2,1,1.545642e+00,NaN,2,0,3,1
3,557,4,39,27,2,2,1,2.121034e+00,NaN,2,0,1,1
3,558,4,18,52,1,1,1,1.049864e+00,NaN,2,1,1,1
3,559,4,120,15,1,1,1,1.845107e+00,NaN,2,1,3,1
3,560,4,112,41,1,1,1,9.690003e-01,NaN,2,0,3,1
3,561,4,86,50,2,2,1,1.399212e+00,NaN,2,0,2,1
3,562,4,1,7,2,2,1,1.173177e+00,NaN,2,0,1,1
3,563,4,91,9,2,2,1,1.443371e+00,NaN,2,0,2,1
3,564,4,66,56,2,2,1,2.352083e+00,NaN,2,0,2,1
3,565,4,2,14,2,2,1,1.280366e+00,NaN,2,0,1,1
3,566,4,90,40,1,2,0,1.257336e+00,NaN,2,0,2,1
3,567,4,93,45,1,1,1,1.476914e+00,NaN,2,0,2,1
3,568,4,6,10,2,2,1,1.271456e+00,NaN,2,0,1,1
3,569,4,113,49,2,2,1,1.602601e+00,NaN,2,0,3,1
3,570,4,138,46,1,1,1,7.998452e-01,NaN,2,0,3,1
3,571,4,107,58,1,1,1,1.293089e+00,NaN,2,1,3,1
3,572,4,68,35,2,2,1,7.029712e-01,NaN,2,0,2,1
3,597,4,23,63,1,1,1,1.075925e+00,NaN,2,0,1,2
3,598,4,141,65,1,1,1,1.127963e+00,NaN,2,0,3,2
3,599,4,7,53,2,2,1,1.751960e+00,NaN,2,1,1,2
3,600,4,96,21,1,1,1,1.087102e+00,NaN,2,1,2,2
3,601,4,106,34,1,1,1,1.241128e+00,NaN,2,0,3,2
3,602,4,74,71,1,1,1,1.437502e+00,NaN,2,0,2,2
3,603,4,48,24,2,1,0,1.993127e+00,NaN,2,1,1,2
3,604,4,21,6,2,2,1,1.471816e+00,NaN,2,0,1,2
3,605,4,140,8,2,2,1,1.706568e+00,NaN,2,0,3,2
3,606,4,94,47,2,2,1,1.259750e+00,NaN,2,0,2,2
3,607,4,37,19,2,2,1,1.911397e+00,NaN,2,0,1,2
3,608,4,80,36,2,2,1,1.576620e+00,NaN,2,0,2,2
3,609,4,11,48,1,1,1,1.871753e+00,NaN,2,0,1,2
3,610,4,115,67,2,1,0,2.081904e+00,NaN,2,0,3,2
3,611,4,137,13,1,1,1,1.268518e+00,NaN,2,0,3,2
3,612,4,97,33,1,1,1,1.238784e+00,NaN,2,0,3,2
3,613,4,77,55,1,1,1,1.363322e+00,NaN,2,0,2,2
3,614,4,89,31,1,1,1,1.729900e+00,NaN,2,1,2,2
3,615,4,28,11,1,1,1,2.001904e+00,NaN,2,0,1,2
3,616,4,64,68,1,1,1,1.183391e+00,NaN,2,1,2,2
3,617,4,129,37,1,1,1,1.525326e+00,NaN,2,1,3,2
3,618,4,128,70,2,2,1,2.286234e+00,NaN,2,0,3,2
3,619,4,136,72,2,2,1,1.744508e+00,NaN,2,0,3,2
3,620,4,95,32,1,1,1,9.444747e-01,NaN,2,0,2,2
3,645,4,36,16,2,1,0,1.380454e+00,NaN,2,0,1,3
3,646,4,85,3,2,2,1,7.862766e-01,NaN,2,1,2,3
3,647,4,130,62,2,2,1,1.416404e+00,NaN,2,0,3,3
3,648,4,19,61,1,1,1,1.797330e+00,NaN,2,1,1,3
3,649,4,78,54,1,1,1,9.227326e-01,NaN,2,0,2,3
3,650,4,110,44,1,1,1,1.427408e+00,NaN,2,0,3,3
3,651,4,13,39,1,1,1,9.362758e-01,NaN,2,0,1,3
3,652,4,81,69,2,2,1,8.879579e-01,NaN,2,0,2,3
3,653,4,99,42,1,1,1,1.362103e+00,NaN,2,1,3,3
3,654,4,40,57,2,2,1,1.272990e+00,NaN,2,1,1,3
3,655,4,27,20,2,2,1,8.756562e-01,NaN,2,0,1,3
3,656,4,134,1,1,1,1,9.664892e-01,NaN,2,0,3,3
3,657,4,114,18,2,2,1,1.389061e+00,NaN,2,0,3,3
3,658,4,102,17,1,1,1,1.075486e+00,NaN,2,0,3,3
3,659,4,46,66,1,1,1,1.262059e+00,NaN,2,1,1,3
3,660,4,24,25,1,1,1,9.372010e-01,NaN,2,0,1,3
3,661,4,32,23,2,2,1,1.152662e+00,NaN,2,0,1,3
3,662,4,52,22,2,2,1,9.042583e-01,NaN,2,0,2,3
3,663,4,67,43,1,1,1,1.033792e+00,NaN,2,0,2,3
3,664,4,53,51,1,1,1,8.457860e-01,NaN,2,0,2,3
3,665,4,43,28,2,2,1,1.545461e+00,NaN,2,1,1,3
3,666,4,111,12,1,1,1,1.040582e+00,NaN,2,0,3,3
3,667,4,109,30,2,2,1,1.501924e+00,NaN,2,1,3,3
3,668,4,30,4,1,1,1,1.046340e+00,NaN,2,0,1,3
3,669,5,2.277000e+01,55,1,1,1,1.953926e+00,1,1,0,1.200000e+00,1
3,670,5,1.179300e+02,45,3,3,1,3.800477e-01,1,1,0,3.200000e+00,1
3,671,5,5.827000e+01,20,2,1,0,8.136305e-01,1,1,0,2.100000e+00,1
3,672,5,8.730000e+00,2,1,1,1,4.548695e-01,1,1,0,1.200000e+00,1
3,673,5,4.474000e+01,71,1,1,1,4.163177e-01,1,1,0,1.200000e+00,1
3,674,5,3.513000e+01,49,1,3,0,4.740335e-01,1,1,0,1.300000e+00,1
3,675,5,1.319100e+02,9,3,3,1,1.051575e+00,1,1,0,3.200000e+00,1
3,676,5,8.421000e+01,6,2,2,1,3.647549e-01,1,1,0,2.100000e+00,1
3,677,5,1.009400e+02,47,3,3,1,6.059484e-01,1,1,0,3.200000e+00,1
3,678,5,3.575000e+01,26,1,1,1,3.678522e-01,1,1,0,1.200000e+00,1
3,679,5,9.206000e+01,10,2,1,0,1.009016e+00,1,1,0,2.100000e+00,1
3,680,5,3.513000e+01,49,1,1,1,3.627485e-01,2,1,0,1.300000e+00,1
3,681,5,1.089000e+02,40,3,3,1,8.764827e-01,1,1,0,3.200000e+00,1
3,682,5,2.277000e+01,55,1,1,1,9.346775e-01,2,1,0,1.200000e+00,1
3,683,5,1.258000e+02,36,3,2,0,8.569558e-01,1,1,0,3.200000e+00,1
3,684,5,8.730000e+00,2,1,1,1,3.377140e-01,2,1,0,1.200000e+00,1
3,685,5,7.228000e+01,70,2,3,0,5.391143e-01,1,1,0,2.300000e+00,1
3,686,5,1.248100e+02,69,3,3,1,1.476605e+00,1,1,0,3.200000e+00,1
3,687,5,4.474000e+01,71,1,1,1,4.301915e-01,2,1,0,1.200000e+00,1
3,688,5,1.429500e+02,32,3,3,1,1.015616e+00,1,1,0,3.200000e+00,1
3,689,5,1.392900e+02,38,3,2,0,1.704961e+00,1,1,0,3.100000e+00,1
3,690,5,1.429500e+02,32,3,3,1,3.950881e-01,2,1,0,3.200000e+00,1
3,691,5,1.163200e+02,23,3,1,0,4.126149e-01,1,1,0,3.100000e+00,1
3,692,5,1.228600e+02,50,3,3,1,3.659219e-01,1,1,0,3.200000e+00,1
3,693,5,1.032800e+02,11,3,1,0,4.717968e-01,1,1,0,3.100000e+00,1
3,694,5,1.089000e+02,40,3,3,1,4.091940e-01,2,1,0,3.200000e+00,1
3,695,5,1.278000e+01,54,1,1,1,3.948131e-01,1,1,0,1.200000e+00,1
3,696,5,1.089000e+02,40,3,3,1,5.484174e-01,3,1,0,3.200000e+00,1
3,697,5,8.334000e+01,1,2,2,1,4.699259e-01,1,1,0,2.300000e+00,1
3,698,5,1.714000e+01,18,1,1,1,4.550056e-01,1,1,0,1.300000e+00,1
3,699,5,3.912000e+01,41,1,1,1,4.086546e-01,1,1,0,1.300000e+00,1
3,700,5,4.474000e+01,71,1,1,1,3.389534e-01,3,1,0,1.200000e+00,1
3,701,5,1.032800e+02,11,3,2,0,1.165176e+00,2,1,0,3.100000e+00,1
3,702,5,1.043900e+02,27,3,3,1,5.976125e-01,1,1,0,3.100000e+00,1
3,703,5,1.193000e+02,4,3,3,1,3.750454e-01,1,1,0,3.100000e+00,1
3,704,5,1.806000e+01,34,1,1,1,3.285323e-01,1,1,0,1.300000e+00,1
3,705,5,8.730000e+00,2,1,1,1,3.298342e-01,3,1,0,1.200000e+00,1
3,706,5,1.043900e+02,27,3,1,0,7.715332e-01,2,1,0,3.100000e+00,1
3,707,5,2.277000e+01,55,1,1,1,4.765806e-01,3,1,0,1.200000e+00,1
3,708,5,4.474000e+01,71,1,1,1,3.667508e-01,4,1,0,1.200000e+00,1
3,709,5,8.421000e+01,6,2,2,1,3.525338e-01,2,1,0,2.100000e+00,1
3,710,5,4.152000e+01,22,1,1,1,7.458063e-01,1,1,0,1.200000e+00,1
3,711,5,4.310000e+01,44,1,1,1,4.989406e-01,1,1,0,1.300000e+00,1
3,712,5,1.043900e+02,27,3,3,1,5.963513e-01,3,1,0,3.100000e+00,1
3,713,5,3.411000e+01,12,1,1,1,3.019873e-01,1,1,0,1.300000e+00,1
3,714,5,1.228600e+02,50,3,3,1,4.711189e-01,2,1,0,3.200000e+00,1
3,715,5,8.334000e+01,1,2,2,1,3.125944e-01,2,1,0,2.300000e+00,1
3,716,5,1.163200e+02,23,3,3,1,3.302972e-01,2,1,0,3.100000e+00,1
3,717,5,1.319100e+02,9,3,3,1,3.798681e-01,2,1,0,3.200000e+00,1
3,718,5,7.044000e+01,29,2,2,1,3.571896e-01,1,1,0,2.300000e+00,1
3,719,5,5.040000e+01,8,2,2,1,1.230636e+00,1,1,0,2.300000e+00,1
3,720,5,1.278000e+01,54,1,1,1,4.555683e-01,2,1,0,1.200000e+00,1
3,721,5,8.421000e+01,6,2,2,1,3.535037e-01,3,1,0,2.100000e+00,1
3,722,5,1.466000e+01,56,1,1,1,3.709384e-01,1,1,0,1.200000e+00,1
3,723,5,6.024000e+01,25,2,2,1,3.480552e-01,1,1,0,2.100000e+00,1
3,724,5,1.274700e+02,5,3,1,0,7.813664e-01,1,1,0,3.100000e+00,1
3,725,5,1.274700e+02,5,3,3,1,2.787790e-01,2,1,0,3.100000e+00,1
3,726,5,1.392900e+02,38,3,3,1,7.606297e-01,2,1,0,3.100000e+00,1
3,727,5,3.575000e+01,26,1,1,1,5.867427e-01,2,1,0,1.200000e+00,1
3,728,5,1.714000e+01,18,1,1,1,3.879451e-01,2,1,0,1.300000e+00,1
3,729,5,6.024000e+01,25,2,2,1,3.170238e-01,2,1,0,2.100000e+00,1
3,730,5,3.411000e+01,12,1,1,1,3.668045e-01,2,1,0,1.300000e+00,1
3,731,5,1.806000e+01,34,1,1,1,3.843093e-01,2,1,0,1.300000e+00,1
3,732,5,3.411000e+01,12,1,1,1,3.213249e-01,3,1,0,1.300000e+00,1
3,733,5,7.228000e+01,70,2,2,1,8.667491e-01,2,1,0,2.300000e+00,1
3,734,5,3.912000e+01,41,1,1,1,4.361592e-01,2,1,0,1.300000e+00,1
3,735,5,3.197000e+01,33,1,1,1,4.939667e-01,1,1,0,1.300000e+00,1
3,736,5,1.248100e+02,69,3,3,1,3.922226e-01,2,1,0,3.200000e+00,1
3,737,5,5.826000e+01,59,2,2,1,4.181778e-01,1,1,0,2.300000e+00,1
3,738,5,2.602000e+01,17,1,1,1,3.877033e-01,1,1,0,1.300000e+00,1
3,739,5,1.163200e+02,23,3,3,1,3.566293e-01,3,1,0,3.100000e+00,1
3,740,5,5.001000e+01,7,2,2,1,3.585253e-01,1,1,0,2.100000e+00,1
3,741,5,1.009400e+02,47,3,3,1,3.603044e-01,2,1,0,3.200000e+00,1
3,742,5,5.827000e+01,20,2,2,1,3.227035e-01,2,1,0,2.100000e+00,1
3,743,5,6.030000e+01,62,2,3,0,4.357954e-01,1,1,0,2.300000e+00,1
3,744,5,6.102000e+01,14,2,2,1,3.651280e-01,1,1,0,2.100000e+00,1
3,745,5,1.319100e+02,9,3,3,1,3.907783e-01,3,1,0,3.200000e+00,1
3,746,5,5.001000e+01,7,2,2,1,3.841773e-01,2,1,0,2.100000e+00,1
3,747,5,1.032800e+02,11,3,3,1,4.413504e-01,3,1,0,3.100000e+00,1
3,748,5,6.637000e+01,13,2,2,1,6.187063e-01,1,1,0,2.300000e+00,1
3,749,5,2.602000e+01,17,1,1,1,5.485109e-01,2,1,0,1.300000e+00,1
3,750,5,5.670000e+00,43,1,2,0,3.975093e-01,1,1,0,1.200000e+00,1
3,751,5,8.823000e+01,63,2,2,1,2.949692e-01,1,1,0,2.100000e+00,1
3,752,5,8.334000e+01,1,2,2,1,4.647504e-01,3,1,0,2.300000e+00,1
3,753,5,1.392900e+02,38,3,3,1,2.034146e+00,3,1,0,3.100000e+00,1
3,754,5,4.310000e+01,44,1,2,0,9.879546e-01,2,1,0,1.300000e+00,1
3,755,5,5.827000e+01,20,2,1,0,4.533014e-01,3,1,0,2.100000e+00,1
3,756,5,1.228600e+02,50,3,3,1,3.430973e-01,3,1,0,3.200000e+00,1
3,757,5,6.102000e+01,14,2,2,1,3.372196e-01,2,1,0,2.100000e+00,1
3,758,5,3.680000e+00,35,1,1,1,1.154529e+00,1,1,0,1.200000e+00,1
3,759,5,1.433600e+02,16,3,3,1,3.730474e-01,1,1,0,3.100000e+00,1
3,760,5,1.333700e+02,19,3,3,1,4.772893e-01,1,1,0,3.100000e+00,1
3,761,5,5.541000e+01,65,2,2,1,4.386443e-01,1,1,0,2.300000e+00,1
3,762,5,3.680000e+00,35,1,1,1,3.923548e-01,2,1,0,1.200000e+00,1
3,763,5,3.197000e+01,33,1,1,1,5.062736e-01,2,1,0,1.300000e+00,1
3,764,5,7.044000e+01,29,2,2,1,4.686503e-01,2,1,0,2.300000e+00,1
3,765,5,4.530000e+00,51,1,1,1,4.768957e-01,1,1,0,1.200000e+00,1
3,766,5,5.826000e+01,59,2,2,1,3.115117e-01,2,1,0,2.300000e+00,1
3,767,5,1.179300e+02,45,3,0,0,2.500596e+00,2,1,0,3.200000e+00,1
3,768,5,1.714000e+01,18,1,1,1,3.466890e-01,3,1,0,1.300000e+00,1
3,769,5,9.206000e+01,10,2,2,1,8.763302e-01,2,1,0,2.100000e+00,1
3,770,5,6.030000e+01,62,2,2,1,3.422026e-01,2,1,0,2.300000e+00,1
3,771,5,3.912000e+01,41,1,1,1,3.685193e-01,3,1,0,1.300000e+00,1
3,772,5,6.030000e+01,62,2,2,1,3.055667e-01,3,1,0,2.300000e+00,1
3,773,5,5.236000e+01,72,2,2,1,2.673412e-01,1,1,0,2.300000e+00,1
3,774,5,5.001000e+01,7,2,2,1,5.004321e-01,3,1,0,2.100000e+00,1
3,775,5,8.421000e+01,6,2,1,0,3.580139e-01,4,1,0,2.100000e+00,1
3,776,5,1.714000e+01,18,1,1,1,5.677704e-01,4,1,0,1.300000e+00,1
3,777,5,4.310000e+01,44,1,2,0,1.345894e+00,3,1,0,1.300000e+00,1
3,778,5,3.411000e+01,12,1,1,1,3.780781e-01,4,1,0,1.300000e+00,1
3,779,5,6.311000e+01,48,2,2,1,4.117700e-01,1,1,0,2.100000e+00,1
3,780,5,1.089000e+02,40,3,3,1,7.253425e-01,4,1,0,3.200000e+00,1
3,781,5,1.009400e+02,47,3,3,1,4.630174e-01,3,1,0,3.200000e+00,1
3,782,5,3.513000e+01,49,1,3,0,5.923454e-01,3,1,0,1.300000e+00,1
3,783,5,5.513000e+01,39,2,2,1,6.427826e-01,1,1,0,2.100000e+00,1
3,784,5,1.278000e+01,54,1,1,1,4.209346e-01,3,1,0,1.200000e+00,1
3,785,5,7.228000e+01,70,2,2,1,3.900623e-01,3,1,0,2.300000e+00,1
3,786,5,6.637000e+01,13,2,3,0,7.959139e-02,2,1,0,2.300000e+00,1
3,787,5,5.513000e+01,39,2,2,1,9.211397e-01,2,1,0,2.100000e+00,1
3,788,5,3.680000e+00,35,1,1,1,3.302015e-01,3,1,0,1.200000e+00,1
3,789,5,1.009400e+02,47,3,3,1,4.597982e-01,4,1,0,3.200000e+00,1
3,790,5,5.826000e+01,59,2,2,1,3.096794e-01,3,1,0,2.300000e+00,1
3,791,5,1.248100e+02,69,3,3,1,9.122577e-01,3,1,0,3.200000e+00,1
3,792,5,5.541000e+01,65,2,2,1,1.281462e+00,2,1,0,2.300000e+00,1
3,793,5,1.333700e+02,19,3,3,1,4.268687e-01,2,1,0,3.100000e+00,1
3,794,5,1.258000e+02,36,3,3,1,3.969931e-01,2,1,0,3.200000e+00,1
3,795,5,7.044000e+01,29,2,2,1,1.414260e+00,3,1,0,2.300000e+00,1
3,796,5,5.040000e+01,8,2,2,1,3.201936e-01,2,1,0,2.300000e+00,1
3,797,5,1.015000e+01,67,1,1,1,4.971555e-01,1,1,0,1.300000e+00,1
3,798,5,8.823000e+01,63,2,1,0,8.349755e-01,2,1,0,2.100000e+00,1
3,799,5,1.043900e+02,27,3,3,1,4.118087e-01,4,1,0,3.100000e+00,1
3,800,5,4.530000e+00,51,1,1,1,3.496906e-01,2,1,0,1.200000e+00,1
3,801,5,6.311000e+01,48,2,2,1,2.705608e-01,2,1,0,2.100000e+00,1
3,802,5,1.258000e+02,36,3,3,1,4.243516e-01,3,1,0,3.200000e+00,1
3,803,5,6.024000e+01,25,2,2,1,3.540319e-01,3,1,0,2.100000e+00,1
3,804,5,1.319100e+02,9,3,3,1,1.147067e+00,4,1,0,3.200000e+00,1
3,805,5,2.602000e+01,17,1,3,0,1.476213e+00,3,1,0,1.300000e+00,1
3,806,5,1.278000e+01,54,1,2,0,1.119441e+00,4,1,0,1.200000e+00,1
3,807,5,4.152000e+01,22,1,1,1,3.758848e-01,2,1,0,1.200000e+00,1
3,808,5,8.038000e+01,46,2,2,1,3.059443e-01,1,1,0,2.300000e+00,1
3,809,5,7.228000e+01,70,2,2,1,4.432415e-01,4,1,0,2.300000e+00,1
3,810,5,4.152000e+01,22,1,2,0,1.541675e+00,3,1,0,1.200000e+00,1
3,811,5,5.670000e+00,43,1,1,1,3.999914e-01,2,1,0,1.200000e+00,1
3,812,5,5.670000e+00,43,1,1,1,3.211809e-01,3,1,0,1.200000e+00,1
3,813,5,1.433600e+02,16,3,3,1,4.583366e-01,2,1,0,3.100000e+00,1
3,814,5,1.193000e+02,4,3,3,1,4.277682e-01,2,1,0,3.100000e+00,1
3,815,5,1.433600e+02,16,3,3,1,7.017210e-01,3,1,0,3.100000e+00,1
3,816,5,1.333700e+02,19,3,3,1,1.031027e+00,3,1,0,3.100000e+00,1
3,817,5,6.102000e+01,14,2,2,1,4.044347e-02,3,1,0,2.100000e+00,1
3,818,5,6.311000e+01,48,2,2,1,3.854723e-01,3,1,0,2.100000e+00,1
3,819,5,8.038000e+01,46,2,2,1,2.831112e-01,2,1,0,2.300000e+00,1
3,820,5,5.541000e+01,65,2,2,1,1.888030e-01,3,1,0,2.300000e+00,1
3,821,5,1.466000e+01,56,1,1,1,1.046029e+00,2,1,0,1.200000e+00,1
3,822,5,6.030000e+01,62,2,3,0,6.394650e-01,4,1,0,2.300000e+00,1
3,823,5,1.274700e+02,5,3,3,1,3.606026e-01,3,1,0,3.100000e+00,1
3,824,5,1.193000e+02,4,3,3,1,4.508192e-01,3,1,0,3.100000e+00,1
3,825,5,5.001000e+01,7,2,2,1,3.083501e-01,4,1,0,2.100000e+00,1
3,826,5,5.541000e+01,65,2,2,1,1.626988e-04,4,1,0,2.300000e+00,1
3,827,5,1.806000e+01,34,1,1,1,1.959240e+00,3,1,0,1.300000e+00,1
3,828,5,8.334000e+01,1,2,2,1,4.092665e-01,4,1,0,2.300000e+00,1
3,829,5,8.823000e+01,63,2,2,1,1.485117e-04,3,1,0,2.100000e+00,1
3,830,5,1.392900e+02,38,3,3,1,4.686600e-01,4,1,0,3.100000e+00,1
3,831,5,3.197000e+01,33,1,1,1,1.901469e-01,3,1,0,1.300000e+00,1
3,832,5,5.236000e+01,72,2,2,1,3.274752e-01,2,1,0,2.300000e+00,1
3,833,5,1.228600e+02,50,3,3,1,3.691439e-01,4,1,0,3.200000e+00,1
3,834,5,1.179300e+02,45,3,3,1,3.623253e-01,3,1,0,3.200000e+00,1
3,835,5,4.152000e+01,22,1,1,1,3.481156e-01,4,1,0,1.200000e+00,1
3,836,5,1.429500e+02,32,3,3,1,2.855599e-01,3,1,0,3.200000e+00,1
3,837,5,1.466000e+01,56,1,1,1,3.586466e-01,3,1,0,1.200000e+00,1
3,838,5,6.637000e+01,13,2,2,1,2.964368e-01,3,1,0,2.300000e+00,1
3,839,5,3.575000e+01,26,1,1,1,1.778074e+00,3,1,0,1.200000e+00,1
3,840,5,1.274700e+02,5,3,3,1,5.804690e-01,4,1,0,3.100000e+00,1
3,841,5,5.236000e+01,72,2,2,1,3.334585e-01,3,1,0,2.300000e+00,1
3,842,5,8.730000e+00,2,1,1,1,2.391811e-01,4,1,0,1.200000e+00,1
3,843,5,5.513000e+01,39,2,2,1,3.281984e-01,3,1,0,2.100000e+00,1
3,844,5,6.637000e+01,13,2,2,1,3.938916e-01,4,1,0,2.300000e+00,1
3,845,5,4.530000e+00,51,1,1,1,1.315877e+00,3,1,0,1.200000e+00,1
3,846,5,6.311000e+01,48,2,2,1,3.177314e-01,4,1,0,2.100000e+00,1
3,847,5,8.038000e+01,46,2,3,0,8.387586e-01,3,1,0,2.300000e+00,1
3,848,5,3.680000e+00,35,1,1,1,1.064204e+00,4,1,0,1.200000e+00,1
3,849,5,1.433600e+02,16,3,3,1,7.137827e-01,4,1,0,3.100000e+00,1
3,850,5,6.024000e+01,25,2,2,1,3.152024e-01,4,1,0,2.100000e+00,1
3,851,5,9.206000e+01,10,2,3,0,4.202913e-01,3,1,0,2.100000e+00,1
3,852,5,8.038000e+01,46,2,2,1,2.861711e-01,4,1,0,2.300000e+00,1
3,853,5,1.015000e+01,67,1,1,1,3.913270e-01,2,1,0,1.300000e+00,1
3,854,5,3.575000e+01,26,1,1,1,3.605709e-01,4,1,0,1.200000e+00,1
3,855,5,1.015000e+01,67,1,1,1,3.622148e-01,3,1,0,1.300000e+00,1
3,856,5,9.206000e+01,10,2,2,1,2.757412e-01,4,1,0,2.100000e+00,1
3,857,5,1.248100e+02,69,3,3,1,3.494422e-01,4,1,0,3.200000e+00,1
3,858,5,7.044000e+01,29,2,2,1,3.268419e-01,4,1,0,2.300000e+00,1
3,859,5,8.823000e+01,63,2,2,1,2.305031e+00,4,1,0,2.100000e+00,1
3,860,5,1.163200e+02,23,3,3,1,6.511926e-01,4,1,0,3.100000e+00,1
3,861,5,5.040000e+01,8,2,2,1,4.130481e-01,3,1,0,2.300000e+00,1
3,862,5,6.102000e+01,14,2,2,1,2.219963e-01,4,1,0,2.100000e+00,1
3,863,5,2.277000e+01,55,1,1,1,3.515519e-01,4,1,0,1.200000e+00,1
3,864,5,5.670000e+00,43,1,1,1,4.331506e-01,4,1,0,1.200000e+00,1
3,865,5,5.040000e+01,8,2,0,0,2.500521e+00,4,1,0,2.300000e+00,1
3,866,5,3.912000e+01,41,1,1,1,3.325837e-01,4,1,0,1.300000e+00,1
3,867,5,5.236000e+01,72,2,2,1,3.339825e-01,4,1,0,2.300000e+00,1
3,868,5,5.826000e+01,59,2,2,1,3.033626e-01,4,1,0,2.300000e+00,1
3,869,5,1.466000e+01,56,1,1,1,3.366741e-01,4,1,0,1.200000e+00,1
3,870,5,3.513000e+01,49,1,1,1,3.301680e-01,4,1,0,1.300000e+00,1
3,871,5,1.015000e+01,67,1,1,1,3.160473e-01,4,1,0,1.300000e+00,1
3,872,5,1.032800e+02,11,3,3,1,3.572798e-01,4,1,0,3.100000e+00,1
3,873,5,3.197000e+01,33,1,1,1,3.665129e-01,4,1,0,1.300000e+00,1
3,874,5,4.530000e+00,51,1,1,1,3.359361e-01,4,1,0,1.200000e+00,1
3,875,5,1.193000e+02,4,3,3,1,3.691113e-01,4,1,0,3.100000e+00,1
3,876,5,1.179300e+02,45,3,3,1,3.467271e-01,4,1,0,3.200000e+00,1
3,877,5,2.602000e+01,17,1,1,1,2.997968e-01,4,1,0,1.300000e+00,1
3,878,5,5.827000e+01,20,2,2,1,3.975848e-01,4,1,0,2.100000e+00,1
3,879,5,1.258000e+02,36,3,3,1,4.629278e-01,4,1,0,3.200000e+00,1
3,880,5,5.513000e+01,39,2,2,1,4.082224e-01,4,1,0,2.100000e+00,1
3,881,5,4.310000e+01,44,1,1,1,1.451913e-04,4,1,0,1.300000e+00,1
3,882,5,1.806000e+01,34,1,1,1,4.031651e-01,4,1,0,1.300000e+00,1
3,883,5,1.429500e+02,32,3,3,1,4.364676e-01,4,1,0,3.200000e+00,1
3,884,5,1.333700e+02,19,3,3,1,4.458918e-01,4,1,0,3.100000e+00,1
3,885,6,73,2,2,2,1,1.733757e+00,NaN,2,0,2,1
3,886,6,129,37,2,2,1,1.423040e+00,NaN,2,1,3,1
3,887,6,113,49,1,1,1,1.204699e+00,NaN,2,0,3,1
3,888,6,78,54,2,2,1,1.370416e+00,NaN,2,0,2,1
3,889,6,85,3,2,2,1,8.897008e-01,NaN,2,1,2,1
3,890,6,109,30,2,2,1,8.447652e-01,NaN,2,1,3,1
3,891,6,77,55,1,1,1,9.213308e-01,NaN,2,0,2,1
3,892,6,120,15,1,1,1,1.426564e+00,NaN,2,1,3,1
3,893,6,138,46,1,1,1,1.392018e+00,NaN,2,0,3,1
3,894,6,89,31,1,1,1,1.030790e+00,NaN,2,1,2,1
3,895,6,140,8,1,2,0,1.659455e+00,NaN,2,0,3,1
3,896,6,67,43,1,1,1,1.039447e+00,NaN,2,0,2,1
3,897,6,91,9,2,2,1,7.884343e-01,NaN,2,0,2,1
3,898,6,13,39,2,2,1,9.789784e-01,NaN,2,0,1,1
3,899,6,81,69,2,2,1,1.009824e+00,NaN,2,0,2,1
3,900,6,114,18,1,1,1,1.319347e+00,NaN,2,0,3,1
3,901,6,102,17,1,1,1,9.610595e-01,NaN,2,0,3,1
3,902,6,68,35,2,2,1,8.007927e-01,NaN,2,0,2,1
3,903,6,1,7,2,2,1,1.007186e+00,NaN,2,0,1,1
3,904,6,83,64,1,1,1,8.369245e-01,NaN,2,1,2,1
3,905,6,93,45,1,1,1,1.033858e+00,NaN,2,0,2,1
3,906,6,130,62,2,2,1,1.350461e+00,NaN,2,0,3,1
3,907,6,23,63,2,2,1,1.382421e+00,NaN,2,0,1,1
3,908,6,56,60,2,2,1,7.090481e-01,NaN,2,1,2,1
3,909,6,95,32,2,1,0,1.055110e+00,NaN,2,0,2,1
3,910,6,6,10,1,1,1,1.875452e+00,NaN,2,0,1,1
3,911,6,90,40,2,2,1,1.318438e+00,NaN,2,0,2,1
3,912,6,24,25,2,2,1,1.503691e+00,NaN,2,0,1,1
3,913,6,30,4,2,1,0,1.433930e+00,NaN,2,0,1,1
3,914,6,18,52,1,1,1,1.006745e+00,NaN,2,1,1,1
3,915,6,46,66,2,2,1,1.156830e+00,NaN,2,1,1,1
3,916,6,136,72,1,1,1,1.708495e+00,NaN,2,0,3,1
3,917,6,37,19,1,1,1,1.182717e+00,NaN,2,0,1,1
3,918,6,111,12,1,2,0,1.261344e+00,NaN,2,0,3,1
3,919,6,48,24,1,1,1,1.033605e+00,NaN,2,1,1,1
3,920,6,107,58,1,1,1,1.230358e+00,NaN,2,1,3,1
3,921,6,97,33,1,1,1,9.149593e-01,NaN,2,0,3,1
3,922,6,96,21,1,1,1,7.561641e-01,NaN,2,1,2,1
3,923,6,99,42,2,2,1,1.100364e+00,NaN,2,1,3,1
3,924,6,74,71,1,1,1,7.101909e-01,NaN,2,0,2,1
3,925,6,86,50,1,1,1,1.536614e+00,NaN,2,0,2,1
3,926,6,2,14,2,2,1,1.625216e+00,NaN,2,0,1,1
3,927,6,106,34,2,2,1,1.662372e+00,NaN,2,0,3,1
3,928,6,115,67,1,1,1,2.025477e+00,NaN,2,0,3,1
3,929,6,7,53,2,2,1,1.207364e+00,NaN,2,1,1,1
3,930,6,64,68,1,1,1,9.011259e-01,NaN,2,1,2,1
3,931,6,144,29,1,1,1,1.326892e+00,NaN,2,0,3,1
3,932,6,32,23,1,1,1,1.816574e+00,NaN,2,0,1,1
3,933,6,66,56,2,2,1,8.699542e-01,NaN,2,0,2,1
3,934,6,141,65,2,1,0,1.592926e+00,NaN,2,0,3,1
3,935,6,53,51,2,2,1,1.095815e+00,NaN,2,0,2,1
3,936,6,110,44,2,1,0,7.378256e-01,NaN,2,0,3,1
3,937,6,11,48,2,2,1,1.370335e+00,NaN,2,0,1,1
3,938,6,27,20,1,1,1,1.242232e+00,NaN,2,0,1,1
3,939,6,126,59,2,2,1,2.198860e+00,NaN,2,0,3,1
3,940,6,75,26,1,1,1,9.250016e-01,NaN,2,0,2,1
3,941,6,137,13,1,1,1,1.382112e+00,NaN,2,0,3,1
3,942,6,36,16,1,1,1,1.157085e+00,NaN,2,0,1,1
3,943,6,52,22,1,1,1,1.236716e+00,NaN,2,0,2,1
3,944,6,29,38,1,1,1,1.929568e+00,NaN,2,0,1,1
3,945,6,43,28,1,1,1,1.242587e+00,NaN,2,1,1,1
3,946,6,94,47,1,1,1,9.269341e-01,NaN,2,0,2,1
3,947,6,21,6,2,1,0,1.328474e+00,NaN,2,0,1,1
3,948,6,47,5,2,2,1,1.089060e+00,NaN,2,0,1,1
3,949,6,39,27,1,1,1,1.291509e+00,NaN,2,0,1,1
3,950,6,28,11,1,1,1,1.294714e+00,NaN,2,0,1,1
3,951,6,128,70,2,2,1,9.450208e-01,NaN,2,0,3,1
3,952,6,19,61,1,1,1,1.552816e+00,NaN,2,1,1,1
3,953,6,112,41,2,2,1,9.937366e-01,NaN,2,0,3,1
3,954,6,80,36,1,1,1,8.316035e-01,NaN,2,0,2,1
3,955,6,40,57,1,1,1,1.276756e+00,NaN,2,1,1,1
3,956,6,134,1,2,1,0,1.504108e+00,NaN,2,0,3,1
3,957,6,60,25,2,2,1,8.179419e-01,NaN,1,0,2,1
3,958,6,15,42,2,2,1,1.711369e+00,NaN,1,1,1,1
3,959,6,79,46,2,2,1,9.454352e-01,NaN,1,0,2,1
3,960,6,16,18,2,2,1,1.529379e+00,NaN,1,0,1,1
3,961,6,133,19,1,1,1,1.970607e+00,NaN,1,0,3,1
3,962,6,70,61,2,2,1,8.413340e-01,NaN,1,1,2,1
3,963,6,42,44,2,2,1,1.150294e+00,NaN,1,0,1,1
3,964,6,50,7,1,1,1,7.341276e-01,NaN,1,0,2,1
3,965,6,9,67,1,1,1,1.736003e+00,NaN,1,0,1,1
3,966,6,38,41,1,1,1,1.255495e+00,NaN,1,0,1,1
3,967,6,131,9,2,2,1,9.154667e-01,NaN,1,0,3,1
3,968,6,55,39,1,1,1,1.084768e+00,NaN,1,0,2,1
3,969,6,63,48,1,1,1,9.436619e-01,NaN,1,0,2,1
3,970,6,98,24,1,1,1,1.783589e+00,NaN,1,1,3,1
3,971,6,84,6,2,2,1,1.238461e+00,NaN,1,0,2,1
3,972,6,139,38,2,2,1,1.259042e+00,NaN,1,0,3,1
3,973,6,108,40,1,1,1,1.031198e+00,NaN,1,0,3,1
3,974,6,5,43,1,1,1,1.331796e+00,NaN,1,0,1,1
3,975,6,44,71,1,1,1,1.284489e+00,NaN,1,0,1,1
3,976,6,69,29,1,1,1,8.949703e-01,NaN,1,0,2,1
3,977,6,121,21,2,2,1,1.217037e+00,NaN,1,1,3,1
3,978,6,8,2,2,2,1,1.094865e+00,NaN,1,0,1,1
3,979,6,76,52,1,1,1,8.414409e-01,NaN,1,1,2,1
3,980,6,31,33,1,2,0,1.677976e+00,NaN,1,0,1,1
3,981,6,12,54,1,1,1,1.769206e+00,NaN,1,0,1,1
3,982,6,20,68,1,1,1,1.440781e+00,NaN,1,1,1,1
3,983,6,82,1,2,2,1,1.381488e+00,NaN,1,0,2,1
3,984,6,101,57,2,2,1,2.044409e+00,NaN,1,1,3,1
3,985,6,122,50,2,2,1,1.136476e+00,NaN,1,0,3,1
3,986,6,124,69,2,2,1,1.001870e+00,NaN,1,0,3,1
3,987,6,143,16,2,2,1,1.567308e+00,NaN,1,0,3,1
3,988,6,58,20,1,1,1,9.267505e-01,NaN,1,0,2,1
3,989,6,4,51,2,2,1,1.223993e+00,NaN,1,0,1,1
3,990,6,10,58,1,1,1,8.618579e-01,NaN,1,1,1,1
3,991,6,103,11,1,1,1,1.224681e+00,NaN,1,0,3,1
3,992,6,117,45,2,2,1,2.077981e+00,NaN,1,0,3,1
3,993,6,57,59,2,2,1,1.153275e+00,NaN,1,0,2,1
3,994,6,22,55,1,1,1,1.225010e+00,NaN,1,0,1,1
3,995,6,26,30,2,2,1,1.054547e+00,NaN,1,1,1,1
3,996,6,118,66,2,2,1,1.076055e+00,NaN,1,1,3,1
3,997,6,125,36,2,2,1,1.646225e+00,NaN,1,0,3,1
3,998,6,71,70,1,1,1,9.860082e-01,NaN,1,0,2,1
3,999,6,65,13,2,2,1,9.286884e-01,NaN,1,0,2,1
3,1000,6,87,37,2,2,1,1.033882e+00,NaN,1,1,2,1
3,1001,6,127,5,1,1,1,1.374788e+00,NaN,1,0,3,1
3,1002,6,62,53,1,1,1,7.341391e-01,NaN,1,1,2,1
3,1003,6,14,56,1,1,1,9.026189e-01,NaN,1,0,1,1
3,1004,6,41,22,2,1,0,1.808836e+00,NaN,1,0,1,1
3,1005,6,119,4,2,2,1,9.426476e-01,NaN,1,0,3,1
3,1006,6,116,23,1,1,1,1.175173e+00,NaN,1,0,3,1
3,1007,6,105,28,2,2,1,1.238862e+00,NaN,1,1,3,1
3,1008,6,132,3,2,2,1,1.187286e+00,NaN,1,1,3,1
3,1009,6,92,10,2,2,1,1.058305e+00,NaN,1,0,2,1
3,1010,6,59,62,1,2,0,1.526233e+00,NaN,1,0,2,1
3,1011,6,51,72,1,1,1,9.117376e-01,NaN,1,0,2,1
3,1012,6,35,26,1,2,0,1.969478e+00,NaN,1,0,1,1
3,1013,6,104,27,2,2,1,1.296942e+00,NaN,1,0,3,1
3,1014,6,61,14,2,2,1,8.030823e-01,NaN,1,0,2,1
3,1015,6,135,31,2,2,1,1.105246e+00,NaN,1,1,3,1
3,1016,6,123,64,2,2,1,2.075183e+00,NaN,1,1,3,1
3,1017,6,49,8,1,1,1,9.105676e-01,NaN,1,0,2,1
3,1018,6,34,49,1,1,1,1.432156e+00,NaN,1,0,1,1
3,1019,6,45,60,2,2,1,1.917447e+00,NaN,1,1,1,1
3,1020,6,72,15,1,1,1,6.942993e-01,NaN,1,1,2,1
3,1021,6,25,17,1,1,1,7.784490e-01,NaN,1,0,1,1
3,1022,6,54,65,2,2,1,9.603510e-01,NaN,1,0,2,1
3,1023,6,17,34,2,2,1,1.336799e+00,NaN,1,0,1,1
3,1024,6,88,63,2,2,1,7.452385e-01,NaN,1,0,2,1
3,1025,6,100,47,2,1,0,1.137908e+00,NaN,1,0,3,1
3,1026,6,33,12,2,2,1,8.987344e-01,NaN,1,0,1,1
3,1027,6,142,32,1,1,1,2.180723e+00,NaN,1,0,3,1
3,1028,6,3,35,1,1,1,1.611333e+00,NaN,1,0,1,1
