Subject,Trial,Cond,ImageNum,CueNum,Correct,Resp,Accuracy,RT,CueRep,ImageType,Baseline,Category,Block
26,1,1,90,NaN,NaN,1,NaN,2.414811e+00,NaN,0,0,2,1
26,2,1,133,NaN,NaN,2,NaN,7.737578e-02,NaN,2,0,3,1
26,3,1,101,NaN,NaN,2,NaN,2.522933e-01,NaN,0,0,3,1
26,4,1,120,NaN,NaN,2,NaN,2.132219e+00,NaN,1,0,3,1
26,5,1,96,NaN,NaN,1,NaN,1.240980e+00,NaN,0,0,2,1
26,6,1,18,NaN,NaN,2,NaN,6.171526e-01,NaN,2,0,1,1
26,7,1,95,NaN,NaN,1,NaN,3.148760e-01,NaN,0,0,2,1
26,8,1,106,NaN,NaN,2,NaN,8.562704e-01,NaN,1,0,3,1
26,9,1,74,NaN,NaN,1,NaN,2.962964e-01,NaN,0,0,2,1
26,10,1,98,NaN,NaN,2,NaN,3.903429e-01,NaN,1,0,3,1
26,11,1,56,NaN,NaN,1,NaN,5.685841e-01,NaN,0,0,2,1
26,12,1,77,NaN,NaN,2,NaN,3.797122e-01,NaN,0,0,2,1
26,13,1,84,NaN,NaN,1,NaN,2.869866e-01,NaN,0,0,2,1
26,14,1,55,NaN,NaN,1,NaN,3.252468e-01,NaN,0,0,2,1
26,15,1,67,NaN,NaN,1,NaN,2.745352e-01,NaN,1,0,2,1
26,16,1,80,NaN,NaN,1,NaN,2.575201e-01,NaN,2,0,2,1
26,17,1,70,NaN,NaN,1,NaN,3.056449e-01,NaN,2,1,2,1
26,18,1,137,NaN,NaN,1,NaN,3.275417e-01,NaN,2,0,3,1
26,19,1,33,NaN,NaN,2,NaN,5.882831e-01,NaN,1,0,1,1
26,20,1,53,NaN,NaN,1,NaN,2.629458e-01,NaN,1,0,2,1
26,21,1,142,NaN,NaN,2,NaN,4.303257e-01,NaN,1,0,3,1
26,22,1,22,NaN,NaN,2,NaN,3.755355e-01,NaN,0,1,1,1
26,23,1,113,NaN,NaN,1,NaN,4.503245e-01,NaN,0,0,3,1
26,24,1,13,NaN,NaN,2,NaN,7.467733e-01,NaN,0,0,1,1
26,25,1,88,NaN,NaN,1,NaN,6.149959e-01,NaN,0,0,2,1
26,26,1,88,NaN,NaN,1,NaN,4.245363e-01,NaN,1,0,2,1
26,27,1,19,NaN,NaN,2,NaN,4.337903e-01,NaN,2,0,1,1
26,28,1,91,NaN,NaN,2,NaN,4.146336e+00,NaN,0,0,2,1
26,29,1,138,NaN,NaN,2,NaN,5.101141e-01,NaN,1,1,3,1
26,30,1,136,NaN,NaN,2,NaN,2.599062e-01,NaN,2,1,3,1
26,31,1,80,NaN,NaN,1,NaN,2.838791e-01,NaN,0,0,2,1
26,32,1,116,NaN,NaN,1,NaN,3.306299e-01,NaN,2,0,3,1
26,33,1,98,NaN,NaN,2,NaN,3.367693e+00,NaN,0,0,3,1
26,34,1,114,NaN,NaN,1,NaN,5.385151e-01,NaN,1,0,3,1
26,35,1,89,NaN,NaN,1,NaN,2.791175e-01,NaN,2,0,2,1
26,36,1,71,NaN,NaN,1,NaN,2.941856e-01,NaN,0,0,2,1
26,37,1,66,NaN,NaN,1,NaN,3.006267e-01,NaN,2,0,2,1
26,38,1,4,NaN,NaN,1,NaN,3.867615e-01,NaN,1,0,1,1
26,39,1,17,NaN,NaN,2,NaN,4.374788e-01,NaN,1,0,1,1
26,40,1,102,NaN,NaN,2,NaN,1.054195e+00,NaN,0,0,3,1
26,41,1,34,NaN,NaN,2,NaN,8.950289e-01,NaN,0,1,1,1
26,42,1,28,NaN,NaN,2,NaN,4.839613e-01,NaN,2,0,1,1
26,43,1,119,NaN,NaN,1,NaN,6.263610e-01,NaN,1,1,3,1
26,44,1,69,NaN,NaN,1,NaN,3.395184e-01,NaN,0,0,2,1
26,45,1,108,NaN,NaN,2,NaN,3.202120e-01,NaN,2,1,3,1
26,46,1,106,NaN,NaN,1,NaN,3.571443e-01,NaN,0,0,3,1
26,47,1,43,NaN,NaN,2,NaN,3.930199e-01,NaN,0,1,1,1
26,48,1,49,NaN,NaN,1,NaN,3.716441e-01,NaN,0,0,2,1
26,49,1,81,NaN,NaN,1,NaN,3.351956e-01,NaN,2,0,2,1
26,50,1,110,NaN,NaN,2,NaN,2.427554e+00,NaN,1,1,3,1
26,51,1,22,NaN,NaN,2,NaN,4.526152e-01,NaN,2,1,1,1
26,52,1,125,NaN,NaN,1,NaN,3.885722e-01,NaN,1,0,3,1
26,53,1,100,NaN,NaN,2,NaN,4.072314e-01,NaN,2,0,3,1
26,54,1,1,NaN,NaN,1,NaN,3.371549e-01,NaN,0,0,1,1
26,55,1,113,NaN,NaN,1,NaN,5.411792e-01,NaN,2,0,3,1
26,56,1,27,NaN,NaN,1,NaN,4.018471e-01,NaN,0,0,1,1
26,57,1,8,NaN,NaN,2,NaN,4.121144e-01,NaN,2,0,1,1
26,58,1,4,NaN,NaN,1,NaN,3.494853e-01,NaN,0,0,1,1
26,59,1,26,NaN,NaN,2,NaN,3.463156e-01,NaN,0,0,1,1
26,60,1,65,NaN,NaN,1,NaN,3.980309e-01,NaN,0,1,2,1
26,61,1,42,NaN,NaN,2,NaN,5.286906e-01,NaN,2,0,1,1
26,62,1,30,NaN,NaN,2,NaN,3.175678e-01,NaN,0,0,1,1
26,63,1,78,NaN,NaN,2,NaN,1.562870e+00,NaN,0,0,2,1
26,64,1,9,NaN,NaN,2,NaN,5.422872e-01,NaN,2,0,1,1
26,65,1,118,NaN,NaN,1,NaN,5.144175e-01,NaN,1,1,3,1
26,66,1,117,NaN,NaN,2,NaN,2.881059e-01,NaN,1,0,3,1
26,67,1,10,NaN,NaN,2,NaN,5.349904e-01,NaN,2,0,1,1
26,68,1,2,NaN,NaN,2,NaN,5.236730e-01,NaN,1,0,1,1
26,69,1,21,NaN,NaN,1,NaN,2.730193e-01,NaN,0,1,1,1
26,70,1,86,NaN,NaN,1,NaN,7.039013e-01,NaN,0,0,2,1
26,71,1,41,NaN,NaN,2,NaN,3.100627e-01,NaN,2,1,1,1
26,72,1,29,NaN,NaN,1,NaN,3.640273e-01,NaN,2,0,1,1
26,73,1,125,NaN,NaN,1,NaN,3.593345e-01,NaN,0,0,3,1
26,74,1,25,NaN,NaN,1,NaN,4.109783e-01,NaN,0,1,1,1
26,75,1,1,NaN,NaN,1,NaN,3.566212e-01,NaN,2,0,1,1
26,76,1,111,NaN,NaN,1,NaN,1.256718e+00,NaN,1,0,3,1
26,77,1,94,NaN,NaN,1,NaN,3.123033e-01,NaN,0,0,2,1
26,78,1,139,NaN,NaN,1,NaN,9.255099e-01,NaN,1,0,3,1
26,79,1,115,NaN,NaN,2,NaN,4.826259e-01,NaN,2,0,3,1
26,80,1,64,NaN,NaN,1,NaN,7.855264e-01,NaN,2,1,2,1
26,81,1,89,NaN,NaN,1,NaN,2.603285e-01,NaN,0,0,2,1
26,82,1,112,NaN,NaN,1,NaN,9.401289e-01,NaN,0,0,3,1
26,83,1,35,NaN,NaN,2,NaN,5.447222e-01,NaN,1,0,1,1
26,84,1,126,NaN,NaN,2,NaN,7.809879e-01,NaN,1,0,3,1
26,85,1,141,NaN,NaN,1,NaN,5.994629e-01,NaN,2,0,3,1
26,86,1,68,NaN,NaN,1,NaN,2.981932e-01,NaN,1,0,2,1
26,87,1,124,NaN,NaN,2,NaN,3.439555e-01,NaN,2,1,3,1
26,88,1,117,NaN,NaN,2,NaN,5.244974e-01,NaN,0,0,3,1
26,89,1,17,NaN,NaN,2,NaN,2.658595e-01,NaN,0,0,1,1
26,90,1,7,NaN,NaN,2,NaN,2.733767e-01,NaN,0,0,1,1
26,91,1,95,NaN,NaN,1,NaN,4.029733e-02,NaN,2,0,2,1
26,92,1,19,NaN,NaN,2,NaN,3.287476e-01,NaN,0,0,1,1
26,93,1,84,NaN,NaN,1,NaN,2.380423e-01,NaN,1,0,2,1
26,94,1,73,NaN,NaN,1,NaN,4.228447e-01,NaN,1,0,2,1
26,95,1,31,NaN,NaN,1,NaN,3.840871e-01,NaN,2,0,1,1
26,96,1,109,NaN,NaN,1,NaN,2.830182e-01,NaN,0,0,3,1
26,97,1,82,NaN,NaN,1,NaN,1.316050e-04,NaN,0,0,2,1
26,98,1,72,NaN,NaN,1,NaN,5.317724e-01,NaN,2,0,2,1
26,99,1,51,NaN,NaN,1,NaN,2.885776e-01,NaN,1,0,2,1
26,100,1,132,NaN,NaN,2,NaN,2.709260e-01,NaN,2,0,3,1
26,101,1,126,NaN,NaN,1,NaN,3.587625e-01,NaN,0,0,3,1
26,102,1,58,NaN,NaN,1,NaN,1.306368e-01,NaN,0,1,2,1
26,103,1,8,NaN,NaN,2,NaN,2.631755e-01,NaN,0,0,1,1
26,104,1,70,NaN,NaN,1,NaN,4.951314e-01,NaN,0,1,2,1
26,105,1,142,NaN,NaN,1,NaN,3.729496e-01,NaN,0,0,3,1
26,106,1,23,NaN,NaN,2,NaN,3.203113e-01,NaN,2,0,1,1
26,107,1,112,NaN,NaN,1,NaN,3.736037e-01,NaN,1,0,3,1
26,108,1,87,NaN,NaN,1,NaN,4.008181e-01,NaN,0,0,2,1
26,109,1,40,NaN,NaN,2,NaN,3.471708e-01,NaN,2,0,1,1
26,110,1,107,NaN,NaN,2,NaN,3.269365e-01,NaN,0,0,3,1
26,111,1,137,NaN,NaN,1,NaN,3.241789e-01,NaN,0,0,3,1
26,112,1,12,NaN,NaN,2,NaN,4.736496e-01,NaN,1,1,1,1
26,113,1,15,NaN,NaN,2,NaN,2.885034e-01,NaN,1,1,1,1
26,114,1,69,NaN,NaN,1,NaN,2.794921e-01,NaN,2,0,2,1
26,115,1,2,NaN,NaN,1,NaN,3.741217e-01,NaN,0,0,1,1
26,116,1,49,NaN,NaN,1,NaN,2.174129e-01,NaN,2,0,2,1
26,117,1,128,NaN,NaN,2,NaN,3.545660e-01,NaN,2,0,3,1
26,118,1,45,NaN,NaN,2,NaN,4.869387e-01,NaN,1,0,1,1
26,119,1,57,NaN,NaN,1,NaN,2.692326e-01,NaN,0,0,2,1
26,120,1,111,NaN,NaN,1,NaN,3.004444e-01,NaN,0,0,3,1
26,121,1,134,NaN,NaN,2,NaN,3.466308e-01,NaN,1,0,3,1
26,122,1,16,NaN,NaN,1,NaN,3.031604e-01,NaN,1,1,1,1
26,123,1,60,NaN,NaN,1,NaN,1.327029e-01,NaN,1,0,2,1
26,124,1,56,NaN,NaN,1,NaN,1.337177e-04,NaN,2,0,2,1
26,125,1,122,NaN,NaN,2,NaN,2.519580e-01,NaN,2,0,3,1
26,126,1,121,NaN,NaN,2,NaN,3.240738e-01,NaN,0,1,3,1
26,127,1,11,NaN,NaN,1,NaN,3.215585e-01,NaN,0,0,1,1
26,128,1,61,NaN,NaN,1,NaN,3.589877e-01,NaN,0,0,2,1
26,129,1,131,NaN,NaN,2,NaN,3.146810e-01,NaN,2,0,3,1
26,130,1,77,NaN,NaN,1,NaN,4.399766e-01,NaN,1,0,2,1
26,131,1,78,NaN,NaN,1,NaN,8.963431e-01,NaN,2,0,2,1
26,132,1,67,NaN,NaN,1,NaN,3.027686e-01,NaN,0,0,2,1
26,133,1,45,NaN,NaN,2,NaN,3.087231e-01,NaN,0,0,1,1
26,134,1,123,NaN,NaN,1,NaN,3.303181e-01,NaN,2,0,3,1
26,135,1,3,NaN,NaN,2,NaN,3.272206e-01,NaN,0,0,1,1
26,136,1,129,NaN,NaN,2,NaN,2.768893e-01,NaN,0,0,3,1
26,137,1,5,NaN,NaN,1,NaN,3.075846e-01,NaN,1,0,1,1
26,138,1,121,NaN,NaN,1,NaN,7.933765e-01,NaN,2,1,3,1
26,139,1,93,NaN,NaN,1,NaN,3.884503e-01,NaN,0,0,2,1
26,140,1,23,NaN,NaN,2,NaN,5.104021e-01,NaN,0,0,1,1
26,141,1,131,NaN,NaN,1,NaN,3.003152e-01,NaN,0,0,3,1
26,142,1,58,NaN,NaN,1,NaN,1.349251e-04,NaN,1,1,2,1
26,143,1,90,NaN,NaN,1,NaN,7.890127e-01,NaN,2,0,2,1
26,144,1,71,NaN,NaN,1,NaN,2.788944e-01,NaN,1,0,2,1
26,145,1,83,NaN,NaN,1,NaN,2.702127e-01,NaN,1,0,2,1
26,146,1,81,NaN,NaN,1,NaN,3.332650e-01,NaN,0,0,2,1
26,147,1,21,NaN,NaN,1,NaN,5.223838e-01,NaN,1,1,1,1
26,148,1,41,NaN,NaN,2,NaN,3.994803e-01,NaN,0,1,1,1
26,149,1,9,NaN,NaN,1,NaN,3.377664e-01,NaN,0,0,1,1
26,150,1,85,NaN,NaN,1,NaN,2.302571e-01,NaN,2,1,2,1
26,151,1,15,NaN,NaN,1,NaN,3.989823e-01,NaN,0,1,1,1
26,152,1,144,NaN,NaN,1,NaN,3.372657e-01,NaN,2,0,3,1
26,153,1,92,NaN,NaN,1,NaN,3.739572e-01,NaN,1,1,2,1
26,154,1,105,NaN,NaN,2,NaN,3.129535e-01,NaN,2,1,3,1
26,155,1,130,NaN,NaN,2,NaN,2.865683e-01,NaN,2,0,3,1
26,156,1,20,NaN,NaN,1,NaN,3.973478e-01,NaN,2,0,1,1
26,157,1,44,NaN,NaN,1,NaN,4.635671e-01,NaN,0,0,1,1
26,158,1,116,NaN,NaN,1,NaN,7.120061e-02,NaN,0,0,3,1
26,159,1,123,NaN,NaN,1,NaN,3.258752e-01,NaN,0,0,3,1
26,160,1,128,NaN,NaN,1,NaN,3.154338e-01,NaN,0,0,3,1
26,161,1,62,NaN,NaN,1,NaN,2.728617e-01,NaN,0,1,2,1
26,162,1,24,NaN,NaN,2,NaN,3.921690e-01,NaN,0,0,1,1
26,163,1,59,NaN,NaN,1,NaN,2.903969e-01,NaN,0,1,2,1
26,164,1,114,NaN,NaN,1,NaN,3.051906e-01,NaN,0,0,3,1
26,165,1,103,NaN,NaN,1,NaN,3.200949e-01,NaN,0,0,3,1
26,166,1,47,NaN,NaN,1,NaN,5.480486e-01,NaN,0,0,1,1
26,167,1,135,NaN,NaN,2,NaN,3.272608e+00,NaN,0,0,3,1
26,168,1,6,NaN,NaN,1,NaN,2.715928e-01,NaN,2,0,1,1
26,169,1,79,NaN,NaN,1,NaN,2.947006e-01,NaN,2,0,2,1
26,170,1,144,NaN,NaN,1,NaN,3.004055e-01,NaN,0,0,3,1
26,171,1,18,NaN,NaN,2,NaN,2.910202e-01,NaN,0,0,1,1
26,172,1,62,NaN,NaN,1,NaN,3.855121e-01,NaN,2,1,2,1
26,173,1,38,NaN,NaN,1,NaN,3.243509e-01,NaN,1,1,1,1
26,174,1,33,NaN,NaN,1,NaN,3.933272e-01,NaN,0,0,1,1
26,175,1,94,NaN,NaN,1,NaN,2.920120e-01,NaN,1,0,2,1
26,176,1,40,NaN,NaN,2,NaN,1.870159e-01,NaN,0,0,1,1
26,177,1,36,NaN,NaN,1,NaN,2.770203e-01,NaN,0,0,1,1
26,178,1,99,NaN,NaN,2,NaN,8.446224e-01,NaN,0,0,3,1
26,179,1,11,NaN,NaN,1,NaN,3.642030e-01,NaN,2,0,1,1
26,180,1,115,NaN,NaN,2,NaN,4.163665e-01,NaN,0,0,3,1
26,181,1,141,NaN,NaN,1,NaN,3.296024e-01,NaN,0,0,3,1
26,182,1,43,NaN,NaN,2,NaN,3.185642e-01,NaN,1,1,1,1
26,183,1,103,NaN,NaN,1,NaN,3.159511e-01,NaN,1,0,3,1
26,184,1,140,NaN,NaN,1,NaN,3.858061e-01,NaN,1,0,3,1
26,185,1,143,NaN,NaN,2,NaN,2.276467e+00,NaN,0,0,3,1
26,186,1,66,NaN,NaN,1,NaN,1.469908e-01,NaN,0,0,2,1
26,187,1,93,NaN,NaN,1,NaN,5.035052e-01,NaN,2,0,2,1
26,188,1,97,NaN,NaN,2,NaN,6.854247e-01,NaN,1,1,3,1
26,189,1,14,NaN,NaN,1,NaN,5.961296e-01,NaN,0,1,1,1
26,190,1,53,NaN,NaN,1,NaN,9.341421e-01,NaN,0,0,2,1
26,191,1,102,NaN,NaN,1,NaN,3.962420e+00,NaN,1,0,3,1
26,192,1,63,NaN,NaN,1,NaN,2.859356e-01,NaN,2,1,2,1
26,193,1,52,NaN,NaN,1,NaN,9.241706e-02,NaN,2,0,2,1
26,194,1,124,NaN,NaN,1,NaN,4.032471e-01,NaN,0,1,3,1
26,195,1,57,NaN,NaN,1,NaN,9.308655e-02,NaN,1,0,2,1
26,196,1,7,NaN,NaN,2,NaN,4.192186e-01,NaN,2,0,1,1
26,197,1,46,NaN,NaN,2,NaN,3.405525e-01,NaN,0,0,1,1
26,198,1,20,NaN,NaN,1,NaN,7.052007e-01,NaN,0,0,1,1
26,199,1,48,NaN,NaN,1,NaN,2.554917e-01,NaN,1,1,1,1
26,200,1,74,NaN,NaN,1,NaN,2.792295e-01,NaN,1,0,2,1
26,201,1,37,NaN,NaN,2,NaN,3.660796e-01,NaN,1,0,1,1
26,202,1,35,NaN,NaN,1,NaN,4.576442e-01,NaN,0,0,1,1
26,203,1,46,NaN,NaN,1,NaN,5.453166e-01,NaN,2,0,1,1
26,204,1,60,NaN,NaN,1,NaN,2.533939e-01,NaN,0,0,2,1
26,205,1,105,NaN,NaN,1,NaN,4.933828e-01,NaN,0,1,3,1
26,206,1,63,NaN,NaN,1,NaN,2.360094e-01,NaN,0,1,2,1
26,207,1,51,NaN,NaN,1,NaN,1.005014e-01,NaN,0,0,2,1
26,208,1,36,NaN,NaN,1,NaN,3.311310e-01,NaN,1,0,1,1
26,209,1,87,NaN,NaN,1,NaN,1.280750e-01,NaN,1,0,2,1
26,210,1,104,NaN,NaN,2,NaN,3.004178e-01,NaN,2,1,3,1
26,211,1,97,NaN,NaN,2,NaN,4.350324e-02,NaN,0,1,3,1
26,212,1,122,NaN,NaN,1,NaN,1.587371e+00,NaN,0,0,3,1
26,213,1,50,NaN,NaN,1,NaN,6.698416e-01,NaN,1,1,2,1
26,214,1,25,NaN,NaN,1,NaN,2.693724e-01,NaN,2,1,1,1
26,215,1,92,NaN,NaN,1,NaN,2.680983e-01,NaN,0,1,2,1
26,216,1,68,NaN,NaN,1,NaN,1.310012e-04,NaN,0,0,2,1
26,217,1,54,NaN,NaN,1,NaN,9.410347e-02,NaN,2,0,2,1
26,218,1,136,NaN,NaN,2,NaN,1.652183e+00,NaN,0,1,3,1
26,219,1,48,NaN,NaN,1,NaN,4.924549e-01,NaN,0,1,1,1
26,220,1,108,NaN,NaN,1,NaN,3.550538e-01,NaN,0,1,3,1
26,221,1,109,NaN,NaN,1,NaN,1.987746e-01,NaN,1,0,3,1
26,222,1,86,NaN,NaN,1,NaN,1.450611e-01,NaN,2,0,2,1
26,223,1,110,NaN,NaN,1,NaN,3.572939e+00,NaN,0,1,3,1
26,224,1,39,NaN,NaN,2,NaN,3.840624e-01,NaN,0,1,1,1
26,225,1,127,NaN,NaN,1,NaN,4.269839e-01,NaN,0,1,3,1
26,226,1,10,NaN,NaN,2,NaN,3.799280e-01,NaN,0,0,1,1
26,227,1,75,NaN,NaN,1,NaN,1.672302e-01,NaN,0,0,2,1
26,228,1,26,NaN,NaN,2,NaN,4.746007e-01,NaN,1,0,1,1
26,229,1,12,NaN,NaN,1,NaN,2.580133e-01,NaN,0,1,1,1
26,230,1,76,NaN,NaN,1,NaN,2.573121e-01,NaN,1,0,2,1
26,231,1,82,NaN,NaN,1,NaN,3.618064e-01,NaN,1,0,2,1
26,232,1,61,NaN,NaN,1,NaN,3.173206e-01,NaN,1,0,2,1
26,233,1,73,NaN,NaN,1,NaN,3.146167e-01,NaN,0,0,2,1
26,234,1,130,NaN,NaN,2,NaN,2.813874e-01,NaN,0,0,3,1
26,235,1,16,NaN,NaN,1,NaN,2.951902e-01,NaN,0,1,1,1
26,236,1,3,NaN,NaN,2,NaN,3.094639e-01,NaN,1,0,1,1
26,237,1,42,NaN,NaN,2,NaN,4.752500e-01,NaN,0,0,1,1
26,238,1,37,NaN,NaN,1,NaN,3.146810e-01,NaN,0,0,1,1
26,239,1,79,NaN,NaN,1,NaN,2.719474e-01,NaN,0,0,2,1
26,240,1,133,NaN,NaN,1,NaN,6.552733e-01,NaN,0,0,3,1
26,241,1,6,NaN,NaN,2,NaN,2.392403e-01,NaN,0,0,1,1
26,242,1,139,NaN,NaN,1,NaN,2.554485e-01,NaN,0,0,3,1
26,243,1,59,NaN,NaN,1,NaN,2.391555e-01,NaN,1,1,2,1
26,244,1,55,NaN,NaN,1,NaN,3.517953e-01,NaN,1,0,2,1
26,245,1,29,NaN,NaN,1,NaN,8.043812e-01,NaN,0,0,1,1
26,246,1,101,NaN,NaN,1,NaN,2.936806e-01,NaN,2,0,3,1
26,247,1,100,NaN,NaN,2,NaN,3.326978e-01,NaN,0,0,3,1
26,248,1,132,NaN,NaN,2,NaN,9.611416e-01,NaN,0,0,3,1
26,249,1,127,NaN,NaN,1,NaN,3.731126e-01,NaN,2,1,3,1
26,250,1,75,NaN,NaN,1,NaN,2.798105e-01,NaN,2,0,2,1
26,251,1,31,NaN,NaN,1,NaN,5.108283e-01,NaN,0,0,1,1
26,252,1,13,NaN,NaN,2,NaN,2.768416e-01,NaN,1,0,1,1
26,253,1,44,NaN,NaN,1,NaN,6.195592e-01,NaN,1,0,1,1
26,254,1,138,NaN,NaN,1,NaN,2.691955e-01,NaN,0,1,3,1
26,255,1,72,NaN,NaN,1,NaN,1.485652e-01,NaN,0,0,2,1
26,256,1,140,NaN,NaN,1,NaN,2.650334e-01,NaN,0,0,3,1
26,257,1,50,NaN,NaN,1,NaN,1.520346e-01,NaN,0,1,2,1
26,258,1,39,NaN,NaN,1,NaN,3.562783e-01,NaN,2,1,1,1
26,259,1,32,NaN,NaN,2,NaN,4.563741e-01,NaN,0,1,1,1
26,260,1,32,NaN,NaN,1,NaN,2.960987e-01,NaN,2,1,1,1
26,261,1,107,NaN,NaN,1,NaN,3.102562e-01,NaN,1,0,3,1
26,262,1,119,NaN,NaN,1,NaN,5.802797e-01,NaN,0,1,3,1
26,263,1,120,NaN,NaN,1,NaN,2.392355e-01,NaN,0,0,3,1
26,264,1,65,NaN,NaN,1,NaN,1.034471e-01,NaN,2,1,2,1
26,265,1,14,NaN,NaN,1,NaN,3.577834e-01,NaN,1,1,1,1
26,266,1,118,NaN,NaN,1,NaN,3.617617e-01,NaN,0,1,3,1
26,267,1,24,NaN,NaN,2,NaN,1.229046e+00,NaN,2,0,1,1
26,268,1,129,NaN,NaN,1,NaN,3.709665e+00,NaN,2,0,3,1
26,269,1,96,NaN,NaN,1,NaN,1.310847e-01,NaN,1,0,2,1
26,270,1,135,NaN,NaN,1,NaN,7.521830e-01,NaN,1,0,3,1
26,271,1,64,NaN,NaN,1,NaN,1.962216e-01,NaN,0,1,2,1
26,272,1,5,NaN,NaN,1,NaN,3.920703e-01,NaN,0,0,1,1
26,273,1,91,NaN,NaN,1,NaN,4.411302e-01,NaN,2,0,2,1
26,274,1,76,NaN,NaN,1,NaN,2.495007e-01,NaN,0,0,2,1
26,275,1,54,NaN,NaN,1,NaN,1.331139e-04,NaN,0,0,2,1
26,276,1,27,NaN,NaN,1,NaN,4.917256e-01,NaN,1,0,1,1
26,277,1,83,NaN,NaN,1,NaN,1.506212e-04,NaN,0,0,2,1
26,278,1,30,NaN,NaN,2,NaN,4.049371e-01,NaN,2,0,1,1
26,279,1,143,NaN,NaN,1,NaN,3.269528e-01,NaN,1,0,3,1
26,280,1,52,NaN,NaN,1,NaN,2.360302e-01,NaN,0,0,2,1
26,281,1,134,NaN,NaN,2,NaN,2.605651e-01,NaN,0,0,3,1
26,282,1,85,NaN,NaN,1,NaN,6.925350e-01,NaN,0,1,2,1
26,283,1,34,NaN,NaN,1,NaN,3.948117e-01,NaN,1,1,1,1
26,284,1,47,NaN,NaN,1,NaN,3.971963e-01,NaN,1,0,1,1
26,285,1,38,NaN,NaN,1,NaN,3.275668e-01,NaN,0,1,1,1
26,286,1,104,NaN,NaN,1,NaN,6.768441e-01,NaN,0,1,3,1
26,287,1,28,NaN,NaN,1,NaN,1.755880e+00,NaN,0,0,1,1
26,288,1,99,NaN,NaN,2,NaN,2.792153e-01,NaN,2,0,3,1
26,406,2,134,60,1,0,0,3.499601e+00,NaN,1,0,3,1
26,407,2,114,59,1,1,1,2.494573e+00,NaN,1,0,3,1
26,408,2,35,30,1,1,1,3.400947e+00,NaN,1,0,1,1
26,409,2,60,49,2,2,1,1.140563e+00,NaN,1,0,2,1
26,410,2,57,41,2,2,1,9.803670e-01,NaN,1,0,2,1
26,411,2,143,21,2,2,1,7.296493e-01,NaN,1,0,3,1
26,412,2,87,70,2,2,1,2.474135e+00,NaN,1,0,2,1
26,413,2,98,7,1,1,1,1.404041e+00,NaN,1,0,3,1
26,414,2,74,69,2,2,1,1.656309e+00,NaN,1,0,2,1
26,415,2,110,2,1,2,0,1.867137e+00,NaN,1,1,3,1
26,416,2,36,71,2,2,1,2.677656e+00,NaN,1,0,1,1
26,417,2,117,33,2,2,1,1.055438e+00,NaN,1,0,3,1
26,418,2,77,72,1,1,1,1.802307e+00,NaN,1,0,2,1
26,419,2,71,25,1,1,1,9.287097e-01,NaN,1,0,2,1
26,420,2,126,17,2,2,1,1.936228e+00,NaN,1,0,3,1
26,421,2,109,53,1,1,1,9.105425e-01,NaN,1,0,3,1
26,422,2,50,11,1,1,1,1.511395e+00,NaN,1,1,2,1
26,423,2,96,35,1,1,1,5.518633e-01,NaN,1,0,2,1
26,424,2,13,51,1,2,0,3.079123e+00,NaN,1,0,1,1
26,425,2,82,12,1,1,1,1.088863e+00,NaN,1,0,2,1
26,426,2,59,63,2,2,1,1.017939e+00,NaN,1,1,2,1
26,427,2,12,3,1,1,1,7.429067e-01,NaN,1,1,1,1
26,428,2,55,6,1,1,1,1.262230e+00,NaN,1,0,2,1
26,429,2,16,42,1,1,1,1.768861e+00,NaN,1,1,1,1
26,430,3,55,6,1,1,1,1.012562e+00,NaN,1,0,2,1
26,431,3,134,60,2,2,1,2.337023e+00,NaN,1,0,3,1
26,432,3,110,2,1,2,0,6.881754e-01,NaN,1,1,3,1
26,433,3,96,35,2,2,1,6.740234e-01,NaN,1,0,2,1
26,434,3,13,51,2,0,0,3.499989e+00,NaN,1,0,1,1
26,435,3,143,21,2,2,1,5.895122e-01,NaN,1,0,3,1
26,436,3,36,71,1,1,1,1.011189e+00,NaN,1,0,1,1
26,437,3,59,63,1,1,1,6.393962e-01,NaN,1,1,2,1
26,438,3,114,59,1,1,1,7.391107e-01,NaN,1,0,3,1
26,439,3,50,11,1,1,1,7.308848e-01,NaN,1,1,2,1
26,440,3,82,12,2,2,1,9.944101e-01,NaN,1,0,2,1
26,441,3,109,53,2,2,1,1.936006e+00,NaN,1,0,3,1
26,442,3,126,17,1,1,1,1.607181e+00,NaN,1,0,3,1
26,443,3,77,72,2,2,1,6.756575e-01,NaN,1,0,2,1
26,444,3,87,70,1,2,0,1.102309e+00,NaN,1,0,2,1
26,445,3,117,33,1,1,1,6.154154e-01,NaN,1,0,3,1
26,446,3,60,49,2,1,0,2.580016e+00,NaN,1,0,2,1
26,447,3,16,42,1,1,1,7.294990e-01,NaN,1,1,1,1
26,448,3,57,41,1,1,1,6.429999e-01,NaN,1,0,2,1
26,449,3,12,3,1,1,1,6.609718e-01,NaN,1,1,1,1
26,450,3,71,25,1,1,1,1.128042e+00,NaN,1,0,2,1
26,451,3,35,30,2,2,1,1.752034e+00,NaN,1,0,1,1
26,452,3,74,69,2,2,1,6.945866e-01,NaN,1,0,2,1
26,453,3,98,7,2,2,1,1.055981e+00,NaN,1,0,3,1
26,478,2,120,29,2,2,1,9.147741e-01,NaN,1,0,3,2
26,479,2,125,26,1,1,1,1.179440e+00,NaN,1,0,3,2
26,480,2,102,67,2,2,1,8.569613e-01,NaN,1,0,3,2
26,481,2,37,66,1,1,1,1.659682e+00,NaN,1,0,1,2
26,482,2,111,13,2,2,1,9.824917e-01,NaN,1,0,3,2
26,483,2,94,9,1,2,0,2.196296e+00,NaN,1,0,2,2
26,484,2,3,58,1,1,1,1.009575e+00,NaN,1,0,1,2
26,485,2,140,61,1,1,1,1.086543e+00,NaN,1,0,3,2
26,486,2,73,50,1,2,0,7.521734e-01,NaN,1,0,2,2
26,487,2,139,8,2,2,1,6.951918e-01,NaN,1,0,3,2
26,488,2,4,57,2,2,1,1.952474e+00,NaN,1,0,1,2
26,489,2,61,1,2,2,1,8.631965e-01,NaN,1,0,2,2
26,490,2,33,46,1,1,1,1.209627e+00,NaN,1,0,1,2
26,491,2,103,54,1,1,1,7.830567e-01,NaN,1,0,3,2
26,492,2,107,23,1,1,1,6.528748e-01,NaN,1,0,3,2
26,493,2,92,55,1,1,1,1.039807e+00,NaN,1,1,2,2
26,494,2,27,15,1,2,0,2.347425e+00,NaN,1,0,1,2
26,495,2,67,31,1,2,0,7.863825e-01,NaN,1,0,2,2
26,496,2,84,40,2,2,1,8.560243e-01,NaN,1,0,2,2
26,497,2,68,10,2,2,1,7.481805e-01,NaN,1,0,2,2
26,498,2,21,20,1,1,1,1.057688e+00,NaN,1,1,1,2
26,499,2,17,36,2,2,1,1.117112e+00,NaN,1,0,1,2
26,500,2,76,64,1,1,1,6.213950e-01,NaN,1,0,2,2
26,501,2,58,28,1,1,1,6.416024e-01,NaN,1,1,2,2
26,502,3,61,1,2,2,1,6.599960e-01,NaN,1,0,2,2
26,503,3,3,58,1,1,1,5.350798e-01,NaN,1,0,1,2
26,504,3,84,40,1,1,1,5.748966e-01,NaN,1,0,2,2
26,505,3,94,9,2,1,0,1.940855e+00,NaN,1,0,2,2
26,506,3,76,64,1,1,1,5.246516e-01,NaN,1,0,2,2
26,507,3,73,50,1,1,1,8.371074e-01,NaN,1,0,2,2
26,508,3,102,67,2,2,1,8.565447e-01,NaN,1,0,3,2
26,509,3,21,20,2,2,1,7.073797e-01,NaN,1,1,1,2
26,510,3,33,46,2,2,1,8.608023e-01,NaN,1,0,1,2
26,511,3,58,28,2,2,1,7.832958e-01,NaN,1,1,2,2
26,512,3,107,23,2,2,1,1.069009e+00,NaN,1,0,3,2
26,513,3,120,29,1,1,1,1.120000e+00,NaN,1,0,3,2
26,514,3,92,55,1,1,1,8.399465e-01,NaN,1,1,2,2
26,515,3,140,61,2,2,1,1.315813e+00,NaN,1,0,3,2
26,516,3,17,36,1,1,1,9.561859e-01,NaN,1,0,1,2
26,517,3,103,54,1,1,1,5.871527e-01,NaN,1,0,3,2
26,518,3,125,26,2,2,1,1.272405e+00,NaN,1,0,3,2
26,519,3,68,10,1,1,1,5.149657e-01,NaN,1,0,2,2
26,520,3,4,57,1,1,1,6.993838e-01,NaN,1,0,1,2
26,521,3,37,66,2,2,1,1.156458e+00,NaN,1,0,1,2
26,522,3,27,15,2,1,0,2.763665e+00,NaN,1,0,1,2
26,523,3,111,13,1,1,1,1.257540e+00,NaN,1,0,3,2
26,524,3,67,31,1,1,1,1.070247e+00,NaN,1,0,2,2
26,525,3,139,8,1,1,1,1.174939e+00,NaN,1,0,3,2
26,550,2,43,22,1,1,1,1.398224e+00,NaN,1,1,1,3
26,551,2,106,65,2,2,1,9.470704e-01,NaN,1,0,3,3
26,552,2,15,37,1,1,1,9.543126e-01,NaN,1,1,1,3
26,553,2,5,4,1,1,1,5.610283e-01,NaN,1,0,1,3
26,554,2,38,24,1,1,1,1.256126e+00,NaN,1,1,1,3
26,555,2,135,34,2,2,1,6.348739e-01,NaN,1,0,3,3
26,556,2,53,43,1,1,1,1.614725e+00,NaN,1,0,2,3
26,557,2,97,18,1,1,1,1.050943e+00,NaN,1,1,3,3
26,558,2,119,62,1,1,1,5.504739e-01,NaN,1,1,3,3
26,559,2,44,32,1,1,1,8.850532e-01,NaN,1,0,1,3
26,560,2,142,27,2,2,1,1.311124e+00,NaN,1,0,3,3
26,561,2,34,68,2,2,1,1.807765e+00,NaN,1,1,1,3
26,562,2,2,45,1,1,1,6.924752e-01,NaN,1,0,1,3
26,563,2,118,47,2,2,1,1.141983e+00,NaN,1,1,3,3
26,564,2,138,5,1,1,1,7.254908e-01,NaN,1,1,3,3
26,565,2,48,19,1,1,1,6.136916e-01,NaN,1,1,1,3
26,566,2,47,14,1,1,1,8.584992e-01,NaN,1,0,1,3
26,567,2,14,52,1,1,1,1.437968e+00,NaN,1,1,1,3
26,568,2,88,39,2,2,1,9.528719e-01,NaN,1,0,2,3
26,569,2,26,38,2,2,1,1.503582e+00,NaN,1,0,1,3
26,570,2,83,56,2,2,1,7.047111e-01,NaN,1,0,2,3
26,571,2,112,48,1,1,1,5.538054e-01,NaN,1,0,3,3
26,572,2,51,44,1,1,1,1.032421e+00,NaN,1,0,2,3
26,573,2,45,16,2,2,1,1.324197e+00,NaN,1,0,1,3
26,574,3,47,14,1,1,1,5.629773e-01,NaN,1,0,1,3
26,575,3,135,34,2,2,1,5.218912e-01,NaN,1,0,3,3
26,576,3,119,62,1,1,1,7.621113e-01,NaN,1,1,3,3
26,577,3,118,47,2,2,1,7.928776e-01,NaN,1,1,3,3
26,578,3,45,16,1,1,1,1.846076e+00,NaN,1,0,1,3
26,579,3,106,65,2,2,1,8.096101e-01,NaN,1,0,3,3
26,580,3,44,32,2,2,1,8.865702e-01,NaN,1,0,1,3
26,581,3,97,18,1,1,1,7.199489e-01,NaN,1,1,3,3
26,582,3,48,19,2,2,1,8.801210e-01,NaN,1,1,1,3
26,583,3,51,44,1,1,1,4.897658e-01,NaN,1,0,2,3
26,584,3,138,5,1,1,1,5.475273e-01,NaN,1,1,3,3
26,585,3,14,52,1,1,1,6.351758e-01,NaN,1,1,1,3
26,586,3,83,56,1,1,1,6.227986e-01,NaN,1,0,2,3
26,587,3,38,24,1,1,1,9.153368e-01,NaN,1,1,1,3
26,588,3,43,22,2,2,1,1.091835e+00,NaN,1,1,1,3
26,589,3,34,68,2,2,1,6.699158e-01,NaN,1,1,1,3
26,590,3,15,37,1,1,1,8.315459e-01,NaN,1,1,1,3
26,591,3,142,27,1,1,1,1.211542e+00,NaN,1,0,3,3
26,592,3,5,4,1,1,1,5.840042e-01,NaN,1,0,1,3
26,593,3,53,43,1,1,1,4.296520e-01,NaN,1,0,2,3
26,594,3,2,45,1,1,1,5.457923e-01,NaN,1,0,1,3
26,595,3,26,38,1,1,1,9.210706e-01,NaN,1,0,1,3
26,596,3,88,39,2,2,1,1.033170e+00,NaN,1,0,2,3
26,597,3,112,48,2,2,1,8.209109e-01,NaN,1,0,3,3
26,622,4,49,32,2,2,1,7.488989e-01,NaN,2,0,2,1
26,623,4,40,21,1,1,1,1.611654e+00,NaN,2,0,1,1
26,624,4,81,29,2,2,1,6.405007e-01,NaN,2,0,2,1
26,625,4,69,45,1,1,1,6.121247e-01,NaN,2,0,2,1
26,626,4,46,48,1,1,1,5.848333e-01,NaN,2,0,1,1
26,627,4,141,10,2,2,1,9.987914e-01,NaN,2,0,3,1
26,628,4,63,42,1,1,1,6.120209e-01,NaN,2,1,2,1
26,629,4,11,35,2,2,1,1.000497e+00,NaN,2,0,1,1
26,630,4,30,27,2,2,1,7.818521e-01,NaN,2,0,1,1
26,631,4,10,43,1,1,1,8.038213e-01,NaN,2,0,1,1
26,632,4,132,12,2,2,1,5.443987e-01,NaN,2,0,3,1
26,633,4,128,56,1,1,1,1.456028e+00,NaN,2,0,3,1
26,634,4,101,58,2,2,1,2.770326e+00,NaN,2,0,3,1
26,635,4,54,46,2,1,0,6.963886e-01,NaN,2,0,2,1
26,636,4,144,44,1,1,1,7.295506e-01,NaN,2,0,3,1
26,637,4,78,54,2,2,1,1.401972e+00,NaN,2,0,2,1
26,638,4,95,33,2,1,0,5.668062e-01,NaN,2,0,2,1
26,639,4,108,52,2,2,1,1.125610e+00,NaN,2,1,3,1
26,640,4,93,60,2,2,1,7.579513e-01,NaN,2,0,2,1
26,641,4,90,34,1,2,0,5.487166e-01,NaN,2,0,2,1
26,642,4,70,3,1,1,1,1.276082e+00,NaN,2,1,2,1
26,643,4,133,49,1,1,1,9.424271e-01,NaN,2,0,3,1
26,644,4,56,4,2,2,1,6.938359e-01,NaN,2,0,2,1
26,645,4,127,28,1,1,1,7.673290e-01,NaN,2,1,3,1
26,670,4,121,68,1,1,1,7.974904e-01,NaN,2,1,3,2
26,671,4,42,67,2,2,1,1.202710e+00,NaN,2,0,1,2
26,672,4,85,62,1,1,1,4.719007e-01,NaN,2,1,2,2
26,673,4,52,16,1,1,1,4.819214e-01,NaN,2,0,2,2
26,674,4,129,69,1,1,1,6.918956e-01,NaN,2,0,3,2
26,675,4,8,39,1,1,1,4.854288e-01,NaN,2,0,1,2
26,676,4,29,13,1,1,1,6.958257e-01,NaN,2,0,1,2
26,677,4,22,11,1,1,1,6.645780e-01,NaN,2,1,1,2
26,678,4,1,72,2,2,1,9.554934e-01,NaN,2,0,1,2
26,679,4,113,30,1,1,1,1.122082e+00,NaN,2,0,3,2
26,680,4,136,55,2,2,1,1.010589e+00,NaN,2,1,3,2
26,681,4,6,6,1,1,1,5.751872e-01,NaN,2,0,1,2
26,682,4,64,20,1,1,1,5.738754e-01,NaN,2,1,2,2
26,683,4,91,26,2,2,1,5.558975e-01,NaN,2,0,2,2
26,684,4,75,59,2,2,1,4.588392e-01,NaN,2,0,2,2
26,685,4,123,51,2,2,1,7.820769e-01,NaN,2,0,3,2
26,686,4,124,63,2,2,1,1.228187e+00,NaN,2,1,3,2
26,687,4,32,2,1,1,1,1.463399e+00,NaN,2,1,1,2
26,688,4,80,8,1,1,1,6.422529e-01,NaN,2,0,2,2
26,689,4,66,57,1,1,1,8.776096e-01,NaN,2,0,2,2
26,690,4,72,38,1,1,1,8.158109e-01,NaN,2,0,2,2
26,691,4,39,47,2,2,1,1.140296e+00,NaN,2,1,1,2
26,692,4,89,23,1,1,1,9.400193e-01,NaN,2,0,2,2
26,693,4,18,64,1,1,1,5.796666e-01,NaN,2,0,1,2
26,718,4,122,15,1,1,1,7.016872e-01,NaN,2,0,3,3
26,719,4,99,14,2,2,1,7.588260e-01,NaN,2,0,3,3
26,720,4,105,19,2,2,1,6.616990e-01,NaN,2,1,3,3
26,721,4,28,61,1,1,1,5.281569e-01,NaN,2,0,1,3
26,722,4,9,40,1,1,1,8.966151e-01,NaN,2,0,1,3
26,723,4,86,65,2,2,1,8.417999e-01,NaN,2,0,2,3
26,724,4,79,53,1,1,1,6.451403e-01,NaN,2,0,2,3
26,725,4,62,24,2,1,0,4.164263e-01,NaN,2,1,2,3
26,726,4,19,9,2,2,1,9.245554e-01,NaN,2,0,1,3
26,727,4,130,50,1,1,1,1.021432e+00,NaN,2,0,3,3
26,728,4,24,17,1,1,1,7.296517e-01,NaN,2,0,1,3
26,729,4,137,25,1,1,1,7.372743e-01,NaN,2,0,3,3
26,730,4,131,31,2,2,1,7.852584e-01,NaN,2,0,3,3
26,731,4,31,7,2,2,1,1.047044e+00,NaN,2,0,1,3
26,732,4,65,22,2,2,1,1.473686e+00,NaN,2,1,2,3
26,733,4,7,70,2,2,1,9.245237e-01,NaN,2,0,1,3
26,734,4,104,37,2,2,1,7.724559e-01,NaN,2,1,3,3
26,735,4,115,36,2,2,1,6.669300e-01,NaN,2,0,3,3
26,736,4,20,41,1,1,1,1.093481e+00,NaN,2,0,1,3
26,737,4,23,1,1,1,1,7.827624e-01,NaN,2,0,1,3
26,738,4,116,66,1,1,1,1.237057e+00,NaN,2,0,3,3
26,739,4,41,5,2,2,1,1.120080e+00,NaN,2,1,1,3
26,740,4,25,18,2,2,1,1.920746e+00,NaN,2,1,1,3
26,741,4,100,71,2,2,1,7.369483e-01,NaN,2,0,3,3
26,742,5,9.831000e+01,7,3,3,1,1.521352e+00,1,1,0,3.100000e+00,1
26,743,5,8.428000e+01,56,2,2,1,1.131601e+00,1,1,0,2.300000e+00,1
26,744,5,8.332000e+01,12,2,2,1,1.444946e+00,1,1,0,2.300000e+00,1
26,745,5,1.037800e+02,54,3,3,1,8.665844e-02,1,1,0,3.200000e+00,1
26,746,5,2.672000e+01,38,1,2,0,4.474986e-01,1,1,0,1.200000e+00,1
26,747,5,8.409000e+01,40,2,2,1,1.289181e+00,1,1,0,2.100000e+00,1
26,748,5,3.354000e+01,46,1,2,0,3.622169e-01,1,1,0,1.200000e+00,1
26,749,5,2.690000e+00,45,1,2,0,1.811537e+00,1,1,0,1.200000e+00,1
26,750,5,1.037800e+02,54,3,3,1,3.496894e-01,2,1,0,3.200000e+00,1
26,751,5,4.010000e+00,58,1,1,1,3.269567e-01,1,1,0,1.300000e+00,1
26,752,5,5.506000e+01,6,2,1,0,2.801190e-01,1,1,0,2.100000e+00,1
26,753,5,1.259100e+02,26,3,3,1,4.331989e-01,1,1,0,3.200000e+00,1
26,754,5,1.078900e+02,23,3,3,1,4.984882e-01,1,1,0,3.200000e+00,1
26,755,5,1.423000e+01,51,1,3,0,1.859408e+00,1,1,0,1.300000e+00,1
26,756,5,8.707000e+01,70,2,2,1,2.698910e-01,1,1,0,2.100000e+00,1
26,757,5,9.831000e+01,7,3,3,1,4.071539e-01,2,1,0,3.100000e+00,1
26,758,5,5.506000e+01,6,2,2,1,4.085101e-01,2,1,0,2.100000e+00,1
26,759,5,5.244000e+01,44,2,2,1,3.296574e-01,1,1,0,2.300000e+00,1
26,760,5,1.359000e+02,34,3,3,1,4.911618e-01,1,1,0,3.200000e+00,1
26,761,5,1.124600e+02,48,3,3,1,1.236098e+00,1,1,0,3.100000e+00,1
26,762,5,6.133000e+01,49,2,2,1,4.378537e-01,1,1,0,2.300000e+00,1
26,763,5,4.799000e+01,14,1,1,1,4.626168e-01,1,1,0,1.300000e+00,1
26,764,5,3.354000e+01,46,1,2,0,1.064290e+00,2,1,0,1.200000e+00,1
26,765,5,6.123000e+01,1,2,2,1,1.649453e+00,1,1,0,2.100000e+00,1
26,766,5,7.430000e+01,50,2,2,1,5.472943e-01,1,1,0,2.300000e+00,1
26,767,5,1.815000e+01,36,1,1,1,3.088879e-01,1,1,0,1.300000e+00,1
26,768,5,6.123000e+01,1,2,1,0,7.578949e-01,2,1,0,2.100000e+00,1
26,769,5,1.078900e+02,23,3,3,1,3.592651e-01,2,1,0,3.200000e+00,1
26,770,5,5.244000e+01,44,2,2,1,4.249522e-01,2,1,0,2.300000e+00,1
26,771,5,1.402800e+02,61,3,3,1,2.744096e-01,1,1,0,3.100000e+00,1
26,772,5,6.133000e+01,49,2,2,1,3.315979e-01,2,1,0,2.300000e+00,1
26,773,5,6.831000e+01,31,2,2,1,4.610904e-01,1,1,0,2.300000e+00,1
26,774,5,2.822000e+01,15,1,1,1,5.900212e-01,1,1,0,1.300000e+00,1
26,775,5,9.611000e+01,35,2,2,1,3.274877e-01,1,1,0,2.100000e+00,1
26,776,5,4.660000e+00,57,1,1,1,2.645724e-01,1,1,0,1.200000e+00,1
26,777,5,6.941000e+01,10,2,2,1,6.261666e-01,1,1,0,2.300000e+00,1
26,778,5,1.398000e+02,8,3,2,0,2.593571e-01,1,1,0,3.200000e+00,1
26,779,5,5.720000e+01,41,2,2,1,3.810285e-01,1,1,0,2.100000e+00,1
26,780,5,1.434000e+02,21,3,3,1,3.179829e-01,1,1,0,3.100000e+00,1
26,781,5,7.430000e+01,50,2,2,1,3.513374e-01,2,1,0,2.300000e+00,1
26,782,5,1.815000e+01,36,1,1,1,3.366333e-01,2,1,0,1.300000e+00,1
26,783,5,1.112900e+02,13,3,3,1,2.659196e-01,1,1,0,3.100000e+00,1
26,784,5,1.112900e+02,13,3,3,1,3.165687e-01,2,1,0,3.100000e+00,1
26,785,5,1.402800e+02,61,3,3,1,2.681771e-01,2,1,0,3.100000e+00,1
26,786,5,1.078900e+02,23,3,3,1,2.786907e-01,3,1,0,3.200000e+00,1
26,787,5,5.720000e+01,41,2,2,1,2.624145e-01,2,1,0,2.100000e+00,1
26,788,5,7.529000e+01,69,2,2,1,3.759907e-01,1,1,0,2.300000e+00,1
26,789,5,7.430000e+01,50,2,2,1,3.294874e-01,3,1,0,2.300000e+00,1
26,790,5,9.831000e+01,7,3,2,0,9.305727e-01,3,1,0,3.100000e+00,1
26,791,5,7.701000e+01,72,2,2,1,2.922122e-01,1,1,0,2.100000e+00,1
26,792,5,4.660000e+00,57,1,1,1,6.295928e-01,2,1,0,1.200000e+00,1
26,793,5,8.409000e+01,40,2,2,1,2.463841e-01,2,1,0,2.100000e+00,1
26,794,5,1.179500e+02,33,3,3,1,3.678185e-01,1,1,0,3.200000e+00,1
26,795,5,1.423000e+02,27,3,3,1,4.012790e-01,1,1,0,3.100000e+00,1
26,796,5,8.707000e+01,70,2,2,1,3.788290e-01,2,1,0,2.100000e+00,1
26,797,5,8.808000e+01,39,2,2,1,2.754537e-01,1,1,0,2.100000e+00,1
26,798,5,3.816000e+01,66,1,1,1,3.409343e-01,1,1,0,1.300000e+00,1
26,799,5,8.332000e+01,12,2,2,1,4.384296e-01,2,1,0,2.300000e+00,1
26,800,5,1.402800e+02,61,3,3,1,2.878602e-01,3,1,0,3.100000e+00,1
26,801,5,6.831000e+01,31,2,2,1,4.006974e-01,2,1,0,2.300000e+00,1
26,802,5,8.428000e+01,56,2,2,1,2.743299e-01,2,1,0,2.300000e+00,1
26,803,5,1.208100e+02,29,3,3,1,4.032262e-01,1,1,0,3.200000e+00,1
26,804,5,7.618000e+01,64,2,1,0,6.366268e-01,1,1,0,2.100000e+00,1
26,805,5,9.419000e+01,9,2,3,0,1.773881e+00,1,1,0,2.100000e+00,1
26,806,5,2.690000e+00,45,1,4,0,3.203813e-01,2,1,0,1.200000e+00,1
26,807,5,37,71,1,1,1,4.091874e-01,1,1,0,1.300000e+00,1
26,808,5,1.423000e+02,27,3,3,1,3.629585e-01,2,1,0,3.100000e+00,1
26,809,5,1.423000e+02,27,3,3,1,5.878741e-01,3,1,0,3.100000e+00,1
26,810,5,9.831000e+01,7,3,3,1,4.051861e-01,4,1,0,3.100000e+00,1
26,811,5,4.552000e+01,16,1,1,1,6.645252e-01,1,1,0,1.200000e+00,1
26,812,5,6.123000e+01,1,2,2,1,6.482871e-01,3,1,0,2.100000e+00,1
26,813,5,1.259100e+02,26,3,3,1,3.450678e-01,2,1,0,3.200000e+00,1
26,814,5,1.037800e+02,54,3,3,1,6.826752e-01,3,1,0,3.200000e+00,1
26,815,5,2.822000e+01,15,1,1,1,7.158438e-01,2,1,0,1.300000e+00,1
26,816,5,5.720000e+01,41,2,2,1,3.575929e-01,3,1,0,2.100000e+00,1
26,817,5,5.310000e+01,43,2,1,0,3.104926e-01,1,1,0,2.100000e+00,1
26,818,5,1.124600e+02,48,3,3,1,3.278457e-01,2,1,0,3.100000e+00,1
26,819,5,8.808000e+01,39,2,2,1,3.372681e-01,2,1,0,2.100000e+00,1
26,820,5,5.310000e+01,43,2,2,1,2.508418e-01,2,1,0,2.100000e+00,1
26,821,5,2.672000e+01,38,1,1,1,3.480051e-01,2,1,0,1.200000e+00,1
26,822,5,1.398000e+02,8,3,3,1,3.410958e-01,2,1,0,3.200000e+00,1
26,823,5,4.552000e+01,16,1,1,1,3.663316e-01,2,1,0,1.200000e+00,1
26,824,5,9.419000e+01,9,2,1,0,2.795352e-01,2,1,0,2.100000e+00,1
26,825,5,1.423000e+01,51,1,3,0,3.050301e-01,2,1,0,1.300000e+00,1
26,826,5,1.259100e+02,26,3,3,1,4.661089e-01,3,1,0,3.200000e+00,1
26,827,5,1.262400e+02,17,3,3,1,4.509016e-01,1,1,0,3.100000e+00,1
26,828,5,9.611000e+01,35,2,2,1,4.128108e-01,2,1,0,2.100000e+00,1
26,829,5,5.244000e+01,44,2,2,1,4.777653e-01,3,1,0,2.300000e+00,1
26,830,5,1.068600e+02,65,3,1,0,8.629451e-01,1,1,0,3.200000e+00,1
26,831,5,4.010000e+00,58,1,1,1,6.004865e-01,2,1,0,1.300000e+00,1
26,832,5,1.147500e+02,59,3,3,1,3.777311e-01,1,1,0,3.200000e+00,1
26,833,5,1.068600e+02,65,3,3,1,2.828495e-01,2,1,0,3.200000e+00,1
26,834,5,5.506000e+01,6,2,3,0,6.681437e-01,3,1,0,2.100000e+00,1
26,835,5,1.124600e+02,48,3,3,1,3.010046e-01,3,1,0,3.100000e+00,1
26,836,5,6.831000e+01,31,2,2,1,7.668853e-01,3,1,0,2.300000e+00,1
26,837,5,1.259100e+02,26,3,3,1,2.396309e-01,4,1,0,3.200000e+00,1
26,838,5,1.349300e+02,60,3,1,0,2.892179e-01,1,1,0,3.200000e+00,1
26,839,5,1.208100e+02,29,3,3,1,2.506764e-01,2,1,0,3.200000e+00,1
26,840,5,1.097900e+02,53,3,3,1,2.357072e-01,1,1,0,3.200000e+00,1
26,841,5,1.097900e+02,53,3,3,1,2.453274e-01,2,1,0,3.200000e+00,1
26,842,5,7.430000e+01,50,2,2,1,8.624410e-01,4,1,0,2.300000e+00,1
26,843,5,1.815000e+01,36,1,1,1,3.361075e-01,3,1,0,1.300000e+00,1
26,844,5,1.024200e+02,67,3,3,1,4.969316e-01,1,1,0,3.100000e+00,1
26,845,5,4.449000e+01,32,1,1,1,4.503583e-01,1,1,0,1.200000e+00,1
26,846,5,4.449000e+01,32,1,1,1,3.559442e-01,2,1,0,1.200000e+00,1
26,847,5,8.428000e+01,56,2,2,1,3.568971e-01,3,1,0,2.300000e+00,1
26,848,5,37,71,1,1,1,3.183339e-01,2,1,0,1.300000e+00,1
26,849,5,1.262400e+02,17,3,3,1,2.796113e-01,2,1,0,3.100000e+00,1
26,850,5,1.434000e+02,21,3,3,1,3.451327e-01,2,1,0,3.100000e+00,1
26,851,5,5.244000e+01,44,2,2,1,3.941042e-01,4,1,0,2.300000e+00,1
26,852,5,2.822000e+01,15,1,1,1,4.836848e-01,3,1,0,1.300000e+00,1
26,853,5,8.428000e+01,56,2,2,1,4.529934e-01,4,1,0,2.300000e+00,1
26,854,5,6.133000e+01,49,2,2,1,7.422770e-01,3,1,0,2.300000e+00,1
26,855,5,1.398000e+02,8,3,3,1,2.792343e-01,3,1,0,3.200000e+00,1
26,856,5,3.613000e+01,30,1,1,1,3.285303e-01,1,1,0,1.300000e+00,1
26,857,5,7.618000e+01,64,2,2,1,4.502074e-01,2,1,0,2.100000e+00,1
26,858,5,1.423000e+01,51,1,1,1,2.431393e-01,3,1,0,1.300000e+00,1
26,859,5,7.237000e+01,25,2,2,1,3.249470e-01,1,1,0,2.300000e+00,1
26,860,5,3.354000e+01,46,1,3,0,8.378967e-01,3,1,0,1.200000e+00,1
26,861,5,5.720000e+01,41,2,2,1,3.437403e-01,4,1,0,2.100000e+00,1
26,862,5,1.078900e+02,23,3,3,1,2.489537e-01,4,1,0,3.200000e+00,1
26,863,5,7.701000e+01,72,2,2,1,1.503192e-04,2,1,0,2.100000e+00,1
26,864,5,37,71,1,1,1,3.234454e-01,3,1,0,1.300000e+00,1
26,865,5,1.112900e+02,13,3,3,1,3.410445e-01,3,1,0,3.100000e+00,1
26,866,5,5.560000e+00,4,1,1,1,3.340577e-01,1,1,0,1.200000e+00,1
26,867,5,4.449000e+01,32,1,1,1,6.076257e-01,3,1,0,1.200000e+00,1
26,868,5,1.208100e+02,29,3,3,1,3.129306e-01,3,1,0,3.200000e+00,1
26,869,5,1.179500e+02,33,3,3,1,4.418085e-01,2,1,0,3.200000e+00,1
26,870,5,4.449000e+01,32,1,1,1,4.516921e-01,4,1,0,1.200000e+00,1
26,871,5,5.310000e+01,43,2,2,1,3.887567e-01,3,1,0,2.100000e+00,1
26,872,5,6.941000e+01,10,2,2,1,7.496846e-01,2,1,0,2.300000e+00,1
26,873,5,1.024200e+02,67,3,3,1,2.790888e-01,2,1,0,3.100000e+00,1
26,874,5,37,71,1,1,1,4.966759e-01,4,1,0,1.300000e+00,1
26,875,5,1.147500e+02,59,3,3,1,3.457110e-01,2,1,0,3.200000e+00,1
26,876,5,5.506000e+01,6,2,2,1,1.226619e+00,4,1,0,2.100000e+00,1
26,877,5,7.237000e+01,25,2,2,1,4.521072e-01,2,1,0,2.300000e+00,1
26,878,5,1.349300e+02,60,3,1,0,3.653965e-01,2,1,0,3.200000e+00,1
26,879,5,8.332000e+01,12,2,2,1,4.228308e-01,3,1,0,2.300000e+00,1
26,880,5,8.707000e+01,70,2,2,1,1.560543e-04,3,1,0,2.100000e+00,1
26,881,5,1.359000e+02,34,3,3,1,3.855716e-01,2,1,0,3.200000e+00,1
26,882,5,1.147500e+02,59,3,3,1,4.187106e-01,3,1,0,3.200000e+00,1
26,883,5,7.701000e+01,72,2,2,1,4.204257e-01,3,1,0,2.100000e+00,1
26,884,5,1.147500e+02,59,3,3,1,3.577145e-01,4,1,0,3.200000e+00,1
26,885,5,3.816000e+01,66,1,1,1,3.108593e-01,2,1,0,1.300000e+00,1
26,886,5,4.799000e+01,14,1,1,1,4.561042e-01,2,1,0,1.300000e+00,1
26,887,5,1.179500e+02,33,3,3,1,2.736954e-01,3,1,0,3.200000e+00,1
26,888,5,9.611000e+01,35,2,2,1,3.227345e-01,3,1,0,2.100000e+00,1
26,889,5,5.560000e+00,4,1,1,1,7.555432e-01,2,1,0,1.200000e+00,1
26,890,5,9.419000e+01,9,2,3,0,4.373040e-01,3,1,0,2.100000e+00,1
26,891,5,7.701000e+01,72,2,2,1,2.787495e-01,4,1,0,2.100000e+00,1
26,892,5,1.262400e+02,17,3,3,1,2.475643e-01,3,1,0,3.100000e+00,1
26,893,5,3.613000e+01,30,1,1,1,4.807744e-01,2,1,0,1.300000e+00,1
26,894,5,6.133000e+01,49,2,2,1,4.343879e-01,4,1,0,2.300000e+00,1
26,895,5,7.618000e+01,64,2,2,1,2.273992e-01,3,1,0,2.100000e+00,1
26,896,5,1.349300e+02,60,3,3,1,4.131099e-01,3,1,0,3.200000e+00,1
26,897,5,7.529000e+01,69,2,2,1,2.858348e-01,2,1,0,2.300000e+00,1
26,898,5,2.690000e+00,45,1,2,0,3.114476e-01,3,1,0,1.200000e+00,1
26,899,5,1.068600e+02,65,3,3,1,7.925960e-01,3,1,0,3.200000e+00,1
26,900,5,1.097900e+02,53,3,3,1,2.902357e-01,3,1,0,3.200000e+00,1
26,901,5,3.613000e+01,30,1,1,1,2.912499e-01,3,1,0,1.300000e+00,1
26,902,5,1.097900e+02,53,3,3,1,4.202407e-01,4,1,0,3.200000e+00,1
26,903,5,8.409000e+01,40,2,2,1,3.495439e-01,3,1,0,2.100000e+00,1
26,904,5,3.816000e+01,66,1,1,1,4.543360e-01,3,1,0,1.300000e+00,1
26,905,5,1.124600e+02,48,3,3,1,4.003032e-01,4,1,0,3.100000e+00,1
26,906,5,1.349300e+02,60,3,3,1,3.935379e-01,4,1,0,3.200000e+00,1
26,907,5,5.560000e+00,4,1,1,1,5.466897e-01,3,1,0,1.200000e+00,1
26,908,5,9.419000e+01,9,2,3,0,3.723242e-01,4,1,0,2.100000e+00,1
26,909,5,4.010000e+00,58,1,1,1,3.175174e-01,3,1,0,1.300000e+00,1
26,910,5,1.434000e+02,21,3,3,1,4.547679e-01,3,1,0,3.100000e+00,1
26,911,5,8.332000e+01,12,2,2,1,3.041876e-01,4,1,0,2.300000e+00,1
26,912,5,6.831000e+01,31,2,2,1,2.812763e-01,4,1,0,2.300000e+00,1
26,913,5,1.208100e+02,29,3,3,1,5.147523e-01,4,1,0,3.200000e+00,1
26,914,5,6.123000e+01,1,2,2,1,5.082312e-01,4,1,0,2.100000e+00,1
26,915,5,4.799000e+01,14,1,1,1,7.660767e-01,3,1,0,1.300000e+00,1
26,916,5,2.822000e+01,15,1,1,1,3.188721e-01,4,1,0,1.300000e+00,1
26,917,5,7.237000e+01,25,2,2,1,4.002736e-01,3,1,0,2.300000e+00,1
26,918,5,1.024200e+02,67,3,3,1,4.017753e-01,3,1,0,3.100000e+00,1
26,919,5,4.010000e+00,58,1,1,1,3.228332e-01,4,1,0,1.300000e+00,1
26,920,5,6.941000e+01,10,2,2,1,6.358266e-01,3,1,0,2.300000e+00,1
26,921,5,1.359000e+02,34,3,3,1,2.694125e-01,3,1,0,3.200000e+00,1
26,922,5,1.423000e+02,27,3,3,1,4.065900e-01,4,1,0,3.100000e+00,1
26,923,5,4.660000e+00,57,1,1,1,5.203612e-01,3,1,0,1.200000e+00,1
26,924,5,3.816000e+01,66,1,1,1,3.773735e-01,4,1,0,1.300000e+00,1
26,925,5,1.402800e+02,61,3,3,1,5.069308e-01,4,1,0,3.100000e+00,1
26,926,5,1.815000e+01,36,1,1,1,5.719741e-01,4,1,0,1.300000e+00,1
26,927,5,8.808000e+01,39,2,3,0,4.292583e-01,3,1,0,2.100000e+00,1
26,928,5,5.560000e+00,4,1,1,1,3.023883e-01,4,1,0,1.200000e+00,1
26,929,5,7.618000e+01,64,2,2,1,3.198869e-01,4,1,0,2.100000e+00,1
26,930,5,4.660000e+00,57,1,1,1,3.690470e-01,4,1,0,1.200000e+00,1
26,931,5,4.799000e+01,14,1,1,1,2.982932e-01,4,1,0,1.300000e+00,1
26,932,5,8.808000e+01,39,2,2,1,2.443068e-01,4,1,0,2.100000e+00,1
26,933,5,7.529000e+01,69,2,2,1,2.612111e-01,3,1,0,2.300000e+00,1
26,934,5,3.354000e+01,46,1,1,1,2.784205e-01,4,1,0,1.200000e+00,1
26,935,5,1.024200e+02,67,3,3,1,2.557824e-01,4,1,0,3.100000e+00,1
26,936,5,1.434000e+02,21,3,3,1,2.812872e-01,4,1,0,3.100000e+00,1
26,937,5,1.398000e+02,8,3,2,0,3.943182e-01,4,1,0,3.200000e+00,1
26,938,5,5.310000e+01,43,2,2,1,3.327812e-01,4,1,0,2.100000e+00,1
26,939,5,7.237000e+01,25,2,2,1,3.569400e-01,4,1,0,2.300000e+00,1
26,940,5,2.690000e+00,45,1,1,1,3.822700e-01,4,1,0,1.200000e+00,1
26,941,5,4.552000e+01,16,1,1,1,8.556787e-01,3,1,0,1.200000e+00,1
26,942,5,1.359000e+02,34,3,3,1,4.890199e-01,4,1,0,3.200000e+00,1
26,943,5,8.409000e+01,40,2,2,1,4.819591e-01,4,1,0,2.100000e+00,1
26,944,5,1.112900e+02,13,3,3,1,7.155857e-01,4,1,0,3.100000e+00,1
26,945,5,6.941000e+01,10,2,2,1,4.846715e-01,4,1,0,2.300000e+00,1
26,946,5,1.179500e+02,33,3,3,1,6.140107e-01,4,1,0,3.200000e+00,1
26,947,5,7.529000e+01,69,2,2,1,4.796766e-01,4,1,0,2.300000e+00,1
26,948,5,8.707000e+01,70,2,2,1,4.804795e-01,4,1,0,2.100000e+00,1
26,949,5,2.672000e+01,38,1,1,1,7.939675e-01,3,1,0,1.200000e+00,1
26,950,5,9.611000e+01,35,2,2,1,5.248231e-01,4,1,0,2.100000e+00,1
26,951,5,1.037800e+02,54,3,3,1,4.047992e-01,4,1,0,3.200000e+00,1
26,952,5,1.423000e+01,51,1,1,1,3.505058e-01,4,1,0,1.300000e+00,1
26,953,5,4.552000e+01,16,1,1,1,4.793623e-01,4,1,0,1.200000e+00,1
26,954,5,1.068600e+02,65,3,3,1,4.326858e-01,4,1,0,3.200000e+00,1
26,955,5,1.262400e+02,17,3,3,1,6.101298e-01,4,1,0,3.100000e+00,1
26,956,5,3.613000e+01,30,1,1,1,3.631770e-01,4,1,0,1.300000e+00,1
26,957,5,2.672000e+01,38,1,1,1,6.848316e-01,4,1,0,1.200000e+00,1
26,958,6,9,40,1,1,1,1.796982e+00,NaN,2,0,1,1
26,959,6,128,56,1,1,1,1.315523e+00,NaN,2,0,3,1
26,960,6,141,10,2,2,1,1.013759e+00,NaN,2,0,3,1
26,961,6,85,62,1,1,1,8.913527e-01,NaN,2,1,2,1
26,962,6,130,50,2,2,1,9.182864e-01,NaN,2,0,3,1
26,963,6,49,32,1,2,0,6.718682e-01,NaN,2,0,2,1
26,964,6,89,23,1,1,1,6.350686e-01,NaN,2,0,2,1
26,965,6,28,61,2,2,1,9.521049e-01,NaN,2,0,1,1
26,966,6,136,55,2,2,1,9.526881e-01,NaN,2,1,3,1
26,967,6,18,64,1,1,1,8.331767e-01,NaN,2,0,1,1
26,968,6,54,46,2,2,1,9.594301e-01,NaN,2,0,2,1
26,969,6,70,3,1,1,1,6.861890e-01,NaN,2,1,2,1
26,970,6,41,5,2,2,1,1.137027e+00,NaN,2,1,1,1
26,971,6,30,27,2,2,1,1.313676e+00,NaN,2,0,1,1
26,972,6,52,16,2,1,0,6.431249e-01,NaN,2,0,2,1
26,973,6,115,36,2,1,0,1.376260e+00,NaN,2,0,3,1
26,974,6,127,28,2,1,0,1.431248e+00,NaN,2,1,3,1
26,975,6,105,19,1,2,0,1.308425e+00,NaN,2,1,3,1
26,976,6,100,71,1,1,1,1.406707e+00,NaN,2,0,3,1
26,977,6,80,8,1,1,1,7.403775e-01,NaN,2,0,2,1
26,978,6,90,34,1,2,0,8.688305e-01,NaN,2,0,2,1
26,979,6,39,47,1,1,1,1.824866e+00,NaN,2,1,1,1
26,980,6,121,68,2,2,1,3.237669e+00,NaN,2,1,3,1
26,981,6,20,41,1,1,1,8.101202e-01,NaN,2,0,1,1
26,982,6,75,59,1,1,1,7.285183e-01,NaN,2,0,2,1
26,983,6,144,44,1,1,1,8.170926e-01,NaN,2,0,3,1
26,984,6,137,25,2,2,1,2.839029e+00,NaN,2,0,3,1
26,985,6,7,70,1,1,1,1.107525e+00,NaN,2,0,1,1
26,986,6,123,51,2,2,1,2.565048e+00,NaN,2,0,3,1
26,987,6,104,37,1,1,1,2.205096e+00,NaN,2,1,3,1
26,988,6,31,7,2,2,1,1.258820e+00,NaN,2,0,1,1
26,989,6,93,60,1,1,1,1.118462e+00,NaN,2,0,2,1
26,990,6,72,38,1,1,1,1.184463e+00,NaN,2,0,2,1
26,991,6,95,33,2,1,0,1.007774e+00,NaN,2,0,2,1
26,992,6,19,9,2,2,1,1.277120e+00,NaN,2,0,1,1
26,993,6,24,17,2,1,0,1.800585e+00,NaN,2,0,1,1
26,994,6,42,67,1,1,1,1.831025e+00,NaN,2,0,1,1
26,995,6,22,11,1,0,0,3.499939e+00,NaN,2,1,1,1
26,996,6,64,20,2,2,1,1.109616e+00,NaN,2,1,2,1
26,997,6,1,72,2,2,1,1.223752e+00,NaN,2,0,1,1
26,998,6,63,42,1,1,1,1.005180e+00,NaN,2,1,2,1
26,999,6,78,54,1,1,1,1.170834e+00,NaN,2,0,2,1
26,1000,6,99,14,1,1,1,1.314334e+00,NaN,2,0,3,1
26,1001,6,122,15,2,2,1,9.559722e-01,NaN,2,0,3,1
26,1002,6,116,66,1,1,1,1.132123e+00,NaN,2,0,3,1
26,1003,6,101,58,2,2,1,8.851661e-01,NaN,2,0,3,1
26,1004,6,113,30,1,1,1,1.047752e+00,NaN,2,0,3,1
26,1005,6,46,48,2,2,1,1.061593e+00,NaN,2,0,1,1
26,1006,6,133,49,1,2,0,1.072053e+00,NaN,2,0,3,1
26,1007,6,131,31,2,2,1,1.027635e+00,NaN,2,0,3,1
26,1008,6,66,57,2,2,1,9.053122e-01,NaN,2,0,2,1
26,1009,6,23,1,1,1,1,2.163085e+00,NaN,2,0,1,1
26,1010,6,8,39,1,1,1,1.298612e+00,NaN,2,0,1,1
26,1011,6,29,13,2,2,1,1.756990e+00,NaN,2,0,1,1
26,1012,6,25,18,1,1,1,2.988919e+00,NaN,2,1,1,1
26,1013,6,62,24,2,1,0,7.553062e-01,NaN,2,1,2,1
26,1014,6,129,69,1,1,1,1.939116e+00,NaN,2,0,3,1
26,1015,6,69,45,2,2,1,7.635551e-01,NaN,2,0,2,1
26,1016,6,79,53,2,2,1,9.953869e-01,NaN,2,0,2,1
26,1017,6,108,52,1,1,1,1.666055e+00,NaN,2,1,3,1
26,1018,6,124,63,2,2,1,1.173616e+00,NaN,2,1,3,1
26,1019,6,11,35,2,2,1,1.068691e+00,NaN,2,0,1,1
26,1020,6,10,43,1,1,1,2.496306e+00,NaN,2,0,1,1
26,1021,6,6,6,2,2,1,2.266615e+00,NaN,2,0,1,1
26,1022,6,86,65,1,1,1,1.078464e+00,NaN,2,0,2,1
26,1023,6,65,22,1,1,1,9.853227e-01,NaN,2,1,2,1
26,1024,6,81,29,2,2,1,6.727951e-01,NaN,2,0,2,1
26,1025,6,32,2,1,1,1,1.131912e+00,NaN,2,1,1,1
26,1026,6,132,12,1,1,1,1.388952e+00,NaN,2,0,3,1
26,1027,6,91,26,1,2,0,7.554463e-01,NaN,2,0,2,1
26,1028,6,40,21,1,1,1,2.523299e+00,NaN,2,0,1,1
26,1029,6,56,4,2,2,1,8.446043e-01,NaN,2,0,2,1
26,1030,6,26,38,2,2,1,2.480961e+00,NaN,1,0,1,1
26,1031,6,34,68,1,1,1,2.235766e+00,NaN,1,1,1,1
26,1032,6,117,33,2,2,1,2.384622e+00,NaN,1,0,3,1
26,1033,6,138,5,1,1,1,1.647461e+00,NaN,1,1,3,1
26,1034,6,37,66,2,1,0,2.243756e+00,NaN,1,0,1,1
26,1035,6,96,35,1,1,1,7.604596e-01,NaN,1,0,2,1
26,1036,6,17,36,2,2,1,1.800394e+00,NaN,1,0,1,1
26,1037,6,111,13,1,1,1,1.286456e+00,NaN,1,0,3,1
26,1038,6,35,30,1,1,1,1.897539e+00,NaN,1,0,1,1
26,1039,6,103,54,1,1,1,2.803844e+00,NaN,1,0,3,1
26,1040,6,53,43,1,1,1,6.973983e-01,NaN,1,0,2,1
26,1041,6,107,23,1,1,1,9.080626e-01,NaN,1,0,3,1
26,1042,6,43,22,2,2,1,1.693743e+00,NaN,1,1,1,1
26,1043,6,109,53,1,1,1,8.885229e-01,NaN,1,0,3,1
26,1044,6,84,40,2,2,1,1.027347e+00,NaN,1,0,2,1
26,1045,6,67,31,1,1,1,7.923119e-01,NaN,1,0,2,1
26,1046,6,4,57,2,2,1,9.992780e-01,NaN,1,0,1,1
26,1047,6,57,41,2,2,1,8.457534e-01,NaN,1,0,2,1
26,1048,6,33,46,2,1,0,1.034052e+00,NaN,1,0,1,1
26,1049,6,110,2,2,2,1,1.711069e+00,NaN,1,1,3,1
26,1050,6,120,29,2,2,1,1.896691e+00,NaN,1,0,3,1
26,1051,6,51,44,1,1,1,9.472666e-01,NaN,1,0,2,1
26,1052,6,59,63,2,2,1,2.707358e+00,NaN,1,1,2,1
26,1053,6,134,60,1,1,1,3.252982e+00,NaN,1,0,3,1
26,1054,6,44,32,1,1,1,1.353437e+00,NaN,1,0,1,1
26,1055,6,61,1,2,2,1,6.572036e-01,NaN,1,0,2,1
26,1056,6,106,65,1,1,1,1.269304e+00,NaN,1,0,3,1
26,1057,6,16,42,1,1,1,1.641240e+00,NaN,1,1,1,1
26,1058,6,5,4,2,2,1,1.293912e+00,NaN,1,0,1,1
26,1059,6,112,48,1,1,1,1.687968e+00,NaN,1,0,3,1
26,1060,6,142,27,2,2,1,1.058884e+00,NaN,1,0,3,1
26,1061,6,139,8,1,1,1,9.353048e-01,NaN,1,0,3,1
26,1062,6,47,14,1,1,1,8.322781e-01,NaN,1,0,1,1
26,1063,6,126,17,2,1,0,1.253056e+00,NaN,1,0,3,1
26,1064,6,102,67,1,1,1,1.057466e+00,NaN,1,0,3,1
26,1065,6,14,52,2,0,0,3.500097e+00,NaN,1,1,1,1
26,1066,6,36,71,2,2,1,1.206908e+00,NaN,1,0,1,1
26,1067,6,114,59,1,1,1,1.053268e+00,NaN,1,0,3,1
26,1068,6,58,28,1,1,1,9.133624e-01,NaN,1,1,2,1
26,1069,6,27,15,1,1,1,2.019112e+00,NaN,1,0,1,1
26,1070,6,119,62,1,1,1,1.192502e+00,NaN,1,1,3,1
26,1071,6,13,51,2,1,0,1.351054e+00,NaN,1,0,1,1
26,1072,6,73,50,1,1,1,1.279697e+00,NaN,1,0,2,1
26,1073,6,88,39,2,2,1,8.664474e-01,NaN,1,0,2,1
26,1074,6,77,72,1,1,1,8.142175e-01,NaN,1,0,2,1
26,1075,6,98,7,1,1,1,1.443505e+00,NaN,1,0,3,1
26,1076,6,143,21,1,1,1,7.685781e-01,NaN,1,0,3,1
26,1077,6,45,16,2,2,1,2.128086e+00,NaN,1,0,1,1
26,1078,6,140,61,2,2,1,1.113355e+00,NaN,1,0,3,1
26,1079,6,71,25,1,1,1,9.150548e-01,NaN,1,0,2,1
26,1080,6,94,9,1,1,1,1.252745e+00,NaN,1,0,2,1
26,1081,6,3,58,2,2,1,1.560698e+00,NaN,1,0,1,1
26,1082,6,82,12,2,1,0,7.208807e-01,NaN,1,0,2,1
26,1083,6,92,55,2,2,1,1.458114e+00,NaN,1,1,2,1
26,1084,6,60,49,2,2,1,1.662305e+00,NaN,1,0,2,1
26,1085,6,83,56,2,2,1,9.057085e-01,NaN,1,0,2,1
26,1086,6,38,24,2,2,1,1.507862e+00,NaN,1,1,1,1
26,1087,6,125,26,2,2,1,1.413590e+00,NaN,1,0,3,1
26,1088,6,12,3,2,0,0,3.499837e+00,NaN,1,1,1,1
26,1089,6,74,69,2,2,1,1.125390e+00,NaN,1,0,2,1
26,1090,6,55,6,1,1,1,1.438928e+00,NaN,1,0,2,1
26,1091,6,15,37,1,1,1,1.483452e+00,NaN,1,1,1,1
26,1092,6,135,34,2,2,1,1.006647e+00,NaN,1,0,3,1
26,1093,6,50,11,1,1,1,1.172467e+00,NaN,1,1,2,1
26,1094,6,48,19,2,2,1,1.267848e+00,NaN,1,1,1,1
26,1095,6,97,18,2,1,0,3.263383e+00,NaN,1,1,3,1
26,1096,6,87,70,1,1,1,1.666818e+00,NaN,1,0,2,1
26,1097,6,2,45,1,1,1,8.225143e-01,NaN,1,0,1,1
26,1098,6,118,47,1,2,0,1.787878e+00,NaN,1,1,3,1
26,1099,6,68,10,2,2,1,8.102612e-01,NaN,1,0,2,1
26,1100,6,21,20,2,2,1,1.376142e+00,NaN,1,1,1,1
26,1101,6,76,64,2,2,1,8.878323e-01,NaN,1,0,2,1
