Subject,Trial,Cond,ImageNum,CueNum,Correct,Resp,Accuracy,RT,CueRep,ImageType,Baseline,Category,Block
34,1,1,84,NaN,NaN,1,NaN,6.525803e+00,NaN,0,0,2,1
34,2,1,24,NaN,NaN,1,NaN,8.481289e-01,NaN,1,0,1,1
34,3,1,102,NaN,NaN,2,NaN,1.204358e-04,NaN,2,1,3,1
34,4,1,94,NaN,NaN,1,NaN,2.969199e-01,NaN,1,0,2,1
34,5,1,115,NaN,NaN,2,NaN,7.419154e-01,NaN,0,0,3,1
34,6,1,110,NaN,NaN,2,NaN,5.460032e-01,NaN,0,0,3,1
34,7,1,89,NaN,NaN,1,NaN,1.255674e-04,NaN,2,0,2,1
34,8,1,36,NaN,NaN,2,NaN,1.486964e+00,NaN,1,0,1,1
34,9,1,13,NaN,NaN,1,NaN,1.988882e+00,NaN,0,1,1,1
34,10,1,71,NaN,NaN,1,NaN,4.628176e-01,NaN,0,0,2,1
34,11,1,91,NaN,NaN,1,NaN,6.854847e-01,NaN,0,0,2,1
34,12,1,44,NaN,NaN,1,NaN,7.319899e-01,NaN,0,0,1,1
34,13,1,124,NaN,NaN,2,NaN,4.878411e-01,NaN,2,0,3,1
34,14,1,17,NaN,NaN,1,NaN,8.775835e-01,NaN,0,0,1,1
34,15,1,123,NaN,NaN,1,NaN,9.004328e-01,NaN,1,0,3,1
34,16,1,71,NaN,NaN,1,NaN,9.455863e-01,NaN,1,0,2,1
34,17,1,76,NaN,NaN,1,NaN,2.509053e+00,NaN,1,0,2,1
34,18,1,111,NaN,NaN,1,NaN,1.746590e+00,NaN,0,1,3,1
34,19,1,17,NaN,NaN,1,NaN,7.499562e-01,NaN,2,0,1,1
34,20,1,23,NaN,NaN,1,NaN,9.612411e-01,NaN,2,1,1,1
34,21,1,66,NaN,NaN,1,NaN,5.001017e-01,NaN,2,0,2,1
34,22,1,5,NaN,NaN,1,NaN,4.494320e-01,NaN,0,0,1,1
34,23,1,22,NaN,NaN,2,NaN,7.530314e-01,NaN,0,0,1,1
34,24,1,97,NaN,NaN,2,NaN,1.812150e+00,NaN,2,0,3,1
34,25,1,79,NaN,NaN,1,NaN,6.608277e-01,NaN,2,1,2,1
34,26,1,41,NaN,NaN,1,NaN,8.763873e-01,NaN,1,0,1,1
34,27,1,25,NaN,NaN,1,NaN,5.867690e-01,NaN,0,0,1,1
34,28,1,32,NaN,NaN,1,NaN,8.050144e-01,NaN,1,1,1,1
34,29,1,27,NaN,NaN,1,NaN,9.824103e-01,NaN,2,1,1,1
34,30,1,78,NaN,NaN,1,NaN,6.087695e-01,NaN,0,0,2,1
34,31,1,64,NaN,NaN,1,NaN,1.561823e+00,NaN,0,0,2,1
34,32,1,19,NaN,NaN,1,NaN,1.148394e+00,NaN,2,0,1,1
34,33,1,56,NaN,NaN,1,NaN,6.238116e-01,NaN,1,1,2,1
34,34,1,34,NaN,NaN,1,NaN,1.016427e+00,NaN,0,0,1,1
34,35,1,70,NaN,NaN,1,NaN,6.091873e-01,NaN,0,0,2,1
34,36,1,114,NaN,NaN,1,NaN,1.002536e+00,NaN,2,0,3,1
34,37,1,28,NaN,NaN,2,NaN,7.883279e-01,NaN,2,0,1,1
34,38,1,120,NaN,NaN,2,NaN,4.857937e-01,NaN,0,0,3,1
34,39,1,75,NaN,NaN,1,NaN,5.481115e-01,NaN,2,1,2,1
34,40,1,95,NaN,NaN,1,NaN,5.594225e-01,NaN,0,0,2,1
34,41,1,125,NaN,NaN,1,NaN,9.148422e-01,NaN,1,0,3,1
34,42,1,83,NaN,NaN,1,NaN,7.915446e-01,NaN,0,0,2,1
34,43,1,69,NaN,NaN,1,NaN,1.233401e+00,NaN,0,0,2,1
34,44,1,6,NaN,NaN,1,NaN,7.535421e-01,NaN,0,0,1,1
34,45,1,142,NaN,NaN,1,NaN,2.517034e+00,NaN,2,0,3,1
34,46,1,138,NaN,NaN,1,NaN,1.689597e+00,NaN,1,0,3,1
34,47,1,12,NaN,NaN,1,NaN,7.757286e-01,NaN,0,0,1,1
34,48,1,112,NaN,NaN,1,NaN,1.058580e+00,NaN,2,1,3,1
34,49,1,100,NaN,NaN,2,NaN,1.929789e+00,NaN,2,1,3,1
34,50,1,86,NaN,NaN,1,NaN,1.429993e+00,NaN,0,0,2,1
34,51,1,38,NaN,NaN,1,NaN,7.419347e-01,NaN,1,1,1,1
34,52,1,80,NaN,NaN,1,NaN,1.810051e+00,NaN,0,0,2,1
34,53,1,109,NaN,NaN,1,NaN,9.476195e-01,NaN,0,0,3,1
34,54,1,14,NaN,NaN,1,NaN,9.828061e-01,NaN,2,0,1,1
34,55,1,8,NaN,NaN,1,NaN,6.810066e-01,NaN,0,0,1,1
34,56,1,43,NaN,NaN,1,NaN,7.987868e-01,NaN,0,0,1,1
34,57,1,16,NaN,NaN,1,NaN,8.724696e-01,NaN,1,0,1,1
34,58,1,48,NaN,NaN,1,NaN,8.711605e-01,NaN,0,0,1,1
34,59,1,95,NaN,NaN,1,NaN,7.176239e-01,NaN,1,0,2,1
34,60,1,74,NaN,NaN,1,NaN,5.383034e-01,NaN,0,0,2,1
34,61,1,132,NaN,NaN,2,NaN,3.663135e-01,NaN,2,0,3,1
34,62,1,9,NaN,NaN,1,NaN,6.175028e-01,NaN,0,1,1,1
34,63,1,138,NaN,NaN,1,NaN,4.497608e-01,NaN,0,0,3,1
34,64,1,131,NaN,NaN,2,NaN,6.651084e-01,NaN,2,0,3,1
34,65,1,108,NaN,NaN,2,NaN,6.081173e-01,NaN,2,1,3,1
34,66,1,10,NaN,NaN,1,NaN,8.172177e-01,NaN,0,0,1,1
34,67,1,59,NaN,NaN,1,NaN,5.057900e-01,NaN,1,0,2,1
34,68,1,37,NaN,NaN,2,NaN,8.392490e-01,NaN,2,1,1,1
34,69,1,44,NaN,NaN,1,NaN,6.073346e-01,NaN,2,0,1,1
34,70,1,99,NaN,NaN,2,NaN,3.052046e-01,NaN,0,0,3,1
34,71,1,137,NaN,NaN,1,NaN,8.220644e-01,NaN,0,0,3,1
34,72,1,24,NaN,NaN,1,NaN,4.785802e-01,NaN,0,0,1,1
34,73,1,72,NaN,NaN,1,NaN,5.091187e-01,NaN,1,0,2,1
34,74,1,61,NaN,NaN,1,NaN,1.034308e+00,NaN,0,0,2,1
34,75,1,47,NaN,NaN,1,NaN,5.151571e-01,NaN,0,0,1,1
34,76,1,136,NaN,NaN,1,NaN,9.432880e-01,NaN,0,0,3,1
34,77,1,20,NaN,NaN,1,NaN,1.363209e+00,NaN,2,0,1,1
34,78,1,84,NaN,NaN,1,NaN,1.252657e-04,NaN,1,0,2,1
34,79,1,113,NaN,NaN,1,NaN,2.152285e-01,NaN,0,0,3,1
34,80,1,93,NaN,NaN,1,NaN,4.960990e-01,NaN,1,0,2,1
34,81,1,56,NaN,NaN,1,NaN,6.616083e-01,NaN,0,1,2,1
34,82,1,139,NaN,NaN,1,NaN,1.115760e+00,NaN,1,0,3,1
34,83,1,102,NaN,NaN,2,NaN,1.248708e+00,NaN,0,1,3,1
34,84,1,52,NaN,NaN,1,NaN,6.078860e-01,NaN,2,0,2,1
34,85,1,2,NaN,NaN,1,NaN,4.413610e-01,NaN,0,0,1,1
34,86,1,29,NaN,NaN,1,NaN,1.489383e+00,NaN,1,1,1,1
34,87,1,130,NaN,NaN,2,NaN,8.873346e-01,NaN,1,1,3,1
34,88,1,104,NaN,NaN,2,NaN,7.495596e-01,NaN,0,0,3,1
34,89,1,74,NaN,NaN,1,NaN,1.620902e-04,NaN,2,0,2,1
34,90,1,37,NaN,NaN,2,NaN,5.627812e-01,NaN,0,1,1,1
34,91,1,47,NaN,NaN,1,NaN,5.568874e-01,NaN,2,0,1,1
34,92,1,53,NaN,NaN,1,NaN,8.241538e-01,NaN,0,0,2,1
34,93,1,16,NaN,NaN,1,NaN,1.200901e+00,NaN,0,0,1,1
34,94,1,77,NaN,NaN,1,NaN,3.144214e-01,NaN,0,0,2,1
34,95,1,127,NaN,NaN,1,NaN,1.727130e+00,NaN,0,0,3,1
34,96,1,40,NaN,NaN,1,NaN,7.478998e-01,NaN,1,0,1,1
34,97,1,73,NaN,NaN,1,NaN,4.074404e-01,NaN,0,0,2,1
34,98,1,105,NaN,NaN,2,NaN,6.004987e-01,NaN,1,0,3,1
34,99,1,18,NaN,NaN,1,NaN,6.499755e-01,NaN,0,1,1,1
34,100,1,129,NaN,NaN,2,NaN,1.121148e+00,NaN,1,1,3,1
34,101,1,131,NaN,NaN,2,NaN,3.125816e+00,NaN,0,0,3,1
34,102,1,96,NaN,NaN,1,NaN,5.468873e-01,NaN,1,1,2,1
34,103,1,72,NaN,NaN,1,NaN,5.983897e-01,NaN,0,0,2,1
34,104,1,5,NaN,NaN,1,NaN,4.236235e-01,NaN,2,0,1,1
34,105,1,106,NaN,NaN,1,NaN,7.122239e-01,NaN,1,1,3,1
34,106,1,42,NaN,NaN,2,NaN,5.011612e-01,NaN,2,0,1,1
34,107,1,81,NaN,NaN,1,NaN,3.546258e-01,NaN,2,1,2,1
34,108,1,98,NaN,NaN,1,NaN,5.897841e-01,NaN,0,0,3,1
34,109,1,78,NaN,NaN,1,NaN,3.120869e-01,NaN,1,0,2,1
34,110,1,142,NaN,NaN,1,NaN,3.242443e-01,NaN,0,0,3,1
34,111,1,141,NaN,NaN,1,NaN,3.929839e-01,NaN,0,0,3,1
34,112,1,81,NaN,NaN,1,NaN,4.431682e-01,NaN,0,1,2,1
34,113,1,100,NaN,NaN,2,NaN,1.231525e-04,NaN,0,1,3,1
34,114,1,79,NaN,NaN,1,NaN,3.488476e-01,NaN,0,1,2,1
34,115,1,69,NaN,NaN,1,NaN,4.398829e-01,NaN,2,0,2,1
34,116,1,11,NaN,NaN,1,NaN,3.521800e-01,NaN,0,0,1,1
34,117,1,11,NaN,NaN,1,NaN,5.553715e-01,NaN,1,0,1,1
34,118,1,119,NaN,NaN,2,NaN,3.586403e-01,NaN,0,0,3,1
34,119,1,43,NaN,NaN,1,NaN,3.699674e-01,NaN,2,0,1,1
34,120,1,63,NaN,NaN,1,NaN,3.489186e-01,NaN,2,0,2,1
34,121,1,15,NaN,NaN,1,NaN,7.200320e-01,NaN,0,1,1,1
34,122,1,40,NaN,NaN,1,NaN,5.968657e-01,NaN,0,0,1,1
34,123,1,137,NaN,NaN,1,NaN,3.340238e-01,NaN,1,0,3,1
34,124,1,90,NaN,NaN,1,NaN,6.585295e-01,NaN,0,0,2,1
34,125,1,87,NaN,NaN,1,NaN,5.296978e-01,NaN,0,0,2,1
34,126,1,45,NaN,NaN,2,NaN,1.277860e+00,NaN,2,0,1,1
34,127,1,103,NaN,NaN,1,NaN,3.236557e-01,NaN,2,0,3,1
34,128,1,28,NaN,NaN,2,NaN,6.644764e-01,NaN,0,0,1,1
34,129,1,87,NaN,NaN,1,NaN,3.111071e-01,NaN,1,0,2,1
34,130,1,140,NaN,NaN,2,NaN,3.887143e-01,NaN,0,1,3,1
34,131,1,92,NaN,NaN,1,NaN,2.866750e-01,NaN,0,0,2,1
34,132,1,144,NaN,NaN,1,NaN,7.327101e-01,NaN,0,0,3,1
34,133,1,132,NaN,NaN,2,NaN,4.965288e-01,NaN,0,0,3,1
34,134,1,126,NaN,NaN,2,NaN,5.259188e-01,NaN,1,1,3,1
34,135,1,116,NaN,NaN,1,NaN,5.155507e-01,NaN,0,1,3,1
34,136,1,12,NaN,NaN,1,NaN,6.394215e-01,NaN,1,0,1,1
34,137,1,38,NaN,NaN,1,NaN,3.278462e-01,NaN,0,1,1,1
34,138,1,97,NaN,NaN,2,NaN,3.474407e-01,NaN,0,0,3,1
34,139,1,110,NaN,NaN,2,NaN,7.829867e-01,NaN,1,0,3,1
34,140,1,1,NaN,NaN,1,NaN,4.647419e-01,NaN,2,0,1,1
34,141,1,33,NaN,NaN,1,NaN,6.076461e-01,NaN,0,0,1,1
34,142,1,129,NaN,NaN,2,NaN,2.888869e-01,NaN,0,1,3,1
34,143,1,122,NaN,NaN,2,NaN,1.710842e+00,NaN,0,1,3,1
34,144,1,88,NaN,NaN,1,NaN,1.572500e+00,NaN,1,0,2,1
34,145,1,23,NaN,NaN,1,NaN,3.433043e-01,NaN,0,1,1,1
34,146,1,2,NaN,NaN,1,NaN,3.310986e-01,NaN,1,0,1,1
34,147,1,101,NaN,NaN,2,NaN,6.872031e-01,NaN,2,0,3,1
34,148,1,128,NaN,NaN,1,NaN,1.197285e+00,NaN,0,0,3,1
34,149,1,140,NaN,NaN,2,NaN,1.982697e+00,NaN,2,1,3,1
34,150,1,21,NaN,NaN,1,NaN,8.063163e-02,NaN,0,0,1,1
34,151,1,128,NaN,NaN,1,NaN,2.868624e-01,NaN,2,0,3,1
34,152,1,122,NaN,NaN,2,NaN,2.484693e+00,NaN,1,1,3,1
34,153,1,46,NaN,NaN,2,NaN,5.628696e-01,NaN,1,1,1,1
34,154,1,49,NaN,NaN,1,NaN,5.903244e-01,NaN,2,1,2,1
34,155,1,143,NaN,NaN,2,NaN,6.719223e-01,NaN,0,0,3,1
34,156,1,26,NaN,NaN,1,NaN,3.104766e-01,NaN,2,0,1,1
34,157,1,46,NaN,NaN,2,NaN,2.194045e-01,NaN,0,1,1,1
34,158,1,68,NaN,NaN,1,NaN,3.962851e-01,NaN,0,1,2,1
34,159,1,82,NaN,NaN,1,NaN,1.173630e+00,NaN,0,0,2,1
34,160,1,55,NaN,NaN,1,NaN,4.883198e-01,NaN,1,0,2,1
34,161,1,68,NaN,NaN,1,NaN,3.106909e-01,NaN,2,1,2,1
34,162,1,31,NaN,NaN,1,NaN,8.117320e-01,NaN,2,0,1,1
34,163,1,58,NaN,NaN,1,NaN,2.766601e-01,NaN,1,0,2,1
34,164,1,8,NaN,NaN,1,NaN,3.391614e-01,NaN,1,0,1,1
34,165,1,85,NaN,NaN,1,NaN,3.671605e-01,NaN,2,0,2,1
34,166,1,104,NaN,NaN,2,NaN,2.980370e-01,NaN,1,0,3,1
34,167,1,134,NaN,NaN,2,NaN,3.596856e-01,NaN,0,0,3,1
34,168,1,111,NaN,NaN,1,NaN,1.282832e-04,NaN,2,1,3,1
34,169,1,101,NaN,NaN,2,NaN,2.842533e-01,NaN,0,0,3,1
34,170,1,41,NaN,NaN,1,NaN,8.819379e-01,NaN,0,0,1,1
34,171,1,73,NaN,NaN,1,NaN,1.267744e-04,NaN,2,0,2,1
34,172,1,133,NaN,NaN,2,NaN,1.409722e+00,NaN,1,0,3,1
34,173,1,31,NaN,NaN,1,NaN,3.390603e-01,NaN,0,0,1,1
34,174,1,32,NaN,NaN,1,NaN,4.309661e-01,NaN,0,1,1,1
34,175,1,115,NaN,NaN,2,NaN,9.508359e-01,NaN,1,0,3,1
34,176,1,55,NaN,NaN,1,NaN,4.027473e-01,NaN,0,0,2,1
34,177,1,126,NaN,NaN,2,NaN,1.187870e+00,NaN,0,1,3,1
34,178,1,67,NaN,NaN,1,NaN,9.818420e-01,NaN,2,1,2,1
34,179,1,65,NaN,NaN,1,NaN,6.716886e-01,NaN,0,0,2,1
34,180,1,51,NaN,NaN,1,NaN,1.502377e+00,NaN,0,1,2,1
34,181,1,59,NaN,NaN,1,NaN,6.598998e-01,NaN,0,0,2,1
34,182,1,65,NaN,NaN,1,NaN,3.274707e-03,NaN,1,0,2,1
34,183,1,117,NaN,NaN,2,NaN,1.580485e+00,NaN,2,0,3,1
34,184,1,29,NaN,NaN,1,NaN,3.186375e-01,NaN,0,1,1,1
34,185,1,116,NaN,NaN,1,NaN,3.537945e-02,NaN,1,1,3,1
34,186,1,114,NaN,NaN,1,NaN,3.553327e-01,NaN,0,0,3,1
34,187,1,123,NaN,NaN,1,NaN,5.826190e-01,NaN,0,0,3,1
34,188,1,61,NaN,NaN,1,NaN,3.611049e-01,NaN,1,0,2,1
34,189,1,54,NaN,NaN,1,NaN,3.807574e-01,NaN,0,0,2,1
34,190,1,54,NaN,NaN,1,NaN,3.582428e-01,NaN,2,0,2,1
34,191,1,88,NaN,NaN,1,NaN,3.693036e-01,NaN,0,0,2,1
34,192,1,18,NaN,NaN,1,NaN,4.924433e-01,NaN,2,1,1,1
34,193,1,112,NaN,NaN,1,NaN,7.306104e-01,NaN,0,1,3,1
34,194,1,141,NaN,NaN,1,NaN,5.182987e-01,NaN,2,0,3,1
34,195,1,39,NaN,NaN,2,NaN,7.230154e-01,NaN,0,1,1,1
34,196,1,107,NaN,NaN,1,NaN,2.398131e-01,NaN,0,0,3,1
34,197,1,7,NaN,NaN,1,NaN,5.683801e-01,NaN,1,0,1,1
34,198,1,42,NaN,NaN,1,NaN,5.063870e-01,NaN,0,0,1,1
34,199,1,135,NaN,NaN,1,NaN,4.798093e-01,NaN,0,0,3,1
34,200,1,22,NaN,NaN,2,NaN,6.459827e-01,NaN,1,0,1,1
34,201,1,125,NaN,NaN,1,NaN,5.414698e-01,NaN,0,0,3,1
34,202,1,133,NaN,NaN,2,NaN,3.131699e-01,NaN,0,0,3,1
34,203,1,80,NaN,NaN,1,NaN,3.420444e-01,NaN,1,0,2,1
34,204,1,26,NaN,NaN,1,NaN,5.311192e-01,NaN,0,0,1,1
34,205,1,33,NaN,NaN,1,NaN,3.503529e-01,NaN,2,0,1,1
34,206,1,60,NaN,NaN,1,NaN,1.009488e+00,NaN,2,0,2,1
34,207,1,136,NaN,NaN,1,NaN,4.109665e-01,NaN,2,0,3,1
34,208,1,52,NaN,NaN,1,NaN,4.202627e-01,NaN,0,0,2,1
34,209,1,91,NaN,NaN,1,NaN,5.329937e-01,NaN,2,0,2,1
34,210,1,90,NaN,NaN,1,NaN,4.090127e-01,NaN,2,0,2,1
34,211,1,92,NaN,NaN,1,NaN,3.223964e-01,NaN,1,0,2,1
34,212,1,143,NaN,NaN,2,NaN,4.633730e-01,NaN,1,0,3,1
34,213,1,144,NaN,NaN,1,NaN,3.336715e-01,NaN,2,0,3,1
34,214,1,103,NaN,NaN,1,NaN,3.938628e-01,NaN,0,0,3,1
34,215,1,1,NaN,NaN,1,NaN,3.158642e-01,NaN,0,0,1,1
34,216,1,76,NaN,NaN,1,NaN,5.208227e-01,NaN,0,0,2,1
34,217,1,13,NaN,NaN,1,NaN,4.292538e-01,NaN,1,1,1,1
34,218,1,83,NaN,NaN,1,NaN,4.615167e-01,NaN,2,0,2,1
34,219,1,36,NaN,NaN,2,NaN,1.892127e+00,NaN,0,0,1,1
34,220,1,130,NaN,NaN,2,NaN,2.741487e-01,NaN,0,1,3,1
34,221,1,50,NaN,NaN,1,NaN,6.326258e-01,NaN,0,1,2,1
34,222,1,60,NaN,NaN,1,NaN,3.850614e-01,NaN,0,0,2,1
34,223,1,53,NaN,NaN,1,NaN,3.950642e-01,NaN,2,0,2,1
34,224,1,21,NaN,NaN,1,NaN,3.964077e-01,NaN,2,0,1,1
34,225,1,14,NaN,NaN,1,NaN,6.454484e-01,NaN,0,0,1,1
34,226,1,3,NaN,NaN,2,NaN,4.771317e-01,NaN,1,0,1,1
34,227,1,82,NaN,NaN,1,NaN,3.474914e-01,NaN,2,0,2,1
34,228,1,99,NaN,NaN,2,NaN,4.232057e-01,NaN,2,0,3,1
34,229,1,3,NaN,NaN,2,NaN,2.718653e-01,NaN,0,0,1,1
34,230,1,121,NaN,NaN,2,NaN,1.238602e+00,NaN,0,0,3,1
34,231,1,25,NaN,NaN,1,NaN,3.267230e-01,NaN,1,0,1,1
34,232,1,85,NaN,NaN,1,NaN,2.673461e-01,NaN,0,0,2,1
34,233,1,30,NaN,NaN,1,NaN,6.498321e-01,NaN,1,1,1,1
34,234,1,94,NaN,NaN,1,NaN,4.655261e-01,NaN,0,0,2,1
34,235,1,98,NaN,NaN,1,NaN,2.642784e-01,NaN,1,0,3,1
34,236,1,9,NaN,NaN,1,NaN,5.345086e-01,NaN,2,1,1,1
34,237,1,27,NaN,NaN,1,NaN,3.945879e-01,NaN,0,1,1,1
34,238,1,4,NaN,NaN,1,NaN,5.319750e-01,NaN,2,0,1,1
34,239,1,120,NaN,NaN,2,NaN,4.720845e-01,NaN,1,0,3,1
34,240,1,134,NaN,NaN,2,NaN,4.629933e-01,NaN,2,0,3,1
34,241,1,45,NaN,NaN,2,NaN,5.494475e-01,NaN,0,0,1,1
34,242,1,34,NaN,NaN,1,NaN,6.168049e-01,NaN,1,0,1,1
34,243,1,86,NaN,NaN,1,NaN,2.895253e-01,NaN,2,0,2,1
34,244,1,62,NaN,NaN,1,NaN,4.157402e-01,NaN,1,0,2,1
34,245,1,57,NaN,NaN,1,NaN,4.482509e-01,NaN,2,0,2,1
34,246,1,139,NaN,NaN,1,NaN,4.636860e-01,NaN,0,0,3,1
34,247,1,96,NaN,NaN,1,NaN,3.585453e-01,NaN,0,1,2,1
34,248,1,4,NaN,NaN,1,NaN,4.900645e-01,NaN,0,0,1,1
34,249,1,108,NaN,NaN,2,NaN,5.039777e-01,NaN,0,1,3,1
34,250,1,67,NaN,NaN,1,NaN,3.009884e-01,NaN,0,1,2,1
34,251,1,70,NaN,NaN,1,NaN,2.904664e-01,NaN,1,0,2,1
34,252,1,124,NaN,NaN,2,NaN,4.965496e-01,NaN,0,0,3,1
34,253,1,64,NaN,NaN,1,NaN,7.259934e-01,NaN,1,0,2,1
34,254,1,117,NaN,NaN,2,NaN,4.586419e-01,NaN,0,0,3,1
34,255,1,105,NaN,NaN,2,NaN,4.503536e-01,NaN,0,0,3,1
34,256,1,107,NaN,NaN,1,NaN,4.493382e-01,NaN,2,0,3,1
34,257,1,35,NaN,NaN,2,NaN,8.806490e-01,NaN,1,1,1,1
34,258,1,57,NaN,NaN,1,NaN,3.270183e-01,NaN,0,0,2,1
34,259,1,7,NaN,NaN,1,NaN,3.874797e-01,NaN,0,0,1,1
34,260,1,50,NaN,NaN,1,NaN,3.495144e-01,NaN,1,1,2,1
34,261,1,66,NaN,NaN,1,NaN,4.810351e-01,NaN,0,0,2,1
34,262,1,135,NaN,NaN,1,NaN,6.228859e-01,NaN,1,0,3,1
34,263,1,19,NaN,NaN,1,NaN,3.682109e-01,NaN,0,0,1,1
34,264,1,75,NaN,NaN,1,NaN,3.063637e-01,NaN,0,1,2,1
34,265,1,109,NaN,NaN,1,NaN,2.636917e-01,NaN,1,0,3,1
34,266,1,30,NaN,NaN,1,NaN,3.185147e-01,NaN,0,1,1,1
34,267,1,58,NaN,NaN,1,NaN,3.471826e-01,NaN,0,0,2,1
34,268,1,20,NaN,NaN,1,NaN,4.143502e-01,NaN,0,0,1,1
34,269,1,15,NaN,NaN,1,NaN,4.313048e-01,NaN,1,1,1,1
34,270,1,39,NaN,NaN,2,NaN,3.353893e-01,NaN,2,1,1,1
34,271,1,62,NaN,NaN,1,NaN,2.675353e-01,NaN,0,0,2,1
34,272,1,77,NaN,NaN,1,NaN,3.379447e-01,NaN,2,0,2,1
34,273,1,118,NaN,NaN,1,NaN,1.062206e+00,NaN,0,0,3,1
34,274,1,6,NaN,NaN,1,NaN,8.127709e-01,NaN,2,0,1,1
34,275,1,63,NaN,NaN,1,NaN,4.057531e-01,NaN,0,0,2,1
34,276,1,10,NaN,NaN,1,NaN,5.911787e-01,NaN,1,0,1,1
34,277,1,93,NaN,NaN,1,NaN,2.968372e-01,NaN,0,0,2,1
34,278,1,127,NaN,NaN,1,NaN,4.383405e-01,NaN,1,0,3,1
34,279,1,121,NaN,NaN,2,NaN,5.342792e-01,NaN,2,0,3,1
34,280,1,49,NaN,NaN,1,NaN,4.104380e-01,NaN,0,1,2,1
34,281,1,48,NaN,NaN,1,NaN,5.639623e-01,NaN,1,0,1,1
34,282,1,119,NaN,NaN,2,NaN,5.266510e-01,NaN,1,0,3,1
34,283,1,89,NaN,NaN,1,NaN,2.829279e-01,NaN,0,0,2,1
34,284,1,113,NaN,NaN,1,NaN,3.775551e-01,NaN,1,0,3,1
34,285,1,35,NaN,NaN,2,NaN,3.477815e-01,NaN,0,1,1,1
34,286,1,51,NaN,NaN,1,NaN,3.031526e-01,NaN,1,1,2,1
34,287,1,106,NaN,NaN,1,NaN,4.205284e-01,NaN,0,1,3,1
34,288,1,118,NaN,NaN,1,NaN,8.132635e-01,NaN,2,0,3,1
34,382,2,3,12,1,1,1,2.644827e+00,NaN,1,0,1,1
34,383,2,72,70,2,2,1,8.974104e-01,NaN,1,0,2,1
34,384,2,11,69,1,1,1,2.426585e+00,NaN,1,0,1,1
34,385,2,105,31,2,0,0,3.500112e+00,NaN,1,0,3,1
34,386,2,56,51,1,1,1,8.410510e-01,NaN,1,1,2,1
34,387,2,65,26,1,1,1,1.492950e+00,NaN,1,0,2,1
34,388,2,122,30,1,1,1,1.038968e+00,NaN,1,1,3,1
34,389,2,24,36,2,0,0,3.499600e+00,NaN,1,0,1,1
34,390,2,104,48,2,2,1,1.276614e+00,NaN,1,0,3,1
34,391,2,138,41,1,1,1,9.751573e-01,NaN,1,0,3,1
34,392,2,137,43,1,1,1,1.062264e+00,NaN,1,0,3,1
34,393,2,116,4,1,1,1,1.281235e+00,NaN,1,1,3,1
34,394,2,58,72,2,2,1,8.270131e-01,NaN,1,0,2,1
34,395,2,48,28,2,1,0,1.511871e+00,NaN,1,0,1,1
34,396,2,62,35,2,2,1,6.095341e-01,NaN,1,0,2,1
34,397,2,98,64,2,2,1,1.934686e+00,NaN,1,0,3,1
34,398,2,115,46,1,1,1,1.598684e+00,NaN,1,0,3,1
34,399,2,38,16,2,1,0,1.292268e+00,NaN,1,1,1,1
34,400,2,135,29,1,1,1,1.534008e+00,NaN,1,0,3,1
34,401,2,76,50,1,1,1,7.824492e-01,NaN,1,0,2,1
34,402,2,40,11,2,2,1,1.052259e+00,NaN,1,0,1,1
34,403,2,51,17,2,2,1,6.719902e-01,NaN,1,1,2,1
34,404,2,12,45,2,2,1,1.338560e+00,NaN,1,0,1,1
34,405,2,41,15,2,2,1,2.322898e+00,NaN,1,0,1,1
34,406,3,98,64,2,2,1,1.541094e+00,NaN,1,0,3,1
34,407,3,138,41,2,2,1,1.077147e+00,NaN,1,0,3,1
34,408,3,122,30,1,1,1,1.400033e+00,NaN,1,1,3,1
34,409,3,40,11,1,1,1,2.013210e+00,NaN,1,0,1,1
34,410,3,24,36,1,1,1,1.930267e+00,NaN,1,0,1,1
34,411,3,11,69,2,2,1,8.821012e-01,NaN,1,0,1,1
34,412,3,105,31,1,2,0,1.676418e+00,NaN,1,0,3,1
34,413,3,72,70,2,2,1,4.551324e-01,NaN,1,0,2,1
34,414,3,48,28,1,1,1,1.498342e+00,NaN,1,0,1,1
34,415,3,115,46,1,1,1,2.308042e+00,NaN,1,0,3,1
34,416,3,51,17,1,1,1,1.005553e+00,NaN,1,1,2,1
34,417,3,137,43,1,1,1,1.002709e+00,NaN,1,0,3,1
34,418,3,3,12,2,2,1,1.400255e+00,NaN,1,0,1,1
34,419,3,135,29,2,2,1,7.578018e-01,NaN,1,0,3,1
34,420,3,65,26,1,1,1,7.569515e-01,NaN,1,0,2,1
34,421,3,12,45,1,1,1,1.724564e+00,NaN,1,0,1,1
34,422,3,116,4,1,1,1,1.917036e+00,NaN,1,1,3,1
34,423,3,56,51,2,2,1,6.698894e-01,NaN,1,1,2,1
34,424,3,76,50,2,2,1,9.048563e-01,NaN,1,0,2,1
34,425,3,41,15,1,1,1,2.146063e+00,NaN,1,0,1,1
34,426,3,58,72,2,2,1,6.096253e-01,NaN,1,0,2,1
34,427,3,62,35,1,1,1,6.790657e-01,NaN,1,0,2,1
34,428,3,104,48,1,1,1,1.705225e+00,NaN,1,0,3,1
34,429,3,38,16,2,2,1,1.194829e+00,NaN,1,1,1,1
34,454,2,139,1,2,2,1,1.772218e+00,NaN,1,0,3,2
34,455,2,25,42,1,1,1,1.338065e+00,NaN,1,0,1,2
34,456,2,80,53,2,2,1,1.090262e+00,NaN,1,0,2,2
34,457,2,109,39,1,1,1,8.044104e-01,NaN,1,0,3,2
34,458,2,8,24,2,2,1,9.617557e-01,NaN,1,0,1,2
34,459,2,16,5,1,1,1,1.368580e+00,NaN,1,0,1,2
34,460,2,59,10,1,1,1,1.367631e+00,NaN,1,0,2,2
34,461,2,125,18,1,1,1,7.981290e-01,NaN,1,0,3,2
34,462,2,106,56,1,1,1,1.484087e+00,NaN,1,1,3,2
34,463,2,36,60,2,2,1,1.093454e+00,NaN,1,0,1,2
34,464,2,95,68,2,2,1,9.439258e-01,NaN,1,0,2,2
34,465,2,46,2,2,2,1,1.767937e+00,NaN,1,1,1,2
34,466,2,29,38,1,1,1,1.318788e+00,NaN,1,1,1,2
34,467,2,50,49,1,1,1,1.031270e+00,NaN,1,1,2,2
34,468,2,78,63,2,2,1,1.859323e+00,NaN,1,0,2,2
34,469,2,87,37,1,2,0,9.348485e-01,NaN,1,0,2,2
34,470,2,88,71,2,2,1,1.534828e+00,NaN,1,0,2,2
34,471,2,10,27,1,1,1,1.111088e+00,NaN,1,0,1,2
34,472,2,96,34,1,1,1,1.560606e+00,NaN,1,1,2,2
34,473,2,55,23,1,1,1,9.119110e-01,NaN,1,0,2,2
34,474,2,92,32,1,1,1,8.166375e-01,NaN,1,0,2,2
34,475,2,93,14,2,2,1,1.229114e+00,NaN,1,0,2,2
34,476,2,35,19,1,1,1,1.065448e+00,NaN,1,1,1,2
34,477,2,2,40,1,2,0,1.740177e+00,NaN,1,0,1,2
34,478,3,93,14,1,1,1,5.282952e-01,NaN,1,0,2,2
34,479,3,46,2,2,2,1,1.336386e+00,NaN,1,1,1,2
34,480,3,35,19,2,2,1,1.248441e+00,NaN,1,1,1,2
34,481,3,59,10,1,1,1,1.403812e+00,NaN,1,0,2,2
34,482,3,55,23,2,2,1,7.135037e-01,NaN,1,0,2,2
34,483,3,95,68,2,2,1,8.824770e-01,NaN,1,0,2,2
34,484,3,2,40,2,2,1,9.245501e-01,NaN,1,0,1,2
34,485,3,92,32,1,1,1,8.689903e-01,NaN,1,0,2,2
34,486,3,10,27,2,2,1,9.917123e-01,NaN,1,0,1,2
34,487,3,125,18,2,2,1,1.166238e+00,NaN,1,0,3,2
34,488,3,50,49,1,1,1,7.407826e-01,NaN,1,1,2,2
34,489,3,36,60,2,2,1,1.036541e+00,NaN,1,0,1,2
34,490,3,78,63,2,2,1,5.288195e-01,NaN,1,0,2,2
34,491,3,80,53,1,1,1,1.472828e+00,NaN,1,0,2,2
34,492,3,16,5,2,2,1,1.140203e+00,NaN,1,0,1,2
34,493,3,8,24,2,2,1,5.879058e-01,NaN,1,0,1,2
34,494,3,139,1,2,2,1,1.106122e+00,NaN,1,0,3,2
34,495,3,87,37,1,1,1,7.715218e-01,NaN,1,0,2,2
34,496,3,29,38,1,1,1,1.010650e+00,NaN,1,1,1,2
34,497,3,106,56,2,2,1,1.095690e+00,NaN,1,1,3,2
34,498,3,88,71,2,2,1,6.733397e-01,NaN,1,0,2,2
34,499,3,109,39,1,1,1,9.235396e-01,NaN,1,0,3,2
34,500,3,96,34,1,1,1,8.923494e-01,NaN,1,1,2,2
34,501,3,25,42,1,1,1,1.886794e+00,NaN,1,0,1,2
34,526,2,70,6,1,1,1,6.017369e-01,NaN,1,0,2,3
34,527,2,130,67,1,1,1,2.110834e+00,NaN,1,1,3,3
34,528,2,84,52,2,2,1,6.403862e-01,NaN,1,0,2,3
34,529,2,22,47,2,2,1,9.964422e-01,NaN,1,0,1,3
34,530,2,120,20,2,2,1,2.313823e+00,NaN,1,0,3,3
34,531,2,133,33,2,2,1,1.042605e+00,NaN,1,0,3,3
34,532,2,15,3,2,2,1,7.586988e-01,NaN,1,1,1,3
34,533,2,113,62,1,1,1,9.100444e-01,NaN,1,0,3,3
34,534,2,110,57,2,2,1,1.007483e+00,NaN,1,0,3,3
34,535,2,143,13,2,2,1,7.328489e-01,NaN,1,0,3,3
34,536,2,32,44,2,2,1,1.245199e+00,NaN,1,1,1,3
34,537,2,71,55,1,2,0,1.032464e+00,NaN,1,0,2,3
34,538,2,61,21,2,2,1,7.884969e-01,NaN,1,0,2,3
34,539,2,7,7,2,2,1,1.450953e+00,NaN,1,0,1,3
34,540,2,127,8,1,1,1,1.493992e+00,NaN,1,0,3,3
34,541,2,64,65,2,2,1,8.081144e-01,NaN,1,0,2,3
34,542,2,123,59,2,2,1,1.461608e+00,NaN,1,0,3,3
34,543,2,34,22,1,1,1,1.288176e+00,NaN,1,0,1,3
34,544,2,126,25,1,1,1,2.226422e+00,NaN,1,1,3,3
34,545,2,129,66,1,1,1,1.655111e+00,NaN,1,1,3,3
34,546,2,119,9,1,1,1,1.266522e+00,NaN,1,0,3,3
34,547,2,94,54,1,1,1,1.485484e+00,NaN,1,0,2,3
34,548,2,13,61,1,1,1,1.903667e+00,NaN,1,1,1,3
34,549,2,30,58,2,2,1,1.944760e+00,NaN,1,1,1,3
34,550,3,94,54,1,1,1,4.595779e-01,NaN,1,0,2,3
34,551,3,22,47,2,2,1,6.712555e-01,NaN,1,0,1,3
34,552,3,15,3,2,2,1,6.979418e-01,NaN,1,1,1,3
34,553,3,120,20,1,1,1,1.051559e+00,NaN,1,0,3,3
34,554,3,129,66,2,2,1,1.294782e+00,NaN,1,1,3,3
34,555,3,13,61,1,1,1,4.964648e-01,NaN,1,1,1,3
34,556,3,71,55,2,2,1,1.689543e+00,NaN,1,0,2,3
34,557,3,32,44,2,2,1,1.627686e+00,NaN,1,1,1,3
34,558,3,133,33,1,1,1,9.206588e-01,NaN,1,0,3,3
34,559,3,61,21,2,2,1,2.841453e+00,NaN,1,0,2,3
34,560,3,143,13,1,1,1,8.132216e-01,NaN,1,0,3,3
34,561,3,126,25,2,1,0,1.626255e+00,NaN,1,1,3,3
34,562,3,113,62,2,2,1,1.062714e+00,NaN,1,0,3,3
34,563,3,84,52,1,1,1,6.736823e-01,NaN,1,0,2,3
34,564,3,123,59,2,2,1,2.116348e+00,NaN,1,0,3,3
34,565,3,64,65,2,2,1,5.739965e-01,NaN,1,0,2,3
34,566,3,130,67,2,2,1,1.780284e+00,NaN,1,1,3,3
34,567,3,34,22,2,2,1,2.089854e+00,NaN,1,0,1,3
34,568,3,119,9,1,1,1,5.401051e-01,NaN,1,0,3,3
34,569,3,7,7,2,2,1,8.525159e-01,NaN,1,0,1,3
34,570,3,30,58,2,2,1,1.791570e+00,NaN,1,1,1,3
34,571,3,110,57,2,2,1,1.077731e+00,NaN,1,0,3,3
34,572,3,70,6,2,2,1,6.325141e-01,NaN,1,0,2,3
34,573,3,127,8,2,2,1,1.316426e+00,NaN,1,0,3,3
34,598,4,79,66,1,1,1,9.822639e-01,NaN,2,1,2,1
34,599,4,27,34,2,2,1,1.012268e+00,NaN,2,1,1,1
34,600,4,5,1,1,1,1,6.815952e-01,NaN,2,0,1,1
34,601,4,83,46,1,1,1,7.795282e-01,NaN,2,0,2,1
34,602,4,128,26,1,1,1,1.849758e+00,NaN,2,0,3,1
34,603,4,33,21,1,1,1,1.509050e+00,NaN,2,0,1,1
34,604,4,20,43,1,1,1,9.342185e-01,NaN,2,0,1,1
34,605,4,102,19,2,2,1,9.263349e-01,NaN,2,1,3,1
34,606,4,52,69,2,2,1,5.753708e-01,NaN,2,0,2,1
34,607,4,121,14,1,1,1,9.182250e-01,NaN,2,0,3,1
34,608,4,1,57,1,1,1,1.174418e+00,NaN,2,0,1,1
34,609,4,140,51,1,1,1,1.853346e+00,NaN,2,1,3,1
34,610,4,103,24,2,2,1,9.048880e-01,NaN,2,0,3,1
34,611,4,19,29,2,2,1,9.301213e-01,NaN,2,0,1,1
34,612,4,141,35,1,1,1,1.194634e+00,NaN,2,0,3,1
34,613,4,57,11,1,1,1,9.926703e-01,NaN,2,0,2,1
34,614,4,54,5,2,2,1,1.222693e+00,NaN,2,0,2,1
34,615,4,39,17,2,2,1,9.153300e-01,NaN,2,1,1,1
34,616,4,26,37,1,1,1,1.084048e+00,NaN,2,0,1,1
34,617,4,90,59,2,2,1,7.101620e-01,NaN,2,0,2,1
34,618,4,67,16,2,2,1,6.474916e-01,NaN,2,1,2,1
34,619,4,114,15,2,2,1,8.592455e-01,NaN,2,0,3,1
34,620,4,18,67,1,1,1,1.734441e+00,NaN,2,1,1,1
34,621,4,9,56,1,1,1,1.887320e+00,NaN,2,1,1,1
34,646,4,136,54,2,2,1,1.595881e+00,NaN,2,0,3,2
34,647,4,142,23,1,1,1,1.017521e+00,NaN,2,0,3,2
34,648,4,47,32,2,2,1,8.621565e-01,NaN,2,0,1,2
34,649,4,37,49,2,2,1,1.409008e+00,NaN,2,1,1,2
34,650,4,111,58,1,1,1,9.025209e-01,NaN,2,1,3,2
34,651,4,85,39,1,1,1,6.242777e-01,NaN,2,0,2,2
34,652,4,73,36,2,1,0,5.968343e-01,NaN,2,0,2,2
34,653,4,86,62,2,2,1,1.305879e+00,NaN,2,0,2,2
34,654,4,134,72,1,1,1,1.131394e+00,NaN,2,0,3,2
34,655,4,69,22,2,2,1,1.155767e+00,NaN,2,0,2,2
34,656,4,112,44,1,1,1,1.626864e+00,NaN,2,1,3,2
34,657,4,28,6,1,1,1,1.239677e+00,NaN,2,0,1,2
34,658,4,107,40,1,1,1,1.195885e+00,NaN,2,0,3,2
34,659,4,31,52,1,1,1,1.001199e+00,NaN,2,0,1,2
34,660,4,17,20,2,1,0,1.766601e+00,NaN,2,0,1,2
34,661,4,108,61,2,2,1,1.125626e+00,NaN,2,1,3,2
34,662,4,81,4,1,1,1,7.581115e-01,NaN,2,1,2,2
34,663,4,53,42,2,2,1,1.181522e+00,NaN,2,0,2,2
34,664,4,97,7,1,1,1,1.107643e+00,NaN,2,0,3,2
34,665,4,144,50,1,1,1,8.771310e-01,NaN,2,0,3,2
34,666,4,132,71,2,2,1,2.263876e+00,NaN,2,0,3,2
34,667,4,6,48,2,2,1,1.770621e+00,NaN,2,0,1,2
34,668,4,42,70,2,2,1,2.249214e+00,NaN,2,0,1,2
34,669,4,89,9,1,1,1,9.487595e-01,NaN,2,0,2,2
34,694,4,66,27,2,2,1,5.883748e-01,NaN,2,0,2,3
34,695,4,21,33,2,2,1,1.930692e+00,NaN,2,0,1,3
34,696,4,99,60,2,2,1,1.090676e+00,NaN,2,0,3,3
34,697,4,68,3,2,2,1,5.247401e-01,NaN,2,1,2,3
34,698,4,4,31,1,1,1,9.733484e-01,NaN,2,0,1,3
34,699,4,77,41,1,1,1,7.961483e-01,NaN,2,0,2,3
34,700,4,75,25,1,1,1,1.809465e+00,NaN,2,1,2,3
34,701,4,14,64,1,1,1,1.198946e+00,NaN,2,0,1,3
34,702,4,100,2,2,2,1,1.996823e+00,NaN,2,1,3,3
34,703,4,117,45,1,1,1,1.441910e+00,NaN,2,0,3,3
34,704,4,101,28,2,2,1,1.638058e+00,NaN,2,0,3,3
34,705,4,131,10,1,1,1,1.242159e+00,NaN,2,0,3,3
34,706,4,49,38,2,2,1,1.158144e+00,NaN,2,1,2,3
34,707,4,63,47,1,2,0,1.653783e+00,NaN,2,0,2,3
34,708,4,45,65,1,1,1,4.890744e-01,NaN,2,0,1,3
34,709,4,60,12,1,1,1,1.107043e+00,NaN,2,0,2,3
34,710,4,74,8,2,1,0,1.092597e+00,NaN,2,0,2,3
34,711,4,124,53,2,2,1,1.198480e+00,NaN,2,0,3,3
34,712,4,82,13,2,2,1,5.721075e-01,NaN,2,0,2,3
34,713,4,43,63,1,1,1,1.370917e+00,NaN,2,0,1,3
34,714,4,44,55,2,0,0,3.499702e+00,NaN,2,0,1,3
34,715,4,118,68,2,2,1,1.194958e+00,NaN,2,0,3,3
34,716,4,23,30,1,1,1,1.512409e+00,NaN,2,1,1,3
34,717,4,91,18,2,2,1,5.135697e-01,NaN,2,0,2,3
34,718,5,8.932000e+01,71,2,0,0,2.500018e+00,1,1,0,2.300000e+00,1
34,719,5,8.932000e+01,71,2,2,1,7.752263e-01,2,1,0,2.300000e+00,1
34,720,5,8.431000e+01,52,2,2,1,4.164354e-01,1,1,0,2.100000e+00,1
34,721,5,1.387700e+02,41,3,1,0,3.143550e-01,1,1,0,3.200000e+00,1
34,722,5,1.158300e+02,46,3,3,1,6.434116e-01,1,1,0,3.200000e+00,1
34,723,5,1.040600e+02,48,3,1,0,5.095374e-01,1,1,0,3.100000e+00,1
34,724,5,9.421000e+01,14,2,2,1,6.076108e-01,1,1,0,2.300000e+00,1
34,725,5,9.618000e+01,68,2,2,1,6.574316e-01,1,1,0,2.300000e+00,1
34,726,5,3.469000e+01,22,1,1,1,5.305222e-01,1,1,0,1.200000e+00,1
34,727,5,1.152000e+01,69,1,1,1,5.569408e-01,1,1,0,1.200000e+00,1
34,728,5,4.214000e+01,15,1,1,1,9.733535e-01,1,1,0,1.300000e+00,1
34,729,5,7.843000e+01,63,2,3,0,5.347181e-01,1,1,0,2.100000e+00,1
34,730,5,8.726000e+01,37,2,2,1,1.416399e+00,1,1,0,2.100000e+00,1
34,731,5,9.536000e+01,54,2,2,1,4.414280e-01,1,1,0,2.300000e+00,1
34,732,5,2.263000e+01,47,1,1,1,5.952442e-01,1,1,0,1.200000e+00,1
34,733,5,5.934000e+01,72,2,2,1,4.127423e-01,1,1,0,2.300000e+00,1
34,734,5,7.242000e+01,70,2,2,1,3.978436e-01,1,1,0,2.100000e+00,1
34,735,5,1.332100e+02,33,3,3,1,5.751924e-01,1,1,0,3.100000e+00,1
34,736,5,1.332100e+02,33,3,3,1,5.532770e-01,2,1,0,3.100000e+00,1
34,737,5,1.198900e+02,9,3,2,0,5.630395e-01,1,1,0,3.200000e+00,1
34,738,5,1.372000e+02,43,3,2,0,6.762571e-01,1,1,0,3.100000e+00,1
34,739,5,9.814000e+01,64,3,3,1,1.190093e+00,1,1,0,3.100000e+00,1
34,740,5,3.699000e+01,60,1,3,0,5.118287e-01,1,1,0,1.300000e+00,1
34,741,5,4.901000e+01,28,1,3,0,3.530647e-01,1,1,0,1.300000e+00,1
34,742,5,6.445000e+01,65,2,2,1,3.314463e-01,1,1,0,2.100000e+00,1
34,743,5,6.031000e+01,10,2,3,0,6.677852e-01,1,1,0,2.300000e+00,1
34,744,5,9.814000e+01,64,3,0,0,2.500476e+00,2,1,0,3.100000e+00,1
34,745,5,6.133000e+01,21,2,1,0,1.151425e+00,1,1,0,2.100000e+00,1
34,746,5,1.138600e+02,62,3,2,0,1.488936e+00,1,1,0,3.200000e+00,1
34,747,5,3.699000e+01,60,1,1,1,6.742169e-01,2,1,0,1.300000e+00,1
34,748,5,6.341000e+01,35,2,2,1,3.956147e-01,1,1,0,2.300000e+00,1
34,749,5,9.421000e+01,14,2,2,1,3.974080e-01,2,1,0,2.300000e+00,1
34,750,5,1.138600e+02,62,3,1,0,5.744414e-01,2,1,0,3.200000e+00,1
34,751,5,8.431000e+01,52,2,2,1,4.238148e-01,2,1,0,2.100000e+00,1
34,752,5,5.642000e+01,23,2,3,0,3.456526e-01,1,1,0,2.300000e+00,1
34,753,5,4.901000e+01,28,1,1,1,4.189225e-01,2,1,0,1.300000e+00,1
34,754,5,4.214000e+01,15,1,0,0,2.500607e+00,2,1,0,1.300000e+00,1
34,755,5,1.158300e+02,46,3,3,1,4.301726e-01,2,1,0,3.200000e+00,1
34,756,5,3.070000e+00,40,1,1,1,3.438038e-01,1,1,0,1.300000e+00,1
34,757,5,3.600000e+00,12,1,1,1,3.537894e-01,1,1,0,1.200000e+00,1
34,758,5,1.390500e+02,1,3,3,1,3.231646e-01,1,1,0,3.100000e+00,1
34,759,5,9.421000e+01,14,2,2,1,4.446357e-01,3,1,0,2.300000e+00,1
34,760,5,1.259100e+02,18,3,3,1,3.260886e-01,1,1,0,3.200000e+00,1
34,761,5,1.098500e+02,39,3,1,0,1.704114e+00,1,1,0,3.200000e+00,1
34,762,5,9.030000e+00,24,1,3,0,1.658059e+00,1,1,0,1.300000e+00,1
34,763,5,5.934000e+01,72,2,2,1,3.484238e-01,2,1,0,2.300000e+00,1
34,764,5,6.628000e+01,26,2,3,0,3.577454e-01,1,1,0,2.300000e+00,1
34,765,5,3.469000e+01,22,1,1,1,2.960916e-01,2,1,0,1.200000e+00,1
34,766,5,1.372000e+02,43,3,3,1,5.046620e-01,2,1,0,3.100000e+00,1
34,767,5,6.628000e+01,26,2,2,1,3.778603e-01,2,1,0,2.300000e+00,1
34,768,5,2.263000e+01,47,1,1,1,5.481052e-01,2,1,0,1.200000e+00,1
34,769,5,9.536000e+01,54,2,2,1,3.096088e-01,2,1,0,2.300000e+00,1
34,770,5,1.277400e+02,8,3,3,1,3.034300e-01,1,1,0,3.200000e+00,1
34,771,5,3.469000e+01,22,1,1,1,3.849648e-01,3,1,0,1.200000e+00,1
34,772,5,6.628000e+01,26,2,2,1,3.306657e-01,3,1,0,2.300000e+00,1
34,773,5,7.144000e+01,55,2,2,1,3.079378e-01,1,1,0,2.100000e+00,1
34,774,5,9.536000e+01,54,2,2,1,2.931577e-01,3,1,0,2.300000e+00,1
34,775,5,1.100100e+02,57,3,3,1,3.192041e-01,1,1,0,3.100000e+00,1
34,776,5,4.057000e+01,11,1,1,1,3.128916e-01,1,1,0,1.200000e+00,1
34,777,5,2.473000e+01,36,1,1,1,6.179987e-01,1,1,0,1.200000e+00,1
34,778,5,9.814000e+01,64,3,3,1,1.499975e+00,3,1,0,3.100000e+00,1
34,779,5,1.201700e+02,20,3,1,0,1.165012e+00,1,1,0,3.100000e+00,1
34,780,5,1.152000e+01,69,1,1,1,3.741871e-01,2,1,0,1.200000e+00,1
34,781,5,8.124000e+01,53,2,3,0,9.035819e-01,1,1,0,2.300000e+00,1
34,782,5,7.970000e+00,7,1,1,1,3.771709e-01,1,1,0,1.300000e+00,1
34,783,5,7.242000e+01,70,2,2,1,3.073422e-01,2,1,0,2.100000e+00,1
34,784,5,8.431000e+01,52,2,2,1,4.210545e-01,3,1,0,2.100000e+00,1
34,785,5,1.050400e+02,31,3,0,0,2.500208e+00,1,1,0,3.100000e+00,1
34,786,5,7.970000e+00,7,1,1,1,3.044539e-01,2,1,0,1.300000e+00,1
34,787,5,2.553000e+01,42,1,1,1,3.779937e-01,1,1,0,1.200000e+00,1
34,788,5,1.066000e+01,27,1,1,1,3.472484e-01,1,1,0,1.200000e+00,1
34,789,5,8.431000e+01,52,2,2,1,3.325906e-01,4,1,0,2.100000e+00,1
34,790,5,6.133000e+01,21,2,3,0,6.137337e-01,2,1,0,2.100000e+00,1
34,791,5,5.642000e+01,23,2,3,0,1.071285e+00,2,1,0,2.300000e+00,1
34,792,5,6.445000e+01,65,2,2,1,5.929538e-01,2,1,0,2.100000e+00,1
34,793,5,3.699000e+01,60,1,3,0,5.869489e-01,3,1,0,1.300000e+00,1
34,794,5,1.098500e+02,39,3,2,0,1.132199e+00,2,1,0,3.200000e+00,1
34,795,5,9.247000e+01,32,2,1,0,7.656473e-01,1,1,0,2.100000e+00,1
34,796,5,6.031000e+01,10,2,3,0,1.543308e+00,2,1,0,2.300000e+00,1
34,797,5,1.198900e+02,9,3,3,1,3.530058e-01,2,1,0,3.200000e+00,1
34,798,5,1.201700e+02,20,3,3,1,9.623299e-01,2,1,0,3.100000e+00,1
34,799,5,9.618000e+01,68,2,2,1,2.999884e-01,2,1,0,2.300000e+00,1
34,800,5,1.351900e+02,29,3,3,1,4.054322e-01,1,1,0,3.100000e+00,1
34,801,5,7.028000e+01,6,2,2,1,3.107485e-01,1,1,0,2.100000e+00,1
34,802,5,2.553000e+01,42,1,1,1,4.887388e-01,2,1,0,1.200000e+00,1
34,803,5,1.390500e+02,1,3,3,1,3.225609e-01,2,1,0,3.100000e+00,1
34,804,5,6.445000e+01,65,2,2,1,4.116372e-01,3,1,0,2.100000e+00,1
34,805,5,9.247000e+01,32,2,2,1,4.210327e-01,2,1,0,2.100000e+00,1
34,806,5,1.259100e+02,18,3,3,1,3.424482e-01,2,1,0,3.200000e+00,1
34,807,5,8.932000e+01,71,2,1,0,3.207022e-01,3,1,0,2.300000e+00,1
34,808,5,1.372000e+02,43,3,3,1,4.418455e-01,3,1,0,3.100000e+00,1
34,809,5,8.124000e+01,53,2,2,1,5.720040e-01,2,1,0,2.300000e+00,1
34,810,5,1.438200e+02,13,3,3,1,3.014472e-01,1,1,0,3.200000e+00,1
34,811,5,7.970000e+00,7,1,1,1,3.190327e-01,3,1,0,1.300000e+00,1
34,812,5,1.066000e+01,27,1,1,1,6.323578e-01,2,1,0,1.200000e+00,1
34,813,5,1.654000e+01,5,1,1,1,1.041680e+00,1,1,0,1.200000e+00,1
34,814,5,5.642000e+01,23,2,3,0,1.138940e+00,3,1,0,2.300000e+00,1
34,815,5,9.618000e+01,68,2,2,1,3.165784e-01,3,1,0,2.300000e+00,1
34,816,5,1.390500e+02,1,3,2,0,8.780616e-01,3,1,0,3.100000e+00,1
34,817,5,1.317000e+01,45,1,3,0,1.007430e+00,1,1,0,1.300000e+00,1
34,818,5,4.057000e+01,11,1,1,1,6.969784e-01,2,1,0,1.200000e+00,1
34,819,5,2.553000e+01,42,1,1,1,3.863554e-01,3,1,0,1.200000e+00,1
34,820,5,4.057000e+01,11,1,1,1,5.394815e-01,3,1,0,1.200000e+00,1
34,821,5,2.263000e+01,47,1,1,1,3.730099e-01,3,1,0,1.200000e+00,1
34,822,5,1.050400e+02,31,3,3,1,3.590753e-01,2,1,0,3.100000e+00,1
34,823,5,1.050400e+02,31,3,3,1,3.448074e-01,3,1,0,3.100000e+00,1
34,824,5,9.030000e+00,24,1,1,1,6.179326e-01,2,1,0,1.300000e+00,1
34,825,5,6.341000e+01,35,2,2,1,9.076713e-01,2,1,0,2.300000e+00,1
34,826,5,3.600000e+00,12,1,1,1,3.411316e-01,2,1,0,1.200000e+00,1
34,827,5,1.277400e+02,8,3,3,1,2.306056e-01,2,1,0,3.200000e+00,1
34,828,5,4.901000e+01,28,1,1,1,6.315739e-01,3,1,0,1.300000e+00,1
34,829,5,1.040600e+02,48,3,2,0,4.169889e-01,2,1,0,3.100000e+00,1
34,830,5,9.247000e+01,32,2,2,1,6.265144e-01,3,1,0,2.100000e+00,1
34,831,5,1.201700e+02,20,3,3,1,6.046285e-01,3,1,0,3.100000e+00,1
34,832,5,1.351900e+02,29,3,3,1,2.943282e-01,2,1,0,3.100000e+00,1
34,833,5,7.744000e+01,50,2,2,1,3.033688e-01,1,1,0,2.300000e+00,1
34,834,5,1.332100e+02,33,3,3,1,9.447815e-01,3,1,0,3.100000e+00,1
34,835,5,7.144000e+01,55,2,2,1,4.583555e-01,2,1,0,2.100000e+00,1
34,836,5,4.901000e+01,28,1,1,1,3.236156e-01,4,1,0,1.300000e+00,1
34,837,5,7.843000e+01,63,2,3,0,1.788975e+00,2,1,0,2.100000e+00,1
34,838,5,6.031000e+01,10,2,2,1,3.354545e-01,3,1,0,2.300000e+00,1
34,839,5,1.387700e+02,41,3,3,1,3.684249e-01,2,1,0,3.200000e+00,1
34,840,5,1.040600e+02,48,3,2,0,7.860797e-01,3,1,0,3.100000e+00,1
34,841,5,7.744000e+01,50,2,2,1,3.474628e-01,2,1,0,2.300000e+00,1
34,842,5,5.934000e+01,72,2,2,1,3.407980e-01,3,1,0,2.300000e+00,1
34,843,5,1.438200e+02,13,3,3,1,3.901891e-01,2,1,0,3.200000e+00,1
34,844,5,1.317000e+01,45,1,3,0,3.519856e-01,2,1,0,1.300000e+00,1
34,845,5,3.070000e+00,40,1,1,1,4.250156e-01,2,1,0,1.300000e+00,1
34,846,5,9.536000e+01,54,2,2,1,3.155566e-01,4,1,0,2.300000e+00,1
34,847,5,1.317000e+01,45,1,1,1,2.765786e-01,3,1,0,1.300000e+00,1
34,848,5,8.726000e+01,37,2,2,1,2.789248e-01,2,1,0,2.100000e+00,1
34,849,5,1.438200e+02,13,3,3,1,2.720708e-01,3,1,0,3.200000e+00,1
34,850,5,2.473000e+01,36,1,1,1,3.777739e-01,2,1,0,1.200000e+00,1
34,851,5,1.277400e+02,8,3,3,1,5.708353e-01,3,1,0,3.200000e+00,1
34,852,5,1.138600e+02,62,3,3,1,3.086516e-01,3,1,0,3.200000e+00,1
34,853,5,7.028000e+01,6,2,2,1,3.107117e-01,2,1,0,2.100000e+00,1
34,854,5,7.970000e+00,7,1,1,1,3.606084e-01,4,1,0,1.300000e+00,1
34,855,5,9.247000e+01,32,2,2,1,3.067038e-01,4,1,0,2.100000e+00,1
34,856,5,1.387700e+02,41,3,3,1,2.921133e-01,3,1,0,3.200000e+00,1
34,857,5,3.070000e+00,40,1,1,1,3.743580e-01,3,1,0,1.300000e+00,1
34,858,5,2.553000e+01,42,1,1,1,3.034868e-01,4,1,0,1.200000e+00,1
34,859,5,1.152000e+01,69,1,1,1,3.208407e-01,3,1,0,1.200000e+00,1
34,860,5,1.098500e+02,39,3,3,1,4.745693e-01,3,1,0,3.200000e+00,1
34,861,5,1.387700e+02,41,3,3,1,2.918776e-01,4,1,0,3.200000e+00,1
34,862,5,1.100100e+02,57,3,3,1,3.261803e-01,2,1,0,3.100000e+00,1
34,863,5,1.654000e+01,5,1,1,1,4.398669e-01,2,1,0,1.200000e+00,1
34,864,5,6.341000e+01,35,2,2,1,3.292933e-01,3,1,0,2.300000e+00,1
34,865,5,8.726000e+01,37,2,2,1,3.865718e-01,3,1,0,2.100000e+00,1
34,866,5,8.932000e+01,71,2,3,0,6.121813e-01,4,1,0,2.300000e+00,1
34,867,5,7.744000e+01,50,2,2,1,4.053960e-01,3,1,0,2.300000e+00,1
34,868,5,7.144000e+01,55,2,2,1,3.512349e-01,3,1,0,2.100000e+00,1
34,869,5,6.445000e+01,65,2,2,1,4.246845e-01,4,1,0,2.100000e+00,1
34,870,5,1.654000e+01,5,1,1,1,3.299802e-01,3,1,0,1.200000e+00,1
34,871,5,1.100100e+02,57,3,3,1,2.594541e-01,3,1,0,3.100000e+00,1
34,872,5,6.133000e+01,21,2,2,1,1.077330e+00,3,1,0,2.100000e+00,1
34,873,5,5.642000e+01,23,2,2,1,7.516532e-01,4,1,0,2.300000e+00,1
34,874,5,5.934000e+01,72,2,2,1,3.128340e-01,4,1,0,2.300000e+00,1
34,875,5,1.438200e+02,13,3,3,1,3.062149e-01,4,1,0,3.200000e+00,1
34,876,5,1.239000e+02,59,3,3,1,3.235597e-01,1,1,0,3.200000e+00,1
34,877,5,9.030000e+00,24,1,1,1,3.893690e-01,3,1,0,1.300000e+00,1
34,878,5,2.473000e+01,36,1,1,1,4.384190e-01,3,1,0,1.200000e+00,1
34,879,5,7.028000e+01,6,2,2,1,3.681336e-01,3,1,0,2.100000e+00,1
34,880,5,4.214000e+01,15,1,1,1,4.096707e-01,3,1,0,1.300000e+00,1
34,881,5,9.421000e+01,14,2,2,1,3.232700e-01,4,1,0,2.300000e+00,1
34,882,5,1.351900e+02,29,3,3,1,2.848561e-01,3,1,0,3.100000e+00,1
34,883,5,4.057000e+01,11,1,1,1,4.144242e-01,4,1,0,1.200000e+00,1
34,884,5,4.214000e+01,15,1,1,1,3.436152e-01,4,1,0,1.300000e+00,1
34,885,5,1.372000e+02,43,3,3,1,2.817359e-01,4,1,0,3.100000e+00,1
34,886,5,1.239000e+02,59,3,3,1,3.800849e-01,2,1,0,3.200000e+00,1
34,887,5,1.351900e+02,29,3,3,1,3.487598e-01,4,1,0,3.100000e+00,1
34,888,5,1.098500e+02,39,3,3,1,5.262460e-01,4,1,0,3.200000e+00,1
34,889,5,2.473000e+01,36,1,1,1,7.600239e-01,4,1,0,1.200000e+00,1
34,890,5,7.843000e+01,63,2,3,0,8.342963e-01,3,1,0,2.100000e+00,1
34,891,5,1.259100e+02,18,3,3,1,2.275844e-01,3,1,0,3.200000e+00,1
34,892,5,7.744000e+01,50,2,2,1,4.776047e-01,4,1,0,2.300000e+00,1
34,893,5,1.259100e+02,18,3,3,1,6.078999e-01,4,1,0,3.200000e+00,1
34,894,5,1.040600e+02,48,3,2,0,3.533167e-01,4,1,0,3.100000e+00,1
34,895,5,1.198900e+02,9,3,2,0,1.202467e+00,3,1,0,3.200000e+00,1
34,896,5,1.239000e+02,59,3,3,1,3.959145e-01,3,1,0,3.200000e+00,1
34,897,5,1.152000e+01,69,1,1,1,4.617533e-01,4,1,0,1.200000e+00,1
34,898,5,3.600000e+00,12,1,1,1,3.030316e-01,3,1,0,1.200000e+00,1
34,899,5,1.138600e+02,62,3,3,1,4.003836e-01,4,1,0,3.200000e+00,1
34,900,5,9.618000e+01,68,2,2,1,2.979790e-01,4,1,0,2.300000e+00,1
34,901,5,2.263000e+01,47,1,1,1,3.390624e-01,4,1,0,1.200000e+00,1
34,902,5,1.201700e+02,20,3,3,1,7.564881e-01,4,1,0,3.100000e+00,1
34,903,5,1.390500e+02,1,3,3,1,1.005813e+00,4,1,0,3.100000e+00,1
34,904,5,1.158300e+02,46,3,2,0,1.295385e+00,3,1,0,3.200000e+00,1
34,905,5,1.050400e+02,31,3,3,1,8.874882e-02,4,1,0,3.100000e+00,1
34,906,5,3.070000e+00,40,1,1,1,2.663654e-01,4,1,0,1.300000e+00,1
34,907,5,1.066000e+01,27,1,1,1,2.913650e-01,3,1,0,1.200000e+00,1
34,908,5,8.726000e+01,37,2,2,1,4.052747e-01,4,1,0,2.100000e+00,1
34,909,5,1.239000e+02,59,3,3,1,4.946987e-01,4,1,0,3.200000e+00,1
34,910,5,6.031000e+01,10,2,2,1,3.441585e-01,4,1,0,2.300000e+00,1
34,911,5,1.066000e+01,27,1,1,1,2.978885e-01,4,1,0,1.200000e+00,1
34,912,5,8.124000e+01,53,2,2,1,4.032967e-01,3,1,0,2.300000e+00,1
34,913,5,7.028000e+01,6,2,2,1,3.966751e-01,4,1,0,2.100000e+00,1
34,914,5,3.699000e+01,60,1,1,1,9.104323e-01,4,1,0,1.300000e+00,1
34,915,5,7.144000e+01,55,2,2,1,3.761183e-01,4,1,0,2.100000e+00,1
34,916,5,1.100100e+02,57,3,3,1,2.664324e-01,4,1,0,3.100000e+00,1
34,917,5,6.628000e+01,26,2,2,1,2.840836e-01,4,1,0,2.300000e+00,1
34,918,5,7.843000e+01,63,2,3,0,7.172454e-01,4,1,0,2.100000e+00,1
34,919,5,1.317000e+01,45,1,3,0,4.466771e-01,4,1,0,1.300000e+00,1
34,920,5,6.341000e+01,35,2,2,1,2.242107e-01,4,1,0,2.300000e+00,1
34,921,5,3.469000e+01,22,1,1,1,3.538199e-01,4,1,0,1.200000e+00,1
34,922,5,7.242000e+01,70,2,2,1,3.149895e-01,3,1,0,2.100000e+00,1
34,923,5,7.242000e+01,70,2,2,1,2.444841e-01,4,1,0,2.100000e+00,1
34,924,5,1.198900e+02,9,3,2,0,4.302966e-01,4,1,0,3.200000e+00,1
34,925,5,8.124000e+01,53,2,2,1,2.718973e-01,4,1,0,2.300000e+00,1
34,926,5,1.332100e+02,33,3,3,1,2.734895e-01,4,1,0,3.100000e+00,1
34,927,5,1.158300e+02,46,3,3,1,3.864447e-01,4,1,0,3.200000e+00,1
34,928,5,9.814000e+01,64,3,3,1,2.522291e-01,4,1,0,3.100000e+00,1
34,929,5,1.654000e+01,5,1,1,1,2.937040e-01,4,1,0,1.200000e+00,1
34,930,5,1.277400e+02,8,3,3,1,2.633886e-01,4,1,0,3.200000e+00,1
34,931,5,9.030000e+00,24,1,1,1,4.729345e-01,4,1,0,1.300000e+00,1
34,932,5,6.133000e+01,21,2,2,1,8.662858e-01,4,1,0,2.100000e+00,1
34,933,5,3.600000e+00,12,1,1,1,5.239939e-01,4,1,0,1.200000e+00,1
34,934,6,75,25,2,2,1,7.245995e-01,NaN,2,1,2,1
34,935,6,54,5,2,2,1,7.671541e-01,NaN,2,0,2,1
34,936,6,63,47,1,1,1,7.425100e-01,NaN,2,0,2,1
34,937,6,4,31,2,2,1,8.870083e-01,NaN,2,0,1,1
34,938,6,131,10,2,2,1,8.098041e-01,NaN,2,0,3,1
34,939,6,9,56,1,2,0,7.917876e-01,NaN,2,1,1,1
34,940,6,1,57,1,1,1,1.134324e+00,NaN,2,0,1,1
34,941,6,101,28,1,1,1,1.119261e+00,NaN,2,0,3,1
34,942,6,21,33,1,1,1,1.072694e+00,NaN,2,0,1,1
34,943,6,134,72,1,1,1,1.100032e+00,NaN,2,0,3,1
34,944,6,44,55,2,2,1,2.654181e+00,NaN,2,0,1,1
34,945,6,39,17,1,1,1,8.980244e-01,NaN,2,1,1,1
34,946,6,31,52,2,2,1,1.044160e+00,NaN,2,0,1,1
34,947,6,100,2,2,2,1,9.847228e-01,NaN,2,1,3,1
34,948,6,82,13,2,2,1,7.195491e-01,NaN,2,0,2,1
34,949,6,27,34,1,1,1,8.406643e-01,NaN,2,1,1,1
34,950,6,121,14,1,1,1,8.137175e-01,NaN,2,0,3,1
34,951,6,107,40,1,1,1,7.309886e-01,NaN,2,0,3,1
34,952,6,81,4,2,2,1,8.034868e-01,NaN,2,1,2,1
34,953,6,43,63,2,2,1,1.057766e+00,NaN,2,0,1,1
34,954,6,73,36,2,1,0,8.937023e-01,NaN,2,0,2,1
34,955,6,68,3,1,1,1,9.444480e-01,NaN,2,1,2,1
34,956,6,53,42,1,1,1,9.451422e-01,NaN,2,0,2,1
34,957,6,108,61,2,2,1,1.457479e+00,NaN,2,1,3,1
34,958,6,91,18,2,2,1,6.855201e-01,NaN,2,0,2,1
34,959,6,79,66,2,2,1,9.122104e-01,NaN,2,1,2,1
34,960,6,97,7,2,2,1,2.545469e+00,NaN,2,0,3,1
34,961,6,45,65,2,2,1,9.539552e-01,NaN,2,0,1,1
34,962,6,112,44,2,2,1,9.860065e-01,NaN,2,1,3,1
34,963,6,90,59,1,1,1,1.208371e+00,NaN,2,0,2,1
34,964,6,60,12,1,1,1,7.665945e-01,NaN,2,0,2,1
34,965,6,42,70,2,2,1,1.525742e+00,NaN,2,0,1,1
34,966,6,33,21,2,1,0,9.195507e-01,NaN,2,0,1,1
34,967,6,114,15,1,1,1,1.896432e+00,NaN,2,0,3,1
34,968,6,142,23,2,2,1,2.354743e+00,NaN,2,0,3,1
34,969,6,57,11,1,1,1,1.098671e+00,NaN,2,0,2,1
34,970,6,26,37,2,1,0,1.092542e+00,NaN,2,0,1,1
34,971,6,128,26,1,1,1,1.391399e+00,NaN,2,0,3,1
34,972,6,37,49,2,2,1,9.104205e-01,NaN,2,1,1,1
34,973,6,28,6,1,1,1,7.922624e-01,NaN,2,0,1,1
34,974,6,111,58,2,2,1,2.734476e+00,NaN,2,1,3,1
34,975,6,124,53,2,2,1,1.759357e+00,NaN,2,0,3,1
34,976,6,136,54,1,1,1,9.758362e-01,NaN,2,0,3,1
34,977,6,102,19,1,1,1,1.518888e+00,NaN,2,1,3,1
34,978,6,67,16,1,1,1,8.162672e-01,NaN,2,1,2,1
34,979,6,103,24,1,1,1,9.654355e-01,NaN,2,0,3,1
34,980,6,144,50,2,2,1,1.068820e+00,NaN,2,0,3,1
34,981,6,23,30,2,2,1,1.008245e+00,NaN,2,1,1,1
34,982,6,141,35,1,1,1,1.110259e+00,NaN,2,0,3,1
34,983,6,47,32,1,1,1,8.402499e-01,NaN,2,0,1,1
34,984,6,99,60,2,2,1,1.452945e+00,NaN,2,0,3,1
34,985,6,20,43,2,2,1,1.153033e+00,NaN,2,0,1,1
34,986,6,6,48,2,2,1,1.129069e+00,NaN,2,0,1,1
34,987,6,118,68,2,2,1,1.345816e+00,NaN,2,0,3,1
34,988,6,18,67,2,2,1,2.105820e+00,NaN,2,1,1,1
34,989,6,83,46,1,1,1,7.641127e-01,NaN,2,0,2,1
34,990,6,117,45,1,1,1,9.871384e-01,NaN,2,0,3,1
34,991,6,140,51,2,2,1,1.922089e+00,NaN,2,1,3,1
34,992,6,52,69,2,2,1,9.952577e-01,NaN,2,0,2,1
34,993,6,19,29,2,2,1,1.457682e+00,NaN,2,0,1,1
34,994,6,86,62,2,2,1,1.517323e+00,NaN,2,0,2,1
34,995,6,66,27,1,1,1,9.746547e-01,NaN,2,0,2,1
34,996,6,85,39,1,1,1,1.094052e+00,NaN,2,0,2,1
34,997,6,77,41,2,2,1,1.337063e+00,NaN,2,0,2,1
34,998,6,5,1,1,1,1,8.653159e-01,NaN,2,0,1,1
34,999,6,14,64,2,2,1,1.156758e+00,NaN,2,0,1,1
34,1000,6,69,22,1,1,1,1.037265e+00,NaN,2,0,2,1
34,1001,6,17,20,1,2,0,1.457566e+00,NaN,2,0,1,1
34,1002,6,49,38,1,1,1,8.615673e-01,NaN,2,1,2,1
34,1003,6,89,9,1,1,1,7.699066e-01,NaN,2,0,2,1
34,1004,6,132,71,2,2,1,1.105153e+00,NaN,2,0,3,1
34,1005,6,74,8,1,1,1,8.190487e-01,NaN,2,0,2,1
34,1006,6,104,48,1,1,1,1.200285e+00,NaN,1,0,3,1
34,1007,6,59,10,2,2,1,1.222401e+00,NaN,1,0,2,1
34,1008,6,110,57,2,2,1,1.347757e+00,NaN,1,0,3,1
34,1009,6,61,21,2,2,1,9.957313e-01,NaN,1,0,2,1
34,1010,6,10,27,2,2,1,1.929624e+00,NaN,1,0,1,1
34,1011,6,94,54,2,2,1,1.138615e+00,NaN,1,0,2,1
34,1012,6,125,18,2,2,1,1.603437e+00,NaN,1,0,3,1
34,1013,6,7,7,1,1,1,1.017198e+00,NaN,1,0,1,1
34,1014,6,15,3,2,2,1,1.494864e+00,NaN,1,1,1,1
34,1015,6,30,58,1,1,1,8.733921e-01,NaN,1,1,1,1
34,1016,6,88,71,1,1,1,1.164549e+00,NaN,1,0,2,1
34,1017,6,138,41,2,2,1,1.220188e+00,NaN,1,0,3,1
34,1018,6,36,60,2,2,1,2.617240e+00,NaN,1,0,1,1
34,1019,6,22,47,1,1,1,1.614644e+00,NaN,1,0,1,1
34,1020,6,11,69,2,2,1,9.799908e-01,NaN,1,0,1,1
34,1021,6,34,22,1,1,1,1.195070e+00,NaN,1,0,1,1
34,1022,6,87,37,2,2,1,1.185639e+00,NaN,1,0,2,1
34,1023,6,64,65,2,2,1,8.721171e-01,NaN,1,0,2,1
34,1024,6,48,28,1,1,1,1.603746e+00,NaN,1,0,1,1
34,1025,6,119,9,2,2,1,1.041474e+00,NaN,1,0,3,1
34,1026,6,113,62,2,2,1,9.662101e-01,NaN,1,0,3,1
34,1027,6,71,55,1,1,1,1.645414e+00,NaN,1,0,2,1
34,1028,6,65,26,2,2,1,1.201710e+00,NaN,1,0,2,1
34,1029,6,115,46,2,1,0,1.719891e+00,NaN,1,0,3,1
34,1030,6,98,64,1,1,1,1.729100e+00,NaN,1,0,3,1
34,1031,6,93,14,2,2,1,1.337670e+00,NaN,1,0,2,1
34,1032,6,8,24,2,2,1,1.114473e+00,NaN,1,0,1,1
34,1033,6,76,50,2,2,1,1.547977e+00,NaN,1,0,2,1
34,1034,6,105,31,2,1,0,1.419708e+00,NaN,1,0,3,1
34,1035,6,2,40,2,2,1,2.089275e+00,NaN,1,0,1,1
34,1036,6,130,67,2,2,1,1.220215e+00,NaN,1,1,3,1
34,1037,6,46,2,1,1,1,1.321347e+00,NaN,1,1,1,1
34,1038,6,29,38,2,2,1,1.434545e+00,NaN,1,1,1,1
34,1039,6,78,63,1,1,1,8.793342e-01,NaN,1,0,2,1
34,1040,6,129,66,1,1,1,1.737952e+00,NaN,1,1,3,1
34,1041,6,96,34,1,1,1,1.226819e+00,NaN,1,1,2,1
34,1042,6,127,8,2,2,1,1.280144e+00,NaN,1,0,3,1
34,1043,6,133,33,1,1,1,1.218648e+00,NaN,1,0,3,1
34,1044,6,116,4,1,1,1,1.304354e+00,NaN,1,1,3,1
34,1045,6,41,15,1,1,1,1.714407e+00,NaN,1,0,1,1
34,1046,6,72,70,1,1,1,8.677449e-01,NaN,1,0,2,1
34,1047,6,106,56,2,2,1,9.351787e-01,NaN,1,1,3,1
34,1048,6,137,43,2,2,1,1.199554e+00,NaN,1,0,3,1
34,1049,6,12,45,2,2,1,1.173703e+00,NaN,1,0,1,1
34,1050,6,92,32,2,2,1,9.331965e-01,NaN,1,0,2,1
34,1051,6,51,17,1,1,1,1.461750e+00,NaN,1,1,2,1
34,1052,6,95,68,1,1,1,1.273768e+00,NaN,1,0,2,1
34,1053,6,40,11,1,1,1,1.772975e+00,NaN,1,0,1,1
34,1054,6,32,44,2,2,1,9.726888e-01,NaN,1,1,1,1
34,1055,6,109,39,2,2,1,9.959480e-01,NaN,1,0,3,1
34,1056,6,25,42,2,2,1,1.833703e+00,NaN,1,0,1,1
34,1057,6,62,35,1,1,1,9.668421e-01,NaN,1,0,2,1
34,1058,6,135,29,2,2,1,8.539020e-01,NaN,1,0,3,1
34,1059,6,3,12,1,1,1,1.665996e+00,NaN,1,0,1,1
34,1060,6,126,25,1,2,0,1.605208e+00,NaN,1,1,3,1
34,1061,6,80,53,2,2,1,1.363116e+00,NaN,1,0,2,1
34,1062,6,24,36,2,2,1,1.802956e+00,NaN,1,0,1,1
34,1063,6,122,30,1,0,0,3.499551e+00,NaN,1,1,3,1
34,1064,6,35,19,2,1,0,1.746912e+00,NaN,1,1,1,1
34,1065,6,16,5,1,1,1,1.330876e+00,NaN,1,0,1,1
34,1066,6,139,1,2,2,1,1.075804e+00,NaN,1,0,3,1
34,1067,6,84,52,1,1,1,6.228285e-01,NaN,1,0,2,1
34,1068,6,55,23,2,2,1,6.683928e-01,NaN,1,0,2,1
34,1069,6,58,72,1,1,1,1.039750e+00,NaN,1,0,2,1
34,1070,6,13,61,2,2,1,7.885313e-01,NaN,1,1,1,1
34,1071,6,50,49,2,2,1,1.179117e+00,NaN,1,1,2,1
34,1072,6,123,59,1,2,0,1.961633e+00,NaN,1,0,3,1
34,1073,6,120,20,1,1,1,1.625584e+00,NaN,1,0,3,1
34,1074,6,38,16,2,2,1,9.033939e-01,NaN,1,1,1,1
34,1075,6,56,51,2,2,1,6.889991e-01,NaN,1,1,2,1
34,1076,6,143,13,1,1,1,7.317233e-01,NaN,1,0,3,1
34,1077,6,70,6,2,2,1,1.204488e+00,NaN,1,0,2,1
