Subject,Trial,Cond,ImageNum,CueNum,Correct,Resp,Accuracy,RT,CueRep,ImageType,Baseline,Category,Block
40,1,1,99,NaN,NaN,1,NaN,2.906813e+00,NaN,0,1,3,1
40,2,1,28,NaN,NaN,1,NaN,1.784413e+00,NaN,0,1,1,1
40,3,1,118,NaN,NaN,1,NaN,8.254803e-01,NaN,2,0,3,1
40,4,1,94,NaN,NaN,1,NaN,6.373644e-01,NaN,2,1,2,1
40,5,1,115,NaN,NaN,1,NaN,1.261451e+00,NaN,1,1,3,1
40,6,1,48,NaN,NaN,1,NaN,1.116643e+00,NaN,1,0,1,1
40,7,1,127,NaN,NaN,1,NaN,1.228527e-04,NaN,2,0,3,1
40,8,1,89,NaN,NaN,1,NaN,1.303990e-04,NaN,0,0,2,1
40,9,1,126,NaN,NaN,1,NaN,7.179878e-01,NaN,2,0,3,1
40,10,1,104,NaN,NaN,1,NaN,1.246638e-04,NaN,0,0,3,1
40,11,1,24,NaN,NaN,1,NaN,7.966202e-01,NaN,0,0,1,1
40,12,1,35,NaN,NaN,1,NaN,1.022809e+00,NaN,2,0,1,1
40,13,1,35,NaN,NaN,1,NaN,5.200253e-01,NaN,0,0,1,1
40,14,1,101,NaN,NaN,1,NaN,7.478625e-01,NaN,0,1,3,1
40,15,1,90,NaN,NaN,1,NaN,8.884455e-01,NaN,0,0,2,1
40,16,1,123,NaN,NaN,1,NaN,9.507306e-01,NaN,0,1,3,1
40,17,1,102,NaN,NaN,1,NaN,2.627094e+00,NaN,2,1,3,1
40,18,1,119,NaN,NaN,1,NaN,5.869788e-01,NaN,0,0,3,1
40,19,1,40,NaN,NaN,1,NaN,4.697233e-01,NaN,2,0,1,1
40,20,1,26,NaN,NaN,1,NaN,4.437887e-01,NaN,0,1,1,1
40,21,1,70,NaN,NaN,1,NaN,5.565738e-01,NaN,1,0,2,1
40,22,1,124,NaN,NaN,1,NaN,3.517482e-01,NaN,0,0,3,1
40,23,1,31,NaN,NaN,1,NaN,2.916433e-01,NaN,0,0,1,1
40,24,1,92,NaN,NaN,1,NaN,5.705277e-01,NaN,0,0,2,1
40,25,1,52,NaN,NaN,1,NaN,4.532308e-01,NaN,2,0,2,1
40,26,1,111,NaN,NaN,1,NaN,2.607231e-01,NaN,0,0,3,1
40,27,1,14,NaN,NaN,1,NaN,1.228527e-04,NaN,2,0,1,1
40,28,1,64,NaN,NaN,1,NaN,2.986818e-01,NaN,0,0,2,1
40,29,1,126,NaN,NaN,1,NaN,3.132545e-01,NaN,0,0,3,1
40,30,1,87,NaN,NaN,1,NaN,3.106296e-01,NaN,0,0,2,1
40,31,1,96,NaN,NaN,1,NaN,3.083277e-01,NaN,1,0,2,1
40,32,1,27,NaN,NaN,1,NaN,4.021881e-01,NaN,0,0,1,1
40,33,1,140,NaN,NaN,1,NaN,7.549263e-01,NaN,0,0,3,1
40,34,1,59,NaN,NaN,1,NaN,5.812150e-01,NaN,0,0,2,1
40,35,1,75,NaN,NaN,1,NaN,5.846494e-01,NaN,1,0,2,1
40,36,1,63,NaN,NaN,1,NaN,1.795141e-01,NaN,1,0,2,1
40,37,1,84,NaN,NaN,1,NaN,8.382105e-01,NaN,1,0,2,1
40,38,1,136,NaN,NaN,2,NaN,8.869535e-01,NaN,0,0,3,1
40,39,1,37,NaN,NaN,1,NaN,1.319082e-04,NaN,0,1,1,1
40,40,1,93,NaN,NaN,1,NaN,1.718480e+00,NaN,1,0,2,1
40,41,1,121,NaN,NaN,2,NaN,1.231546e-04,NaN,0,0,3,1
40,42,1,138,NaN,NaN,1,NaN,1.189287e-04,NaN,0,0,3,1
40,43,1,11,NaN,NaN,1,NaN,5.923330e-01,NaN,0,1,1,1
40,44,1,24,NaN,NaN,1,NaN,7.871418e-01,NaN,2,0,1,1
40,45,1,10,NaN,NaN,1,NaN,5.176002e-01,NaN,1,0,1,1
40,46,1,16,NaN,NaN,1,NaN,3.710264e-01,NaN,2,0,1,1
40,47,1,98,NaN,NaN,1,NaN,5.337386e-01,NaN,0,0,3,1
40,48,1,95,NaN,NaN,1,NaN,3.222300e-01,NaN,0,0,2,1
40,49,1,58,NaN,NaN,1,NaN,4.073470e-01,NaN,0,1,2,1
40,50,1,90,NaN,NaN,1,NaN,5.372099e-01,NaN,2,0,2,1
40,51,1,104,NaN,NaN,1,NaN,3.971424e-01,NaN,2,0,3,1
40,52,1,91,NaN,NaN,1,NaN,2.555231e-01,NaN,1,0,2,1
40,53,1,18,NaN,NaN,1,NaN,8.063859e-01,NaN,0,0,1,1
40,54,1,39,NaN,NaN,2,NaN,1.176749e+00,NaN,1,0,1,1
40,55,1,55,NaN,NaN,1,NaN,3.627566e-01,NaN,0,1,2,1
40,56,1,60,NaN,NaN,2,NaN,1.291916e-04,NaN,0,0,2,1
40,57,1,55,NaN,NaN,1,NaN,2.790830e-01,NaN,2,1,2,1
40,58,1,41,NaN,NaN,2,NaN,1.497306e-01,NaN,0,1,1,1
40,59,1,34,NaN,NaN,1,NaN,2.660268e-01,NaN,2,1,1,1
40,60,1,41,NaN,NaN,1,NaN,1.240926e+00,NaN,2,1,1,1
40,61,1,106,NaN,NaN,1,NaN,1.033145e+00,NaN,1,0,3,1
40,62,1,5,NaN,NaN,1,NaN,3.451854e-01,NaN,0,1,1,1
40,63,1,70,NaN,NaN,1,NaN,3.410808e-01,NaN,0,0,2,1
40,64,1,68,NaN,NaN,1,NaN,2.727267e-01,NaN,0,0,2,1
40,65,1,21,NaN,NaN,1,NaN,1.175897e+00,NaN,0,0,1,1
40,66,1,84,NaN,NaN,1,NaN,4.108539e-01,NaN,0,0,2,1
40,67,1,139,NaN,NaN,1,NaN,9.308493e-02,NaN,2,1,3,1
40,68,1,23,NaN,NaN,1,NaN,1.027380e+00,NaN,1,0,1,1
40,69,1,82,NaN,NaN,1,NaN,4.447003e-01,NaN,1,1,2,1
40,70,1,109,NaN,NaN,1,NaN,3.806765e-01,NaN,1,0,3,1
40,71,1,83,NaN,NaN,1,NaN,1.348322e-01,NaN,0,0,2,1
40,72,1,42,NaN,NaN,2,NaN,1.228527e-04,NaN,1,0,1,1
40,73,1,36,NaN,NaN,1,NaN,2.940490e-01,NaN,1,0,1,1
40,74,1,12,NaN,NaN,1,NaN,2.526441e-01,NaN,2,0,1,1
40,75,1,113,NaN,NaN,1,NaN,2.091454e-02,NaN,2,0,3,1
40,76,1,116,NaN,NaN,1,NaN,1.905412e-01,NaN,2,0,3,1
40,77,1,120,NaN,NaN,1,NaN,2.935740e+00,NaN,0,0,3,1
40,78,1,36,NaN,NaN,1,NaN,1.004923e-01,NaN,0,0,1,1
40,79,1,63,NaN,NaN,1,NaN,7.549876e-01,NaN,0,0,2,1
40,80,1,144,NaN,NaN,1,NaN,5.589231e-01,NaN,1,0,3,1
40,81,1,10,NaN,NaN,1,NaN,4.655360e-01,NaN,0,0,1,1
40,82,1,32,NaN,NaN,2,NaN,6.966721e-01,NaN,0,1,1,1
40,83,1,65,NaN,NaN,1,NaN,1.430179e+00,NaN,1,0,2,1
40,84,1,105,NaN,NaN,1,NaN,5.428804e-01,NaN,1,0,3,1
40,85,1,122,NaN,NaN,2,NaN,1.237583e-04,NaN,2,0,3,1
40,86,1,48,NaN,NaN,1,NaN,5.976619e-01,NaN,0,0,1,1
40,87,1,107,NaN,NaN,1,NaN,6.372645e-02,NaN,2,0,3,1
40,88,1,27,NaN,NaN,1,NaN,1.276823e-04,NaN,2,0,1,1
40,89,1,74,NaN,NaN,1,NaN,1.619262e-01,NaN,0,0,2,1
40,90,1,9,NaN,NaN,1,NaN,1.494650e-01,NaN,0,1,1,1
40,91,1,111,NaN,NaN,1,NaN,6.818604e-01,NaN,1,0,3,1
40,92,1,81,NaN,NaN,2,NaN,1.596783e-04,NaN,0,0,2,1
40,93,1,134,NaN,NaN,2,NaN,1.942926e-01,NaN,0,0,3,1
40,94,1,86,NaN,NaN,2,NaN,2.772885e-01,NaN,2,0,2,1
40,95,1,33,NaN,NaN,1,NaN,3.882203e-01,NaN,1,0,1,1
40,96,1,125,NaN,NaN,1,NaN,1.109635e-01,NaN,2,1,3,1
40,97,1,137,NaN,NaN,1,NaN,3.250746e-01,NaN,0,1,3,1
40,98,1,28,NaN,NaN,2,NaN,8.660504e-01,NaN,1,1,1,1
40,99,1,30,NaN,NaN,1,NaN,1.186268e-04,NaN,2,0,1,1
40,100,1,88,NaN,NaN,1,NaN,7.958704e-01,NaN,1,1,2,1
40,101,1,46,NaN,NaN,1,NaN,4.783203e-01,NaN,0,1,1,1
40,102,1,105,NaN,NaN,1,NaN,3.407412e-01,NaN,0,0,3,1
40,103,1,22,NaN,NaN,1,NaN,2.487442e-01,NaN,0,0,1,1
40,104,1,106,NaN,NaN,1,NaN,3.684954e-01,NaN,0,0,3,1
40,105,1,130,NaN,NaN,1,NaN,4.683728e-01,NaN,0,0,3,1
40,106,1,123,NaN,NaN,1,NaN,1.225509e-04,NaN,1,1,3,1
40,107,1,131,NaN,NaN,2,NaN,4.143481e-01,NaN,0,1,3,1
40,108,1,120,NaN,NaN,1,NaN,3.121226e-01,NaN,2,0,3,1
40,109,1,29,NaN,NaN,1,NaN,4.613095e-01,NaN,1,0,1,1
40,110,1,64,NaN,NaN,1,NaN,3.489669e-01,NaN,2,0,2,1
40,111,1,110,NaN,NaN,2,NaN,1.145057e+00,NaN,1,0,3,1
40,112,1,82,NaN,NaN,1,NaN,4.130816e-01,NaN,0,1,2,1
40,113,1,121,NaN,NaN,1,NaN,2.784413e-01,NaN,2,0,3,1
40,114,1,13,NaN,NaN,2,NaN,1.976504e-01,NaN,2,0,1,1
40,115,1,125,NaN,NaN,1,NaN,1.264749e-04,NaN,0,1,3,1
40,116,1,68,NaN,NaN,1,NaN,2.806539e-01,NaN,2,0,2,1
40,117,1,39,NaN,NaN,2,NaN,2.152271e-01,NaN,0,0,1,1
40,118,1,136,NaN,NaN,1,NaN,2.726367e-01,NaN,1,0,3,1
40,119,1,6,NaN,NaN,1,NaN,1.575896e-02,NaN,1,0,1,1
40,120,1,144,NaN,NaN,1,NaN,3.935383e-01,NaN,0,0,3,1
40,121,1,122,NaN,NaN,2,NaN,1.252135e+00,NaN,0,0,3,1
40,122,1,97,NaN,NaN,1,NaN,9.557329e-01,NaN,0,0,3,1
40,123,1,47,NaN,NaN,2,NaN,3.955405e-02,NaN,1,0,1,1
40,124,1,73,NaN,NaN,1,NaN,1.231546e-04,NaN,0,0,2,1
40,125,1,142,NaN,NaN,2,NaN,4.494900e-01,NaN,0,0,3,1
40,126,1,38,NaN,NaN,1,NaN,1.267768e-04,NaN,0,0,1,1
40,127,1,2,NaN,NaN,1,NaN,1.445859e-04,NaN,1,1,1,1
40,128,1,61,NaN,NaN,1,NaN,3.635746e-02,NaN,2,0,2,1
40,129,1,43,NaN,NaN,1,NaN,2.131163e-01,NaN,2,1,1,1
40,130,1,113,NaN,NaN,1,NaN,2.223824e-01,NaN,0,0,3,1
40,131,1,100,NaN,NaN,1,NaN,7.706820e-03,NaN,2,0,3,1
40,132,1,19,NaN,NaN,2,NaN,5.132050e-01,NaN,0,0,1,1
40,133,1,129,NaN,NaN,1,NaN,3.419435e-01,NaN,0,1,3,1
40,134,1,9,NaN,NaN,1,NaN,7.473671e-02,NaN,1,1,1,1
40,135,1,31,NaN,NaN,1,NaN,2.657817e-01,NaN,1,0,1,1
40,136,1,142,NaN,NaN,1,NaN,3.134450e-01,NaN,1,0,3,1
40,137,1,22,NaN,NaN,1,NaN,1.249657e-04,NaN,2,0,1,1
40,138,1,56,NaN,NaN,2,NaN,6.165637e-01,NaN,0,0,2,1
40,139,1,50,NaN,NaN,1,NaN,7.380249e-02,NaN,0,0,2,1
40,140,1,67,NaN,NaN,2,NaN,1.591189e+00,NaN,2,0,2,1
40,141,1,8,NaN,NaN,1,NaN,1.328137e-04,NaN,1,1,1,1
40,142,1,76,NaN,NaN,1,NaN,2.822202e-02,NaN,1,0,2,1
40,143,1,54,NaN,NaN,1,NaN,6.213592e-01,NaN,0,0,2,1
40,144,1,44,NaN,NaN,1,NaN,5.975755e-01,NaN,0,0,1,1
40,145,1,131,NaN,NaN,1,NaN,7.115355e-01,NaN,2,1,3,1
40,146,1,58,NaN,NaN,1,NaN,3.170279e-01,NaN,1,1,2,1
40,147,1,119,NaN,NaN,1,NaN,6.345826e-01,NaN,1,0,3,1
40,148,1,8,NaN,NaN,1,NaN,4.192680e-01,NaN,0,1,1,1
40,149,1,69,NaN,NaN,1,NaN,4.211738e-01,NaN,1,0,2,1
40,150,1,34,NaN,NaN,1,NaN,4.687673e-01,NaN,0,1,1,1
40,151,1,109,NaN,NaN,1,NaN,4.593282e-01,NaN,0,0,3,1
40,152,1,59,NaN,NaN,1,NaN,4.193947e-01,NaN,2,0,2,1
40,153,1,17,NaN,NaN,1,NaN,8.047511e-01,NaN,1,0,1,1
40,154,1,102,NaN,NaN,1,NaN,3.106052e-01,NaN,0,1,3,1
40,155,1,19,NaN,NaN,2,NaN,2.476455e+00,NaN,2,0,1,1
40,156,1,108,NaN,NaN,1,NaN,1.346248e-04,NaN,0,0,3,1
40,157,1,99,NaN,NaN,1,NaN,6.994778e-01,NaN,1,1,3,1
40,158,1,4,NaN,NaN,1,NaN,9.730780e-02,NaN,0,0,1,1
40,159,1,97,NaN,NaN,1,NaN,1.189287e-04,NaN,1,0,3,1
40,160,1,13,NaN,NaN,1,NaN,3.860220e-01,NaN,0,0,1,1
40,161,1,139,NaN,NaN,1,NaN,1.246638e-04,NaN,0,1,3,1
40,162,1,67,NaN,NaN,1,NaN,1.270786e-04,NaN,0,0,2,1
40,163,1,112,NaN,NaN,1,NaN,5.905672e-01,NaN,0,0,3,1
40,164,1,6,NaN,NaN,1,NaN,1.228527e-04,NaN,0,0,1,1
40,165,1,98,NaN,NaN,1,NaN,1.228527e-04,NaN,2,0,3,1
40,166,1,56,NaN,NaN,1,NaN,5.342167e-01,NaN,2,0,2,1
40,167,1,78,NaN,NaN,1,NaN,5.017281e-02,NaN,0,0,2,1
40,168,1,79,NaN,NaN,1,NaN,5.138078e-01,NaN,0,0,2,1
40,169,1,29,NaN,NaN,1,NaN,1.991485e-01,NaN,0,0,1,1
40,170,1,71,NaN,NaN,1,NaN,6.087253e-01,NaN,0,1,2,1
40,171,1,15,NaN,NaN,1,NaN,4.905926e-01,NaN,0,1,1,1
40,172,1,114,NaN,NaN,1,NaN,1.255694e-04,NaN,0,0,3,1
40,173,1,14,NaN,NaN,1,NaN,3.464531e-01,NaN,0,0,1,1
40,174,1,85,NaN,NaN,1,NaN,3.902663e-01,NaN,2,0,2,1
40,175,1,30,NaN,NaN,1,NaN,2.404967e-01,NaN,0,0,1,1
40,176,1,3,NaN,NaN,1,NaN,4.490846e-01,NaN,2,0,1,1
40,177,1,96,NaN,NaN,2,NaN,1.153384e+00,NaN,0,0,2,1
40,178,1,69,NaN,NaN,1,NaN,3.091521e-01,NaN,0,0,2,1
40,179,1,50,NaN,NaN,1,NaN,5.381166e-01,NaN,2,0,2,1
40,180,1,141,NaN,NaN,1,NaN,1.678926e+00,NaN,2,0,3,1
40,181,1,103,NaN,NaN,2,NaN,3.094259e-01,NaN,0,0,3,1
40,182,1,3,NaN,NaN,1,NaN,6.113166e-01,NaN,0,0,1,1
40,183,1,135,NaN,NaN,1,NaN,1.316876e+00,NaN,2,0,3,1
40,184,1,140,NaN,NaN,1,NaN,3.867126e-01,NaN,2,0,3,1
40,185,1,1,NaN,NaN,1,NaN,3.010888e-01,NaN,2,0,1,1
40,186,1,95,NaN,NaN,1,NaN,4.513775e-01,NaN,1,0,2,1
40,187,1,44,NaN,NaN,1,NaN,4.758089e-01,NaN,2,0,1,1
40,188,1,137,NaN,NaN,1,NaN,5.871427e-01,NaN,1,1,3,1
40,189,1,143,NaN,NaN,2,NaN,6.080123e-02,NaN,0,1,3,1
40,190,1,72,NaN,NaN,1,NaN,1.083310e-01,NaN,0,0,2,1
40,191,1,17,NaN,NaN,1,NaN,3.704360e-01,NaN,0,0,1,1
40,192,1,138,NaN,NaN,1,NaN,4.140647e-01,NaN,1,0,3,1
40,193,1,93,NaN,NaN,1,NaN,3.908002e-01,NaN,0,0,2,1
40,194,1,133,NaN,NaN,2,NaN,8.727662e-01,NaN,0,1,3,1
40,195,1,25,NaN,NaN,1,NaN,8.007914e-02,NaN,0,1,1,1
40,196,1,57,NaN,NaN,1,NaN,6.880114e-02,NaN,0,0,2,1
40,197,1,46,NaN,NaN,1,NaN,1.240601e-04,NaN,1,1,1,1
40,198,1,76,NaN,NaN,1,NaN,5.013933e-01,NaN,0,0,2,1
40,199,1,47,NaN,NaN,1,NaN,3.467933e-01,NaN,0,0,1,1
40,200,1,91,NaN,NaN,1,NaN,3.350571e-01,NaN,0,0,2,1
40,201,1,33,NaN,NaN,1,NaN,4.441268e-01,NaN,0,0,1,1
40,202,1,117,NaN,NaN,2,NaN,5.257976e-02,NaN,1,0,3,1
40,203,1,53,NaN,NaN,1,NaN,3.570984e-01,NaN,0,0,2,1
40,204,1,52,NaN,NaN,1,NaN,8.326975e-01,NaN,0,0,2,1
40,205,1,7,NaN,NaN,1,NaN,9.713193e+00,NaN,1,0,1,1
40,206,1,128,NaN,NaN,2,NaN,2.429112e+00,NaN,0,1,3,1
40,207,1,85,NaN,NaN,1,NaN,2.933813e-01,NaN,0,0,2,1
40,208,1,74,NaN,NaN,1,NaN,9.716600e-01,NaN,1,0,2,1
40,209,1,18,NaN,NaN,1,NaN,3.526784e+00,NaN,2,0,1,1
40,210,1,114,NaN,NaN,1,NaN,3.307667e+00,NaN,1,0,3,1
40,211,1,72,NaN,NaN,1,NaN,1.001236e+00,NaN,2,0,2,1
40,212,1,5,NaN,NaN,1,NaN,8.520908e-01,NaN,2,1,1,1
40,213,1,100,NaN,NaN,1,NaN,1.115948e+00,NaN,0,0,3,1
40,214,1,25,NaN,NaN,1,NaN,1.345568e+00,NaN,2,1,1,1
40,215,1,12,NaN,NaN,1,NaN,7.802747e-01,NaN,0,0,1,1
40,216,1,62,NaN,NaN,1,NaN,3.432647e-01,NaN,0,0,2,1
40,217,1,141,NaN,NaN,1,NaN,1.201361e-04,NaN,0,0,3,1
40,218,1,83,NaN,NaN,1,NaN,4.216547e-01,NaN,2,0,2,1
40,219,1,51,NaN,NaN,1,NaN,2.788286e-01,NaN,2,0,2,1
40,220,1,43,NaN,NaN,1,NaN,5.319855e-02,NaN,0,1,1,1
40,221,1,7,NaN,NaN,1,NaN,1.727457e-01,NaN,0,0,1,1
40,222,1,87,NaN,NaN,1,NaN,4.322674e-01,NaN,1,0,2,1
40,223,1,110,NaN,NaN,1,NaN,3.285088e-02,NaN,0,0,3,1
40,224,1,129,NaN,NaN,1,NaN,1.237583e-04,NaN,1,1,3,1
40,225,1,94,NaN,NaN,1,NaN,1.010475e+00,NaN,0,1,2,1
40,226,1,89,NaN,NaN,1,NaN,3.488993e-01,NaN,2,0,2,1
40,227,1,49,NaN,NaN,1,NaN,1.767573e-01,NaN,0,1,2,1
40,228,1,53,NaN,NaN,1,NaN,3.242633e-01,NaN,2,0,2,1
40,229,1,26,NaN,NaN,2,NaN,4.136122e-02,NaN,1,1,1,1
40,230,1,134,NaN,NaN,2,NaN,2.657801e+00,NaN,1,0,3,1
40,231,1,42,NaN,NaN,1,NaN,4.175719e-01,NaN,0,0,1,1
40,232,1,60,NaN,NaN,1,NaN,1.195324e-04,NaN,2,0,2,1
40,233,1,86,NaN,NaN,1,NaN,1.735806e-01,NaN,0,0,2,1
40,234,1,132,NaN,NaN,1,NaN,2.832709e+00,NaN,2,1,3,1
40,235,1,45,NaN,NaN,1,NaN,3.772819e-01,NaN,1,0,1,1
40,236,1,75,NaN,NaN,1,NaN,1.246638e-04,NaN,0,0,2,1
40,237,1,51,NaN,NaN,1,NaN,3.102318e-01,NaN,0,0,2,1
40,238,1,23,NaN,NaN,1,NaN,5.092210e+00,NaN,0,0,1,1
40,239,1,127,NaN,NaN,1,NaN,4.181532e-01,NaN,0,0,3,1
40,240,1,118,NaN,NaN,1,NaN,4.199722e-01,NaN,0,0,3,1
40,241,1,66,NaN,NaN,1,NaN,4.202363e-01,NaN,0,0,2,1
40,242,1,62,NaN,NaN,1,NaN,2.536269e-01,NaN,1,0,2,1
40,243,1,15,NaN,NaN,1,NaN,2.963256e-02,NaN,1,1,1,1
40,244,1,40,NaN,NaN,2,NaN,2.206387e+00,NaN,0,0,1,1
40,245,1,88,NaN,NaN,1,NaN,1.194572e-01,NaN,0,1,2,1
40,246,1,132,NaN,NaN,1,NaN,1.243620e-04,NaN,0,1,3,1
40,247,1,135,NaN,NaN,1,NaN,1.194367e-01,NaN,0,0,3,1
40,248,1,77,NaN,NaN,1,NaN,3.096574e-01,NaN,2,0,2,1
40,249,1,116,NaN,NaN,1,NaN,4.820134e-01,NaN,0,0,3,1
40,250,1,11,NaN,NaN,1,NaN,4.171312e-01,NaN,2,1,1,1
40,251,1,71,NaN,NaN,1,NaN,2.825990e-01,NaN,2,1,2,1
40,252,1,49,NaN,NaN,1,NaN,1.769321e-02,NaN,1,1,2,1
40,253,1,2,NaN,NaN,1,NaN,3.547525e-01,NaN,0,1,1,1
40,254,1,77,NaN,NaN,1,NaN,6.209674e-01,NaN,0,0,2,1
40,255,1,117,NaN,NaN,1,NaN,1.533730e+00,NaN,0,0,3,1
40,256,1,101,NaN,NaN,1,NaN,1.258712e-04,NaN,2,1,3,1
40,257,1,133,NaN,NaN,2,NaN,1.492925e+00,NaN,1,1,3,1
40,258,1,124,NaN,NaN,1,NaN,3.709536e-01,NaN,1,0,3,1
40,259,1,16,NaN,NaN,1,NaN,1.307008e-04,NaN,0,0,1,1
40,260,1,20,NaN,NaN,1,NaN,7.439272e-01,NaN,0,0,1,1
40,261,1,20,NaN,NaN,1,NaN,4.445152e-01,NaN,2,0,1,1
40,262,1,80,NaN,NaN,1,NaN,1.225509e-04,NaN,1,0,2,1
40,263,1,37,NaN,NaN,1,NaN,1.533395e-04,NaN,2,1,1,1
40,264,1,45,NaN,NaN,1,NaN,2.501136e-01,NaN,0,0,1,1
40,265,1,66,NaN,NaN,1,NaN,3.782780e-01,NaN,2,0,2,1
40,266,1,92,NaN,NaN,1,NaN,1.486856e-01,NaN,1,0,2,1
40,267,1,128,NaN,NaN,1,NaN,4.005391e-02,NaN,1,1,3,1
40,268,1,108,NaN,NaN,1,NaN,3.126783e-01,NaN,2,0,3,1
40,269,1,143,NaN,NaN,1,NaN,5.344057e-01,NaN,2,1,3,1
40,270,1,57,NaN,NaN,1,NaN,6.271855e-01,NaN,1,0,2,1
40,271,1,32,NaN,NaN,2,NaN,4.683146e-01,NaN,2,1,1,1
40,272,1,80,NaN,NaN,1,NaN,7.457945e-02,NaN,0,0,2,1
40,273,1,1,NaN,NaN,1,NaN,3.613711e-01,NaN,0,0,1,1
40,274,1,73,NaN,NaN,1,NaN,1.264749e-04,NaN,1,0,2,1
40,275,1,54,NaN,NaN,1,NaN,3.840575e-01,NaN,1,0,2,1
40,276,1,103,NaN,NaN,1,NaN,1.225509e-04,NaN,1,0,3,1
40,277,1,38,NaN,NaN,1,NaN,4.132098e-01,NaN,1,0,1,1
40,278,1,21,NaN,NaN,1,NaN,3.187796e-01,NaN,1,0,1,1
40,279,1,78,NaN,NaN,1,NaN,1.562469e-01,NaN,1,0,2,1
40,280,1,65,NaN,NaN,1,NaN,8.070950e-01,NaN,0,0,2,1
40,281,1,79,NaN,NaN,1,NaN,1.252675e-04,NaN,2,0,2,1
40,282,1,112,NaN,NaN,1,NaN,2.339357e-01,NaN,1,0,3,1
40,283,1,107,NaN,NaN,1,NaN,3.149618e-01,NaN,0,0,3,1
40,284,1,4,NaN,NaN,1,NaN,2.400726e-01,NaN,1,0,1,1
40,285,1,81,NaN,NaN,1,NaN,2.887947e-01,NaN,2,0,2,1
40,286,1,61,NaN,NaN,1,NaN,3.342499e-01,NaN,0,0,2,1
40,287,1,115,NaN,NaN,1,NaN,9.713322e-01,NaN,0,1,3,1
40,288,1,130,NaN,NaN,1,NaN,1.243620e-04,NaN,2,0,3,1
40,347,2,9,23,2,1,0,2.668888e+00,NaN,1,1,1,1
40,348,2,29,69,1,0,0,3.499810e+00,NaN,1,0,1,1
40,349,2,47,51,2,1,0,1.881323e+00,NaN,1,0,1,1
40,350,2,142,39,1,2,0,2.203437e+00,NaN,1,0,3,1
40,351,2,6,59,2,2,1,1.409027e+00,NaN,1,0,1,1
40,352,2,111,33,1,1,1,1.325946e+00,NaN,1,0,3,1
40,353,2,57,25,1,1,1,1.902552e+00,NaN,1,0,2,1
40,354,2,65,32,2,2,1,2.135533e+00,NaN,1,0,2,1
40,355,2,74,8,1,1,1,1.351444e+00,NaN,1,0,2,1
40,356,2,4,6,2,2,1,1.680137e+00,NaN,1,0,1,1
40,357,2,84,26,1,1,1,2.265007e+00,NaN,1,0,2,1
40,358,2,128,66,2,2,1,1.483898e+00,NaN,1,1,3,1
40,359,2,106,3,2,2,1,8.699261e-01,NaN,1,0,3,1
40,360,2,112,5,2,2,1,1.409187e+00,NaN,1,0,3,1
40,361,2,134,27,2,2,1,1.406291e+00,NaN,1,0,3,1
40,362,2,63,21,1,1,1,9.636422e-01,NaN,1,0,2,1
40,363,2,93,18,1,1,1,7.621493e-01,NaN,1,0,2,1
40,364,2,46,1,1,1,1,1.080892e+00,NaN,1,1,1,1
40,365,2,7,35,2,2,1,3.147228e+00,NaN,1,0,1,1
40,366,2,62,68,2,2,1,1.994204e+00,NaN,1,0,2,1
40,367,2,38,15,2,2,1,1.847962e+00,NaN,1,0,1,1
40,368,2,91,63,2,2,1,1.227473e+00,NaN,1,0,2,1
40,369,2,103,12,1,1,1,1.503931e+00,NaN,1,0,3,1
40,370,2,75,64,2,2,1,9.208228e-01,NaN,1,0,2,1
40,371,3,38,15,2,2,1,2.106631e+00,NaN,1,0,1,1
40,372,3,7,35,2,2,1,1.587503e+00,NaN,1,0,1,1
40,373,3,46,1,1,1,1,1.137197e+00,NaN,1,1,1,1
40,374,3,111,33,1,1,1,1.792970e+00,NaN,1,0,3,1
40,375,3,29,69,2,2,1,1.766900e+00,NaN,1,0,1,1
40,376,3,47,51,2,1,0,1.134065e+00,NaN,1,0,1,1
40,377,3,91,63,1,1,1,7.581951e-01,NaN,1,0,2,1
40,378,3,142,39,1,2,0,2.077674e+00,NaN,1,0,3,1
40,379,3,75,64,2,2,1,6.805404e-01,NaN,1,0,2,1
40,380,3,57,25,1,1,1,1.634262e+00,NaN,1,0,2,1
40,381,3,112,5,1,1,1,1.046971e+00,NaN,1,0,3,1
40,382,3,6,59,1,2,0,2.786396e+00,NaN,1,0,1,1
40,383,3,134,27,1,1,1,2.327708e+00,NaN,1,0,3,1
40,384,3,4,6,2,2,1,7.203139e-01,NaN,1,0,1,1
40,385,3,9,23,2,1,0,3.096832e+00,NaN,1,1,1,1
40,386,3,74,8,1,1,1,8.101334e-01,NaN,1,0,2,1
40,387,3,106,3,1,1,1,1.239652e+00,NaN,1,0,3,1
40,388,3,128,66,2,2,1,1.731226e+00,NaN,1,1,3,1
40,389,3,84,26,2,2,1,1.731300e+00,NaN,1,0,2,1
40,390,3,93,18,1,1,1,5.156231e-01,NaN,1,0,2,1
40,391,3,103,12,2,2,1,7.081511e-01,NaN,1,0,3,1
40,392,3,62,68,2,2,1,7.896529e-01,NaN,1,0,2,1
40,393,3,63,21,2,2,1,2.691458e+00,NaN,1,0,2,1
40,394,3,65,32,2,0,0,3.499909e+00,NaN,1,0,2,1
40,419,2,45,58,2,2,1,1.938309e+00,NaN,1,0,1,2
40,420,2,97,57,1,1,1,2.698228e+00,NaN,1,0,3,2
40,421,2,15,28,1,1,1,1.787340e+00,NaN,1,1,1,2
40,422,2,48,45,1,1,1,1.480795e+00,NaN,1,0,1,2
40,423,2,96,38,1,1,1,7.233354e-01,NaN,1,0,2,2
40,424,2,73,20,1,2,0,1.171678e+00,NaN,1,0,2,2
40,425,2,39,40,1,1,1,1.026075e+00,NaN,1,0,1,2
40,426,2,138,46,1,1,1,1.390323e+00,NaN,1,0,3,2
40,427,2,80,47,1,1,1,1.244322e+00,NaN,1,0,2,2
40,428,2,129,55,2,2,1,2.096208e+00,NaN,1,1,3,2
40,429,2,144,24,1,1,1,8.737270e-01,NaN,1,0,3,2
40,430,2,70,7,2,1,0,2.196432e+00,NaN,1,0,2,2
40,431,2,95,41,2,2,1,2.145603e+00,NaN,1,0,2,2
40,432,2,115,13,2,2,1,2.480746e+00,NaN,1,1,3,2
40,433,2,133,67,1,1,1,1.731449e+00,NaN,1,1,3,2
40,434,2,82,60,1,1,1,1.258964e+00,NaN,1,1,2,2
40,435,2,2,22,2,2,1,1.326439e+00,NaN,1,1,1,2
40,436,2,99,14,2,2,1,1.687066e+00,NaN,1,1,3,2
40,437,2,87,10,2,1,0,1.456541e+00,NaN,1,0,2,2
40,438,2,23,54,2,2,1,2.611571e+00,NaN,1,0,1,2
40,439,2,49,61,1,1,1,7.840457e-01,NaN,1,1,2,2
40,440,2,33,29,1,1,1,2.422708e+00,NaN,1,0,1,2
40,441,2,26,11,1,0,0,3.500046e+00,NaN,1,1,1,2
40,442,2,92,30,2,1,0,1.908205e+00,NaN,1,0,2,2
40,443,3,99,14,2,2,1,1.025912e+00,NaN,1,1,3,2
40,444,3,39,40,1,1,1,8.783405e-01,NaN,1,0,1,2
40,445,3,49,61,2,2,1,1.512750e+00,NaN,1,1,2,2
40,446,3,115,13,1,1,1,1.289545e+00,NaN,1,1,3,2
40,447,3,129,55,2,2,1,1.675054e+00,NaN,1,1,3,2
40,448,3,96,38,1,1,1,5.733953e-01,NaN,1,0,2,2
40,449,3,15,28,2,2,1,1.700014e+00,NaN,1,1,1,2
40,450,3,33,29,2,1,0,1.069373e+00,NaN,1,0,1,2
40,451,3,73,20,2,1,0,7.205236e-01,NaN,1,0,2,2
40,452,3,48,45,1,1,1,1.016566e+00,NaN,1,0,1,2
40,453,3,87,10,2,2,1,1.245566e+00,NaN,1,0,2,2
40,454,3,144,24,2,2,1,1.777089e+00,NaN,1,0,3,2
40,455,3,80,47,1,1,1,5.839395e-01,NaN,1,0,2,2
40,456,3,26,11,1,1,1,1.621656e+00,NaN,1,1,1,2
40,457,3,82,60,1,1,1,1.065872e+00,NaN,1,1,2,2
40,458,3,23,54,2,1,0,1.780942e+00,NaN,1,0,1,2
40,459,3,70,7,1,1,1,1.394991e+00,NaN,1,0,2,2
40,460,3,2,22,2,2,1,1.656410e+00,NaN,1,1,1,2
40,461,3,95,41,1,2,0,1.819504e+00,NaN,1,0,2,2
40,462,3,133,67,1,1,1,8.805790e-01,NaN,1,1,3,2
40,463,3,92,30,1,1,1,1.226819e+00,NaN,1,0,2,2
40,464,3,97,57,1,1,1,6.877899e-01,NaN,1,0,3,2
40,465,3,45,58,1,1,1,1.081152e+00,NaN,1,0,1,2
40,466,3,138,46,1,1,1,8.194723e-01,NaN,1,0,3,2
40,491,2,88,50,2,0,0,3.499889e+00,NaN,1,1,2,3
40,492,2,17,44,1,1,1,1.501855e+00,NaN,1,0,1,3
40,493,2,123,2,2,2,1,2.047453e+00,NaN,1,1,3,3
40,494,2,119,71,2,2,1,1.522829e+00,NaN,1,0,3,3
40,495,2,8,72,1,1,1,3.011567e+00,NaN,1,1,1,3
40,496,2,54,16,1,1,1,1.072346e+00,NaN,1,0,2,3
40,497,2,136,48,2,2,1,1.290476e+00,NaN,1,0,3,3
40,498,2,105,9,1,1,1,7.566251e-01,NaN,1,0,3,3
40,499,2,124,4,2,2,1,1.283768e+00,NaN,1,0,3,3
40,500,2,69,17,1,1,1,7.979764e-01,NaN,1,0,2,3
40,501,2,21,65,1,1,1,1.459615e+00,NaN,1,0,1,3
40,502,2,31,53,1,1,1,2.142654e+00,NaN,1,0,1,3
40,503,2,76,31,1,1,1,1.597906e+00,NaN,1,0,2,3
40,504,2,36,70,1,2,0,1.995201e+00,NaN,1,0,1,3
40,505,2,42,49,1,1,1,2.304808e+00,NaN,1,0,1,3
40,506,2,114,36,2,2,1,1.185704e+00,NaN,1,0,3,3
40,507,2,110,43,1,1,1,8.961363e-01,NaN,1,0,3,3
40,508,2,78,34,1,1,1,8.576071e-01,NaN,1,0,2,3
40,509,2,137,42,2,2,1,1.860744e+00,NaN,1,1,3,3
40,510,2,117,37,1,2,0,1.775908e+00,NaN,1,0,3,3
40,511,2,10,56,2,2,1,1.558018e+00,NaN,1,0,1,3
40,512,2,28,62,2,2,1,1.973425e+00,NaN,1,1,1,3
40,513,2,109,19,2,2,1,1.099551e+00,NaN,1,0,3,3
40,514,2,58,52,1,1,1,1.252663e+00,NaN,1,1,2,3
40,515,3,76,31,2,2,1,9.898065e-01,NaN,1,0,2,3
40,516,3,58,52,1,1,1,6.516950e-01,NaN,1,1,2,3
40,517,3,69,17,1,1,1,5.670878e-01,NaN,1,0,2,3
40,518,3,78,34,1,1,1,6.776462e-01,NaN,1,0,2,3
40,519,3,36,70,1,2,0,1.840188e+00,NaN,1,0,1,3
40,520,3,136,48,2,2,1,1.211679e+00,NaN,1,0,3,3
40,521,3,88,50,1,1,1,9.124519e-01,NaN,1,1,2,3
40,522,3,42,49,2,1,0,1.881217e+00,NaN,1,0,1,3
40,523,3,8,72,1,1,1,1.011488e+00,NaN,1,1,1,3
40,524,3,119,71,2,2,1,8.808262e-01,NaN,1,0,3,3
40,525,3,17,44,1,1,1,1.722705e+00,NaN,1,0,1,3
40,526,3,114,36,2,2,1,8.113456e-01,NaN,1,0,3,3
40,527,3,137,42,2,2,1,1.632605e+00,NaN,1,1,3,3
40,528,3,10,56,1,1,1,1.220988e+00,NaN,1,0,1,3
40,529,3,109,19,1,1,1,1.232910e+00,NaN,1,0,3,3
40,530,3,21,65,2,2,1,1.149310e+00,NaN,1,0,1,3
40,531,3,54,16,2,2,1,7.806822e-01,NaN,1,0,2,3
40,532,3,110,43,1,1,1,8.109514e-01,NaN,1,0,3,3
40,533,3,28,62,2,2,1,1.695817e+00,NaN,1,1,1,3
40,534,3,31,53,1,1,1,1.489292e+00,NaN,1,0,1,3
40,535,3,105,9,2,2,1,1.331276e+00,NaN,1,0,3,3
40,536,3,123,2,2,2,1,1.339518e+00,NaN,1,1,3,3
40,537,3,124,4,2,2,1,9.792192e-01,NaN,1,0,3,3
40,538,3,117,37,1,1,1,1.897552e+00,NaN,1,0,3,3
40,563,4,67,43,1,1,1,1.314695e+00,NaN,2,0,2,1
40,564,4,100,26,2,2,1,1.971991e+00,NaN,2,0,3,1
40,565,4,14,30,1,1,1,1.074206e+00,NaN,2,0,1,1
40,566,4,120,64,1,1,1,1.700585e+00,NaN,2,0,3,1
40,567,4,102,52,1,1,1,8.782816e-01,NaN,2,1,3,1
40,568,4,35,19,1,2,0,2.737010e+00,NaN,2,0,1,1
40,569,4,130,44,2,2,1,1.704827e+00,NaN,2,0,3,1
40,570,4,85,56,1,1,1,9.386008e-01,NaN,2,0,2,1
40,571,4,56,27,2,2,1,1.897930e+00,NaN,2,0,2,1
40,572,4,19,8,1,1,1,1.811269e+00,NaN,2,0,1,1
40,573,4,50,33,2,2,1,9.364565e-01,NaN,2,0,2,1
40,574,4,72,65,2,2,1,1.320073e+00,NaN,2,0,2,1
40,575,4,143,1,2,2,1,1.393235e+00,NaN,2,1,3,1
40,576,4,113,31,2,1,0,1.774809e+00,NaN,2,0,3,1
40,577,4,12,10,1,1,1,3.117164e+00,NaN,2,0,1,1
40,578,4,22,21,1,2,0,2.189603e+00,NaN,2,0,1,1
40,579,4,25,42,1,1,1,1.083451e+00,NaN,2,1,1,1
40,580,4,44,12,2,2,1,2.317448e+00,NaN,2,0,1,1
40,581,4,3,32,2,1,0,1.845891e+00,NaN,2,0,1,1
40,582,4,118,63,2,2,1,1.217521e+00,NaN,2,0,3,1
40,583,4,140,59,1,1,1,1.710444e+00,NaN,2,0,3,1
40,584,4,77,51,1,1,1,1.735270e+00,NaN,2,0,2,1
40,585,4,139,22,2,2,1,1.527563e+00,NaN,2,1,3,1
40,586,4,1,68,1,1,1,1.312006e+00,NaN,2,0,1,1
40,611,4,24,36,2,2,1,2.239703e+00,NaN,2,0,1,2
40,612,4,101,61,1,1,1,1.939470e+00,NaN,2,1,3,2
40,613,4,126,35,1,1,1,1.188621e+00,NaN,2,0,3,2
40,614,4,18,18,2,2,1,1.409518e+00,NaN,2,0,1,2
40,615,4,79,69,1,2,0,1.542530e+00,NaN,2,0,2,2
40,616,4,83,53,2,2,1,8.141745e-01,NaN,2,0,2,2
40,617,4,107,34,1,1,1,2.595596e+00,NaN,2,0,3,2
40,618,4,20,20,1,1,1,2.553019e+00,NaN,2,0,1,2
40,619,4,11,60,2,2,1,2.504194e+00,NaN,2,1,1,2
40,620,4,60,48,1,1,1,1.376928e+00,NaN,2,0,2,2
40,621,4,61,3,2,2,1,1.591221e+00,NaN,2,0,2,2
40,622,4,122,58,1,1,1,1.525217e+00,NaN,2,0,3,2
40,623,4,132,62,1,1,1,1.901861e+00,NaN,2,1,3,2
40,624,4,55,67,1,1,1,2.199328e+00,NaN,2,1,2,2
40,625,4,71,23,1,1,1,1.836563e+00,NaN,2,1,2,2
40,626,4,125,11,1,1,1,7.607215e-01,NaN,2,1,3,2
40,627,4,68,54,1,1,1,5.753084e-01,NaN,2,0,2,2
40,628,4,64,57,2,2,1,2.149878e+00,NaN,2,0,2,2
40,629,4,51,37,1,1,1,1.260942e+00,NaN,2,0,2,2
40,630,4,53,5,1,1,1,6.165027e-01,NaN,2,0,2,2
40,631,4,13,41,2,2,1,1.732947e+00,NaN,2,0,1,2
40,632,4,27,39,1,2,0,2.413305e+00,NaN,2,0,1,2
40,633,4,90,6,1,1,1,2.049680e+00,NaN,2,0,2,2
40,634,4,66,4,2,1,0,1.141206e+00,NaN,2,0,2,2
40,659,4,141,40,2,2,1,1.723431e+00,NaN,2,0,3,3
40,660,4,40,24,2,1,0,2.243485e+00,NaN,2,0,1,3
40,661,4,37,55,2,2,1,1.911475e+00,NaN,2,1,1,3
40,662,4,121,16,1,1,1,1.224630e+00,NaN,2,0,3,3
40,663,4,89,70,2,1,0,1.092817e+00,NaN,2,0,2,3
40,664,4,86,45,1,1,1,2.190723e+00,NaN,2,0,2,3
40,665,4,135,29,1,1,1,1.164810e+00,NaN,2,0,3,3
40,666,4,5,50,1,1,1,9.150852e-01,NaN,2,1,1,3
40,667,4,98,47,2,1,0,2.876330e+00,NaN,2,0,3,3
40,668,4,43,2,2,1,0,1.694267e+00,NaN,2,1,1,3
40,669,4,52,46,1,1,1,8.401855e-01,NaN,2,0,2,3
40,670,4,108,38,2,2,1,1.940241e+00,NaN,2,0,3,3
40,671,4,32,14,2,1,0,1.180282e+00,NaN,2,1,1,3
40,672,4,131,72,2,2,1,2.234773e+00,NaN,2,1,3,3
40,673,4,34,13,1,2,0,1.718569e+00,NaN,2,1,1,3
40,674,4,104,7,1,1,1,7.114917e-01,NaN,2,0,3,3
40,675,4,30,9,2,2,1,1.952242e+00,NaN,2,0,1,3
40,676,4,41,66,1,2,0,2.351609e+00,NaN,2,1,1,3
40,677,4,59,71,1,1,1,1.806895e+00,NaN,2,0,2,3
40,678,4,127,15,1,1,1,1.532300e+00,NaN,2,0,3,3
40,679,4,16,25,2,1,0,9.806901e-01,NaN,2,0,1,3
40,680,4,94,28,2,1,0,1.250965e+00,NaN,2,1,2,3
40,681,4,81,49,1,1,1,4.944025e-01,NaN,2,0,2,3
40,682,4,116,17,1,1,1,1.656346e+00,NaN,2,0,3,3
40,683,5,8.712000e+01,10,2,1,0,1.977208e+00,1,1,0,2.100000e+00,1
40,684,5,3.183000e+01,53,1,1,1,7.312176e-01,1,1,0,1.200000e+00,1
40,685,5,7.620000e+01,64,2,3,0,5.329221e-01,1,1,0,2.300000e+00,1
40,686,5,1.106700e+02,43,3,2,0,1.694661e+00,1,1,0,3.200000e+00,1
40,687,5,7.104000e+01,7,2,2,1,8.326517e-01,1,1,0,2.300000e+00,1
40,688,5,3.183000e+01,53,1,1,1,5.939751e-01,2,1,0,1.200000e+00,1
40,689,5,7.016000e+01,17,2,2,1,1.363848e+00,1,1,0,2.300000e+00,1
40,690,5,1.053000e+02,9,3,1,0,2.134178e-01,1,1,0,3.100000e+00,1
40,691,5,1.345600e+02,27,3,1,0,2.310912e+00,1,1,0,3.200000e+00,1
40,692,5,3.927000e+01,15,1,2,0,9.127770e-01,1,1,0,1.300000e+00,1
40,693,5,1.246600e+02,4,3,3,1,1.026283e+00,1,1,0,3.200000e+00,1
40,694,5,9.708000e+01,38,2,2,1,3.882683e-01,1,1,0,2.300000e+00,1
40,695,5,9.318000e+01,18,2,2,1,1.738215e-01,1,1,0,2.100000e+00,1
40,696,5,1.175100e+02,37,3,1,0,1.287362e+00,1,1,0,3.200000e+00,1
40,697,5,6.322000e+01,21,2,1,0,5.609229e-01,1,1,0,2.100000e+00,1
40,698,5,8.712000e+01,10,2,2,1,1.042737e+00,2,1,0,2.100000e+00,1
40,699,5,9.708000e+01,38,2,2,1,8.762010e-01,2,1,0,2.300000e+00,1
40,700,5,6.503000e+01,32,2,1,0,9.821713e-01,1,1,0,2.100000e+00,1
40,701,5,1.093500e+02,19,3,3,1,7.036370e-01,1,1,0,3.100000e+00,1
40,702,5,4.622000e+01,58,1,1,1,5.690327e-01,1,1,0,1.300000e+00,1
40,703,5,1.066100e+02,3,3,3,1,1.385489e-04,1,1,0,3.200000e+00,1
40,704,5,1.345600e+02,27,3,2,0,1.421711e-04,2,1,0,3.200000e+00,1
40,705,5,4.622000e+01,58,1,1,1,2.702938e-01,2,1,0,1.300000e+00,1
40,706,5,4.777000e+01,51,1,1,1,8.077901e-01,1,1,0,1.200000e+00,1
40,707,5,1.830000e+01,44,1,1,1,2.662535e-01,1,1,0,1.300000e+00,1
40,708,5,5.716000e+01,25,2,2,1,3.625233e-01,1,1,0,2.100000e+00,1
40,709,5,4.622000e+01,58,1,1,1,1.402097e-01,3,1,0,1.300000e+00,1
40,710,5,5.716000e+01,25,2,2,1,2.055589e-01,2,1,0,2.100000e+00,1
40,711,5,1.106700e+02,43,3,4,0,5.673483e-01,2,1,0,3.200000e+00,1
40,712,5,2.979000e+01,69,1,2,0,3.931441e-01,1,1,0,1.200000e+00,1
40,713,5,2.172000e+01,65,1,1,1,1.450791e+00,1,1,0,1.200000e+00,1
40,714,5,7.419000e+01,8,2,2,1,1.323761e-01,1,1,0,2.100000e+00,1
40,715,5,7.104000e+01,7,2,2,1,1.134255e+00,2,1,0,2.300000e+00,1
40,716,5,85,26,2,2,1,2.318569e-01,1,1,0,2.300000e+00,1
40,717,5,1.195900e+02,71,3,2,0,8.490862e-01,1,1,0,3.200000e+00,1
40,718,5,8.712000e+01,10,2,1,0,6.023701e-01,3,1,0,2.100000e+00,1
40,719,5,4.900000e+00,6,1,1,1,4.125953e-01,1,1,0,1.200000e+00,1
40,720,5,1.422700e+02,39,3,1,0,2.298665e-01,1,1,0,3.100000e+00,1
40,721,5,1.106700e+02,43,3,2,0,3.111890e-01,3,1,0,3.200000e+00,1
40,722,5,1.366000e+02,48,3,3,1,3.051170e-01,1,1,0,3.200000e+00,1
40,723,5,1.085000e+01,56,1,1,1,2.025881e-01,1,1,0,1.200000e+00,1
40,724,5,1.053000e+02,9,3,3,1,2.843099e-01,2,1,0,3.100000e+00,1
40,725,5,1.115000e+02,33,3,3,1,1.400581e-04,1,1,0,3.200000e+00,1
40,726,5,1.345600e+02,27,3,3,1,2.005089e-01,3,1,0,3.200000e+00,1
40,727,5,8.260000e+00,35,1,1,1,2.652834e-01,1,1,0,1.300000e+00,1
40,728,5,1.115000e+02,33,3,3,1,1.388335e-01,2,1,0,3.200000e+00,1
40,729,5,1.345600e+02,27,3,3,1,9.084790e-01,4,1,0,3.200000e+00,1
40,730,5,2.979000e+01,69,1,1,1,1.416619e-01,2,1,0,1.200000e+00,1
40,731,5,8.260000e+00,35,1,1,1,1.491136e-04,2,1,0,1.300000e+00,1
40,732,5,4.041000e+01,40,1,1,1,3.532182e-01,1,1,0,1.300000e+00,1
40,733,5,7.419000e+01,8,2,2,1,6.830478e-01,2,1,0,2.100000e+00,1
40,734,5,7.400000e+00,59,1,1,1,3.246883e-01,1,1,0,1.300000e+00,1
40,735,5,1.093500e+02,19,3,3,1,2.858961e-01,2,1,0,3.100000e+00,1
40,736,5,1.175100e+02,37,3,2,0,6.953222e-01,2,1,0,3.200000e+00,1
40,737,5,7.713000e+01,31,2,3,0,4.490119e-01,1,1,0,2.300000e+00,1
40,738,5,1.142400e+02,36,3,1,0,2.423794e-01,1,1,0,3.100000e+00,1
40,739,5,1.115000e+02,33,3,3,1,7.238606e-01,3,1,0,3.200000e+00,1
40,740,5,1.385200e+02,46,3,3,1,3.178127e-01,1,1,0,3.200000e+00,1
40,741,5,8.098000e+01,47,2,1,0,6.790800e-01,1,1,0,2.300000e+00,1
40,742,5,1.085000e+01,56,1,1,1,1.385489e-04,2,1,0,1.200000e+00,1
40,743,5,5.521000e+01,16,2,2,1,3.145428e-01,1,1,0,2.300000e+00,1
40,744,5,5.716000e+01,25,2,2,1,6.439746e-01,3,1,0,2.100000e+00,1
40,745,5,2.172000e+01,65,1,1,1,2.781470e-01,2,1,0,1.200000e+00,1
40,746,5,8.260000e+00,35,1,1,1,4.475944e-01,3,1,0,1.300000e+00,1
40,747,5,1.444000e+02,24,3,3,1,1.406618e-04,1,1,0,3.100000e+00,1
40,748,5,3.689000e+01,70,1,1,1,1.385069e-01,1,1,0,1.200000e+00,1
40,749,5,2.368000e+01,54,1,1,1,6.042869e-01,1,1,0,1.200000e+00,1
40,750,5,7.320000e+01,20,2,2,1,2.612105e-01,1,1,0,2.100000e+00,1
40,751,5,7.320000e+01,20,2,2,1,1.792986e-04,2,1,0,2.100000e+00,1
40,752,5,9.218000e+01,63,2,3,0,1.240515e+00,1,1,0,2.300000e+00,1
40,753,5,4.041000e+01,40,1,2,0,3.302921e-01,2,1,0,1.300000e+00,1
40,754,5,85,26,2,1,0,9.953304e-02,2,1,0,2.300000e+00,1
40,755,5,6.322000e+01,21,2,2,1,1.650199e-01,2,1,0,2.100000e+00,1
40,756,5,9.214000e+01,30,2,2,1,1.126753e+00,1,1,0,2.100000e+00,1
40,757,5,3.927000e+01,15,1,3,0,2.246771e-01,2,1,0,1.300000e+00,1
40,758,5,5.521000e+01,16,2,2,1,4.496114e-01,2,1,0,2.300000e+00,1
40,759,5,3.183000e+01,53,1,1,1,2.675153e-01,3,1,0,1.200000e+00,1
40,760,5,4.886000e+01,45,1,1,1,2.529758e-01,1,1,0,1.200000e+00,1
40,761,5,4.281000e+01,49,1,1,1,6.151112e-01,1,1,0,1.200000e+00,1
40,762,5,1.053000e+02,9,3,3,1,8.241745e-01,3,1,0,3.100000e+00,1
40,763,5,1.066100e+02,3,3,3,1,2.658382e-01,2,1,0,3.200000e+00,1
40,764,5,7.419000e+01,8,2,2,1,1.388507e-04,3,1,0,2.100000e+00,1
40,765,5,7.907000e+01,34,2,2,1,2.212300e-01,1,1,0,2.300000e+00,1
40,766,5,1.385200e+02,46,3,3,1,8.543269e-01,2,1,0,3.200000e+00,1
40,767,5,1.444000e+02,24,3,3,1,1.427748e-04,2,1,0,3.100000e+00,1
40,768,5,9.764000e+01,57,3,3,1,1.697903e-01,1,1,0,3.200000e+00,1
40,769,5,5.716000e+01,25,2,1,0,8.315016e-02,4,1,0,2.100000e+00,1
40,770,5,1.142400e+02,36,3,1,0,5.245207e-02,2,1,0,3.100000e+00,1
40,771,5,8.712000e+01,10,2,2,1,5.453182e-02,4,1,0,2.100000e+00,1
40,772,5,4.886000e+01,45,1,1,1,1.379452e-04,2,1,0,1.200000e+00,1
40,773,5,1.066100e+02,3,3,3,1,1.789967e-04,3,1,0,3.200000e+00,1
40,774,5,7.713000e+01,31,2,2,1,2.356861e-01,2,1,0,2.300000e+00,1
40,775,5,4.281000e+01,49,1,1,1,1.655212e-01,2,1,0,1.200000e+00,1
40,776,5,4.281000e+01,49,1,1,1,1.409637e-04,3,1,0,1.200000e+00,1
40,777,5,1.195900e+02,71,3,3,1,2.644509e-01,2,1,0,3.200000e+00,1
40,778,5,6.201000e+01,68,2,2,1,6.980371e-01,1,1,0,2.100000e+00,1
40,779,5,1.422700e+02,39,3,3,1,1.400581e-04,2,1,0,3.100000e+00,1
40,780,5,9.318000e+01,18,2,2,1,4.210736e-01,2,1,0,2.100000e+00,1
40,781,5,8.098000e+01,47,2,2,1,1.400581e-04,2,1,0,2.300000e+00,1
40,782,5,1.115000e+02,33,3,3,1,2.083990e-01,4,1,0,3.200000e+00,1
40,783,5,7.400000e+00,59,1,1,1,5.141549e-01,2,1,0,1.300000e+00,1
40,784,5,4.777000e+01,51,1,1,1,2.436248e-01,2,1,0,1.200000e+00,1
40,785,5,9.708000e+01,38,2,2,1,3.415559e-01,3,1,0,2.300000e+00,1
40,786,5,9.214000e+01,30,2,1,0,6.627427e-01,2,1,0,2.100000e+00,1
40,787,5,6.201000e+01,68,2,2,1,2.320893e-01,2,1,0,2.100000e+00,1
40,788,5,6.503000e+01,32,2,2,1,1.421711e-04,2,1,0,2.100000e+00,1
40,789,5,3.435000e+01,29,1,1,1,2.036264e-01,1,1,0,1.300000e+00,1
40,790,5,9.513000e+01,41,2,2,1,2.213368e-01,1,1,0,2.100000e+00,1
40,791,5,1.444000e+02,24,3,2,0,1.910136e+00,3,1,0,3.100000e+00,1
40,792,5,7.907000e+01,34,2,2,1,3.523337e-01,2,1,0,2.300000e+00,1
40,793,5,1.422700e+02,39,3,3,1,2.661482e-01,3,1,0,3.100000e+00,1
40,794,5,4.041000e+01,40,1,1,1,3.638716e-01,3,1,0,1.300000e+00,1
40,795,5,2.368000e+01,54,1,1,1,1.370396e-04,2,1,0,1.200000e+00,1
40,796,5,85,26,2,2,1,2.951070e-01,3,1,0,2.300000e+00,1
40,797,5,1.066100e+02,3,3,3,1,3.122976e-01,4,1,0,3.200000e+00,1
40,798,5,4.886000e+01,45,1,1,1,3.220090e-01,3,1,0,1.200000e+00,1
40,799,5,1.385200e+02,46,3,3,1,2.202173e-01,3,1,0,3.200000e+00,1
40,800,5,2.979000e+01,69,1,1,1,3.566647e-01,3,1,0,1.200000e+00,1
40,801,5,3.183000e+01,53,1,1,1,2.786070e-01,4,1,0,1.200000e+00,1
40,802,5,3.435000e+01,29,1,1,1,1.607609e+00,2,1,0,1.300000e+00,1
40,803,5,7.419000e+01,8,2,2,1,5.377137e-01,4,1,0,2.100000e+00,1
40,804,5,85,26,2,2,1,4.195420e-01,4,1,0,2.300000e+00,1
40,805,5,3.435000e+01,29,1,1,1,5.729724e-01,3,1,0,1.300000e+00,1
40,806,5,3.927000e+01,15,1,2,0,1.430766e-04,3,1,0,1.300000e+00,1
40,807,5,8.260000e+00,35,1,1,1,1.687338e-04,4,1,0,1.300000e+00,1
40,808,5,1.093500e+02,19,3,3,1,6.659221e-02,3,1,0,3.100000e+00,1
40,809,5,9.513000e+01,41,2,2,1,5.723138e-01,2,1,0,2.100000e+00,1
40,810,5,4.900000e+00,6,1,1,1,3.735471e-01,2,1,0,1.200000e+00,1
40,811,5,4.041000e+01,40,1,1,1,5.588431e-01,4,1,0,1.300000e+00,1
40,812,5,1.444000e+02,24,3,3,1,7.205267e-01,4,1,0,3.100000e+00,1
40,813,5,9.218000e+01,63,2,2,1,1.373415e-04,2,1,0,2.300000e+00,1
40,814,5,7.713000e+01,31,2,2,1,3.945172e-03,3,1,0,2.300000e+00,1
40,815,5,1.366000e+02,48,3,3,1,1.416172e-01,2,1,0,3.200000e+00,1
40,816,5,9.318000e+01,18,2,2,1,1.186205e-01,3,1,0,2.100000e+00,1
40,817,5,1.125300e+02,5,3,2,0,1.379452e-04,1,1,0,3.200000e+00,1
40,818,5,1.085000e+01,56,1,0,0,2.500102e+00,3,1,0,1.200000e+00,1
40,819,5,1.034400e+02,12,3,3,1,3.803200e-01,1,1,0,3.100000e+00,1
40,820,5,4.777000e+01,51,1,1,1,1.382470e-04,3,1,0,1.200000e+00,1
40,821,5,7.400000e+00,59,1,1,1,1.379452e-04,3,1,0,1.300000e+00,1
40,822,5,7.620000e+01,64,2,3,0,1.201474e+00,2,1,0,2.300000e+00,1
40,823,5,2.368000e+01,54,1,2,0,1.476044e-04,3,1,0,1.200000e+00,1
40,824,5,5.521000e+01,16,2,2,1,4.212460e-01,3,1,0,2.300000e+00,1
40,825,5,7.320000e+01,20,2,2,1,4.305257e-01,3,1,0,2.100000e+00,1
40,826,5,7.016000e+01,17,2,2,1,2.561168e-01,2,1,0,2.300000e+00,1
40,827,5,1.175100e+02,37,3,3,1,1.439822e-04,3,1,0,3.200000e+00,1
40,828,5,1.422700e+02,39,3,3,1,1.234434e-01,4,1,0,3.100000e+00,1
40,829,5,1.142400e+02,36,3,3,1,1.567492e-01,3,1,0,3.100000e+00,1
40,830,5,7.016000e+01,17,2,2,1,1.575654e-04,3,1,0,2.300000e+00,1
40,831,5,6.201000e+01,68,2,2,1,1.424729e-04,3,1,0,2.100000e+00,1
40,832,5,1.034400e+02,12,3,3,1,1.385489e-04,2,1,0,3.100000e+00,1
40,833,5,7.104000e+01,7,2,2,1,7.570082e-02,3,1,0,2.300000e+00,1
40,834,5,1.125300e+02,5,3,3,1,2.698084e-01,2,1,0,3.200000e+00,1
40,835,5,9.708000e+01,38,2,2,1,3.136034e-02,4,1,0,2.300000e+00,1
40,836,5,7.907000e+01,34,2,2,1,2.166177e-01,3,1,0,2.300000e+00,1
40,837,5,6.503000e+01,32,2,1,0,5.539831e-01,3,1,0,2.100000e+00,1
40,838,5,4.777000e+01,51,1,1,1,5.875318e-01,4,1,0,1.200000e+00,1
40,839,5,1.085000e+01,56,1,1,1,9.283470e-02,4,1,0,1.200000e+00,1
40,840,5,9.218000e+01,63,2,2,1,5.426577e-01,3,1,0,2.300000e+00,1
40,841,5,7.320000e+01,20,2,2,1,1.415674e-04,4,1,0,2.100000e+00,1
40,842,5,9.318000e+01,18,2,2,1,1.544349e-01,4,1,0,2.100000e+00,1
40,843,5,4.900000e+00,6,1,1,1,3.794682e-01,3,1,0,1.200000e+00,1
40,844,5,1.195900e+02,71,3,1,0,2.530141e-01,3,1,0,3.200000e+00,1
40,845,5,2.172000e+01,65,1,1,1,1.385489e-04,3,1,0,1.200000e+00,1
40,846,5,1.034400e+02,12,3,3,1,1.657606e-02,3,1,0,3.100000e+00,1
40,847,5,9.764000e+01,57,3,3,1,9.783514e-02,2,1,0,3.200000e+00,1
40,848,5,3.689000e+01,70,1,3,0,3.154055e-01,2,1,0,1.200000e+00,1
40,849,5,9.764000e+01,57,3,3,1,1.095246e-01,3,1,0,3.200000e+00,1
40,850,5,2.979000e+01,69,1,1,1,1.103622e-01,4,1,0,1.200000e+00,1
40,851,5,6.322000e+01,21,2,2,1,2.721752e-01,3,1,0,2.100000e+00,1
40,852,5,2.172000e+01,65,1,1,1,1.737992e+00,4,1,0,1.200000e+00,1
40,853,5,9.513000e+01,41,2,2,1,6.756954e-01,3,1,0,2.100000e+00,1
40,854,5,3.689000e+01,70,1,2,0,1.792986e-04,3,1,0,1.200000e+00,1
40,855,5,1.366000e+02,48,3,3,1,2.634334e-01,3,1,0,3.200000e+00,1
40,856,5,8.098000e+01,47,2,1,0,6.488646e-01,3,1,0,2.300000e+00,1
40,857,5,9.214000e+01,30,2,0,0,2.500324e+00,3,1,0,2.100000e+00,1
40,858,5,7.907000e+01,34,2,2,1,5.806279e-01,4,1,0,2.300000e+00,1
40,859,5,8.098000e+01,47,2,1,0,1.798027e+00,4,1,0,2.300000e+00,1
40,860,5,1.385200e+02,46,3,3,1,5.633808e-02,4,1,0,3.200000e+00,1
40,861,5,9.214000e+01,30,2,1,0,1.705449e-04,4,1,0,2.100000e+00,1
40,862,5,9.513000e+01,41,2,2,1,8.336206e-02,4,1,0,2.100000e+00,1
40,863,5,1.246600e+02,4,3,1,0,8.686970e-01,2,1,0,3.200000e+00,1
40,864,5,1.246600e+02,4,3,3,1,1.326725e+00,3,1,0,3.200000e+00,1
40,865,5,1.366000e+02,48,3,3,1,8.882230e-01,4,1,0,3.200000e+00,1
40,866,5,2.368000e+01,54,1,1,1,1.049789e+00,4,1,0,1.200000e+00,1
40,867,5,1.106700e+02,43,3,2,0,9.633416e-01,4,1,0,3.200000e+00,1
40,868,5,1.175100e+02,37,3,3,1,2.847053e-01,4,1,0,3.200000e+00,1
40,869,5,7.713000e+01,31,2,2,1,9.106474e-01,4,1,0,2.300000e+00,1
40,870,5,1.195900e+02,71,3,1,0,8.007761e-01,4,1,0,3.200000e+00,1
40,871,5,4.622000e+01,58,1,1,1,4.665092e-01,4,1,0,1.300000e+00,1
40,872,5,4.886000e+01,45,1,1,1,1.433785e-04,4,1,0,1.200000e+00,1
40,873,5,1.830000e+01,44,1,1,1,4.537672e-01,2,1,0,1.300000e+00,1
40,874,5,6.322000e+01,21,2,2,1,2.473487e-01,4,1,0,2.100000e+00,1
40,875,5,1.830000e+01,44,1,1,1,3.286069e-01,3,1,0,1.300000e+00,1
40,876,5,1.830000e+01,44,1,1,1,1.364359e-04,4,1,0,1.300000e+00,1
40,877,5,1.125300e+02,5,3,3,1,1.208877e-02,3,1,0,3.200000e+00,1
40,878,5,7.104000e+01,7,2,2,1,1.759782e-04,4,1,0,2.300000e+00,1
40,879,5,7.620000e+01,64,2,2,1,4.705712e-02,3,1,0,2.300000e+00,1
40,880,5,4.281000e+01,49,1,1,1,9.705214e-02,4,1,0,1.200000e+00,1
40,881,5,3.435000e+01,29,1,3,0,4.979773e-01,4,1,0,1.300000e+00,1
40,882,5,3.689000e+01,70,1,1,1,1.179536e+00,4,1,0,1.200000e+00,1
40,883,5,6.201000e+01,68,2,2,1,6.901697e-02,4,1,0,2.100000e+00,1
40,884,5,3.927000e+01,15,1,1,1,8.149240e-01,4,1,0,1.300000e+00,1
40,885,5,1.125300e+02,5,3,3,1,3.225654e-02,4,1,0,3.200000e+00,1
40,886,5,6.503000e+01,32,2,2,1,8.213112e-02,4,1,0,2.100000e+00,1
40,887,5,7.400000e+00,59,1,1,1,8.672400e-01,4,1,0,1.300000e+00,1
40,888,5,1.034400e+02,12,3,3,1,3.574127e-01,4,1,0,3.100000e+00,1
40,889,5,7.620000e+01,64,2,2,1,8.387792e-01,4,1,0,2.300000e+00,1
40,890,5,9.218000e+01,63,2,0,0,2.500432e+00,4,1,0,2.300000e+00,1
40,891,5,1.093500e+02,19,3,3,1,1.811097e-04,4,1,0,3.100000e+00,1
40,892,5,7.016000e+01,17,2,2,1,4.681175e-01,4,1,0,2.300000e+00,1
40,893,5,9.764000e+01,57,3,3,1,9.391381e-02,4,1,0,3.200000e+00,1
40,894,5,1.142400e+02,36,3,1,0,3.966332e-02,4,1,0,3.100000e+00,1
40,895,5,1.246600e+02,4,3,2,0,6.516688e-02,4,1,0,3.200000e+00,1
40,896,5,4.900000e+00,6,1,1,1,5.546308e-01,4,1,0,1.200000e+00,1
40,897,5,5.521000e+01,16,2,2,1,3.640319e-01,4,1,0,2.300000e+00,1
40,898,5,1.053000e+02,9,3,3,1,3.731073e-01,4,1,0,3.100000e+00,1
40,899,6,126,35,2,2,1,2.112757e+00,NaN,2,0,3,1
40,900,6,94,28,1,2,0,1.290941e+00,NaN,2,1,2,1
40,901,6,60,48,1,1,1,6.459614e-01,NaN,2,0,2,1
40,902,6,22,21,2,1,0,1.194617e+00,NaN,2,0,1,1
40,903,6,40,24,1,2,0,1.105322e+00,NaN,2,0,1,1
40,904,6,19,8,2,1,0,7.719343e-01,NaN,2,0,1,1
40,905,6,108,38,2,2,1,9.150526e-01,NaN,2,0,3,1
40,906,6,122,58,1,1,1,8.771183e-01,NaN,2,0,3,1
40,907,6,89,70,1,1,1,9.928217e-01,NaN,2,0,2,1
40,908,6,68,54,2,1,0,8.072245e-01,NaN,2,0,2,1
40,909,6,98,47,1,1,1,9.815818e-01,NaN,2,0,3,1
40,910,6,125,11,1,1,1,7.569520e-01,NaN,2,1,3,1
40,911,6,25,42,1,1,1,8.453834e-01,NaN,2,1,1,1
40,912,6,113,31,1,1,1,9.942142e-01,NaN,2,0,3,1
40,913,6,32,14,1,1,1,8.893767e-01,NaN,2,1,1,1
40,914,6,61,3,1,1,1,8.362956e-01,NaN,2,0,2,1
40,915,6,77,51,1,1,1,6.092155e-01,NaN,2,0,2,1
40,916,6,53,5,2,1,0,1.015467e+00,NaN,2,0,2,1
40,917,6,130,44,2,2,1,9.175646e-01,NaN,2,0,3,1
40,918,6,79,69,1,1,1,6.793423e-01,NaN,2,0,2,1
40,919,6,5,50,2,2,1,7.621028e-01,NaN,2,1,1,1
40,920,6,41,66,2,1,0,7.941972e-01,NaN,2,1,1,1
40,921,6,90,6,1,1,1,8.330087e-01,NaN,2,0,2,1
40,922,6,35,19,1,1,1,8.064907e-01,NaN,2,0,1,1
40,923,6,13,41,2,1,0,8.211717e-01,NaN,2,0,1,1
40,924,6,83,53,2,2,1,5.622438e-01,NaN,2,0,2,1
40,925,6,67,43,2,2,1,7.543791e-01,NaN,2,0,2,1
40,926,6,24,36,1,2,0,1.018896e+00,NaN,2,0,1,1
40,927,6,140,59,1,1,1,8.808519e-01,NaN,2,0,3,1
40,928,6,50,33,2,1,0,8.919403e-01,NaN,2,0,2,1
40,929,6,3,32,1,1,1,1.015109e+00,NaN,2,0,1,1
40,930,6,12,10,1,2,0,8.288631e-01,NaN,2,0,1,1
40,931,6,139,22,1,1,1,7.700952e-01,NaN,2,1,3,1
40,932,6,121,16,1,1,1,7.153427e-01,NaN,2,0,3,1
40,933,6,132,62,2,1,0,9.722039e-01,NaN,2,1,3,1
40,934,6,143,1,2,2,1,6.197512e-01,NaN,2,1,3,1
40,935,6,16,25,2,1,0,6.419302e-01,NaN,2,0,1,1
40,936,6,30,9,1,2,0,7.510047e-01,NaN,2,0,1,1
40,937,6,101,61,2,1,0,7.758276e-01,NaN,2,1,3,1
40,938,6,56,27,1,1,1,9.516226e-01,NaN,2,0,2,1
40,939,6,107,34,1,2,0,9.597312e-01,NaN,2,0,3,1
40,940,6,20,20,2,2,1,9.763344e-01,NaN,2,0,1,1
40,941,6,81,49,2,1,0,7.204192e-01,NaN,2,0,2,1
40,942,6,131,72,1,1,1,1.193758e+00,NaN,2,1,3,1
40,943,6,59,71,1,1,1,8.007205e-01,NaN,2,0,2,1
40,944,6,116,17,2,1,0,1.071421e+00,NaN,2,0,3,1
40,945,6,18,18,1,1,1,8.509794e-01,NaN,2,0,1,1
40,946,6,104,7,1,1,1,8.634545e-01,NaN,2,0,3,1
40,947,6,43,2,2,1,0,8.513536e-01,NaN,2,1,1,1
40,948,6,55,67,2,1,0,7.761095e-01,NaN,2,1,2,1
40,949,6,51,37,1,1,1,8.552994e-01,NaN,2,0,2,1
40,950,6,85,56,1,1,1,6.354214e-01,NaN,2,0,2,1
40,951,6,14,30,2,1,0,8.729241e-01,NaN,2,0,1,1
40,952,6,44,12,2,2,1,9.322013e-01,NaN,2,0,1,1
40,953,6,102,52,2,1,0,6.854886e-01,NaN,2,1,3,1
40,954,6,135,29,1,1,1,6.332222e-01,NaN,2,0,3,1
40,955,6,52,46,1,1,1,5.659194e-01,NaN,2,0,2,1
40,956,6,141,40,1,2,0,8.545225e-01,NaN,2,0,3,1
40,957,6,11,60,1,1,1,8.342029e-01,NaN,2,1,1,1
40,958,6,66,4,1,2,0,9.912126e-01,NaN,2,0,2,1
40,959,6,37,55,2,1,0,6.460239e-01,NaN,2,1,1,1
40,960,6,118,63,1,2,0,8.351597e-01,NaN,2,0,3,1
40,961,6,64,57,2,2,1,8.557232e-01,NaN,2,0,2,1
40,962,6,127,15,1,1,1,7.082127e-01,NaN,2,0,3,1
40,963,6,120,64,1,1,1,6.868083e-01,NaN,2,0,3,1
40,964,6,86,45,2,1,0,6.573918e-01,NaN,2,0,2,1
40,965,6,34,13,2,1,0,1.013703e+00,NaN,2,1,1,1
40,966,6,27,39,2,2,1,1.147566e+00,NaN,2,0,1,1
40,967,6,72,65,2,2,1,8.283515e-01,NaN,2,0,2,1
40,968,6,100,26,2,1,0,6.664543e-01,NaN,2,0,3,1
40,969,6,1,68,1,1,1,8.300147e-01,NaN,2,0,1,1
40,970,6,71,23,2,2,1,8.352841e-01,NaN,2,1,2,1
40,971,6,114,36,2,2,1,1.040614e+00,NaN,1,0,3,1
40,972,6,28,62,1,1,1,8.535279e-01,NaN,1,1,1,1
40,973,6,115,13,1,2,0,6.981382e-01,NaN,1,1,3,1
40,974,6,38,15,2,1,0,9.246321e-01,NaN,1,0,1,1
40,975,6,70,7,2,1,0,9.420820e-01,NaN,1,0,2,1
40,976,6,97,57,1,1,1,1.166999e+00,NaN,1,0,3,1
40,977,6,99,14,2,2,1,9.590037e-01,NaN,1,1,3,1
40,978,6,31,53,1,1,1,6.801308e-01,NaN,1,0,1,1
40,979,6,49,61,2,2,1,7.945100e-01,NaN,1,1,2,1
40,980,6,95,41,1,2,0,1.137286e+00,NaN,1,0,2,1
40,981,6,92,30,1,1,1,8.184007e-01,NaN,1,0,2,1
40,982,6,112,5,2,1,0,1.224069e+00,NaN,1,0,3,1
40,983,6,36,70,1,2,0,9.574767e-01,NaN,1,0,1,1
40,984,6,45,58,2,2,1,9.495247e-01,NaN,1,0,1,1
40,985,6,103,12,2,2,1,1.094399e+00,NaN,1,0,3,1
40,986,6,6,59,2,1,0,1.056347e+00,NaN,1,0,1,1
40,987,6,124,4,2,2,1,1.420483e+00,NaN,1,0,3,1
40,988,6,57,25,1,1,1,6.821830e-01,NaN,1,0,2,1
40,989,6,111,33,1,1,1,8.372923e-01,NaN,1,0,3,1
40,990,6,9,23,1,1,1,1.073774e+00,NaN,1,1,1,1
40,991,6,133,67,1,1,1,1.077995e+00,NaN,1,1,3,1
40,992,6,76,31,2,1,0,6.411605e-01,NaN,1,0,2,1
40,993,6,58,52,2,2,1,6.697689e-01,NaN,1,1,2,1
40,994,6,106,3,1,1,1,1.089951e+00,NaN,1,0,3,1
40,995,6,10,56,1,2,0,1.588578e+00,NaN,1,0,1,1
40,996,6,62,68,2,2,1,8.042416e-01,NaN,1,0,2,1
40,997,6,21,65,2,2,1,8.973193e-01,NaN,1,0,1,1
40,998,6,75,64,2,2,1,7.561214e-01,NaN,1,0,2,1
40,999,6,33,29,1,2,0,8.441714e-01,NaN,1,0,1,1
40,1000,6,69,17,1,1,1,8.332756e-01,NaN,1,0,2,1
40,1001,6,136,48,1,1,1,1.294635e+00,NaN,1,0,3,1
40,1002,6,80,47,1,2,0,7.217099e-01,NaN,1,0,2,1
40,1003,6,109,19,1,1,1,1.211555e+00,NaN,1,0,3,1
40,1004,6,73,20,1,2,0,9.372594e-01,NaN,1,0,2,1
40,1005,6,78,34,2,2,1,7.779538e-01,NaN,1,0,2,1
40,1006,6,7,35,1,1,1,8.174852e-01,NaN,1,0,1,1
40,1007,6,119,71,2,2,1,6.791144e-01,NaN,1,0,3,1
40,1008,6,48,45,2,1,0,8.184273e-01,NaN,1,0,1,1
40,1009,6,74,8,2,2,1,6.081496e-01,NaN,1,0,2,1
40,1010,6,84,26,2,2,1,9.345056e-01,NaN,1,0,2,1
40,1011,6,47,51,2,2,1,8.877350e-01,NaN,1,0,1,1
40,1012,6,54,16,1,1,1,6.827526e-01,NaN,1,0,2,1
40,1013,6,17,44,1,1,1,9.658503e-01,NaN,1,0,1,1
40,1014,6,93,18,1,1,1,8.692989e-01,NaN,1,0,2,1
40,1015,6,82,60,2,2,1,9.773045e-01,NaN,1,1,2,1
40,1016,6,142,39,2,1,0,7.850684e-01,NaN,1,0,3,1
40,1017,6,8,72,2,2,1,1.048007e+00,NaN,1,1,1,1
40,1018,6,23,54,2,1,0,1.100625e+00,NaN,1,0,1,1
40,1019,6,117,37,2,2,1,7.829138e-01,NaN,1,0,3,1
40,1020,6,65,32,1,0,0,3.499585e+00,NaN,1,0,2,1
40,1021,6,110,43,2,1,0,1.056310e+00,NaN,1,0,3,1
40,1022,6,15,28,1,2,0,1.404560e+00,NaN,1,1,1,1
40,1023,6,128,66,2,2,1,1.771036e+00,NaN,1,1,3,1
40,1024,6,4,6,1,1,1,1.090271e+00,NaN,1,0,1,1
40,1025,6,96,38,2,2,1,1.060844e+00,NaN,1,0,2,1
40,1026,6,29,69,1,1,1,1.313662e+00,NaN,1,0,1,1
40,1027,6,137,42,2,2,1,1.707816e+00,NaN,1,1,3,1
40,1028,6,144,24,1,1,1,1.725845e+00,NaN,1,0,3,1
40,1029,6,91,63,2,2,1,1.143431e+00,NaN,1,0,2,1
40,1030,6,123,2,1,1,1,1.320473e+00,NaN,1,1,3,1
40,1031,6,26,11,2,2,1,1.707429e+00,NaN,1,1,1,1
40,1032,6,46,1,2,2,1,2.892203e+00,NaN,1,1,1,1
40,1033,6,87,10,2,2,1,1.846990e+00,NaN,1,0,2,1
40,1034,6,129,55,2,2,1,1.107555e+00,NaN,1,1,3,1
40,1035,6,138,46,1,1,1,1.390107e+00,NaN,1,0,3,1
40,1036,6,105,9,1,1,1,1.749078e+00,NaN,1,0,3,1
40,1037,6,63,21,2,2,1,1.453165e+00,NaN,1,0,2,1
40,1038,6,42,49,2,1,0,1.713723e+00,NaN,1,0,1,1
40,1039,6,134,27,1,1,1,1.315444e+00,NaN,1,0,3,1
40,1040,6,2,22,2,1,0,2.229568e+00,NaN,1,1,1,1
40,1041,6,39,40,2,2,1,2.146184e+00,NaN,1,0,1,1
40,1042,6,88,50,2,2,1,1.458747e+00,NaN,1,1,2,1
