Subject,Trial,Cond,ImageNum,CueNum,Correct,Resp,Accuracy,RT,CueRep,ImageType,Baseline,Category,Block
51,1,1,144,NaN,NaN,1,NaN,6.130879e+00,NaN,0,0,3,1
51,2,1,55,NaN,NaN,1,NaN,2.723269e+00,NaN,1,0,2,1
51,3,1,44,NaN,NaN,1,NaN,2.568145e+00,NaN,2,0,1,1
51,4,1,44,NaN,NaN,1,NaN,1.371710e+00,NaN,0,0,1,1
51,5,1,72,NaN,NaN,1,NaN,1.438725e+00,NaN,0,0,2,1
51,6,1,42,NaN,NaN,1,NaN,1.243605e-04,NaN,0,0,1,1
51,7,1,13,NaN,NaN,2,NaN,2.529786e+00,NaN,0,0,1,1
51,8,1,46,NaN,NaN,2,NaN,1.646475e+00,NaN,0,0,1,1
51,9,1,75,NaN,NaN,1,NaN,5.586723e-01,NaN,1,1,2,1
51,10,1,57,NaN,NaN,1,NaN,3.451698e-02,NaN,0,0,2,1
51,11,1,32,NaN,NaN,2,NaN,1.203097e+00,NaN,0,0,1,1
51,12,1,17,NaN,NaN,1,NaN,1.109152e+00,NaN,0,0,1,1
51,13,1,51,NaN,NaN,1,NaN,2.676138e-01,NaN,1,1,2,1
51,14,1,115,NaN,NaN,2,NaN,1.042582e+00,NaN,1,0,3,1
51,15,1,28,NaN,NaN,2,NaN,1.058876e+00,NaN,0,1,1,1
51,16,1,31,NaN,NaN,1,NaN,2.428564e-01,NaN,1,0,1,1
51,17,1,49,NaN,NaN,1,NaN,2.515493e-01,NaN,0,0,2,1
51,18,1,30,NaN,NaN,2,NaN,2.771156e-02,NaN,0,0,1,1
51,19,1,118,NaN,NaN,1,NaN,6.038852e-01,NaN,2,0,3,1
51,20,1,31,NaN,NaN,1,NaN,2.779928e-01,NaN,0,0,1,1
51,21,1,55,NaN,NaN,1,NaN,9.172828e-01,NaN,0,0,2,1
51,22,1,26,NaN,NaN,2,NaN,7.458551e-02,NaN,0,0,1,1
51,23,1,42,NaN,NaN,1,NaN,9.778379e-01,NaN,1,0,1,1
51,24,1,125,NaN,NaN,1,NaN,3.415703e-01,NaN,1,0,3,1
51,25,1,133,NaN,NaN,2,NaN,2.816847e-01,NaN,2,0,3,1
51,26,1,141,NaN,NaN,1,NaN,3.047367e-01,NaN,2,0,3,1
51,27,1,111,NaN,NaN,1,NaN,4.229063e-01,NaN,2,0,3,1
51,28,1,72,NaN,NaN,1,NaN,4.642118e-01,NaN,2,0,2,1
51,29,1,89,NaN,NaN,1,NaN,3.516471e-01,NaN,0,0,2,1
51,30,1,19,NaN,NaN,2,NaN,2.839014e-01,NaN,0,0,1,1
51,31,1,24,NaN,NaN,2,NaN,3.627925e-01,NaN,1,0,1,1
51,32,1,66,NaN,NaN,1,NaN,2.708732e-01,NaN,1,0,2,1
51,33,1,125,NaN,NaN,1,NaN,7.980458e-01,NaN,0,0,3,1
51,34,1,113,NaN,NaN,1,NaN,8.079282e-01,NaN,2,0,3,1
51,35,1,27,NaN,NaN,1,NaN,3.780454e-01,NaN,0,1,1,1
51,36,1,100,NaN,NaN,2,NaN,3.168413e-01,NaN,0,1,3,1
51,37,1,71,NaN,NaN,1,NaN,3.545379e-01,NaN,1,0,2,1
51,38,1,20,NaN,NaN,2,NaN,3.903411e-01,NaN,0,0,1,1
51,39,1,7,NaN,NaN,2,NaN,1.261716e-04,NaN,0,1,1,1
51,40,1,24,NaN,NaN,2,NaN,9.157258e-01,NaN,0,0,1,1
51,41,1,126,NaN,NaN,2,NaN,4.889176e-01,NaN,0,0,3,1
51,42,1,68,NaN,NaN,1,NaN,5.033036e-01,NaN,1,1,2,1
51,43,1,104,NaN,NaN,2,NaN,4.052743e-01,NaN,1,1,3,1
51,44,1,43,NaN,NaN,1,NaN,2.795014e-01,NaN,0,0,1,1
51,45,1,79,NaN,NaN,1,NaN,4.302713e-01,NaN,2,1,2,1
51,46,1,134,NaN,NaN,2,NaN,3.756430e-01,NaN,2,0,3,1
51,47,1,96,NaN,NaN,1,NaN,6.666725e-01,NaN,2,0,2,1
51,48,1,9,NaN,NaN,2,NaN,2.263591e-01,NaN,2,0,1,1
51,49,1,138,NaN,NaN,1,NaN,6.677839e-01,NaN,1,0,3,1
51,50,1,2,NaN,NaN,1,NaN,2.750758e-01,NaN,0,0,1,1
51,51,1,37,NaN,NaN,2,NaN,3.867201e-01,NaN,2,0,1,1
51,52,1,50,NaN,NaN,1,NaN,7.967288e-01,NaN,0,0,2,1
51,53,1,107,NaN,NaN,1,NaN,4.232039e-01,NaN,2,1,3,1
51,54,1,38,NaN,NaN,1,NaN,3.047119e-01,NaN,1,0,1,1
51,55,1,92,NaN,NaN,1,NaN,3.508104e-01,NaN,1,0,2,1
51,56,1,70,NaN,NaN,1,NaN,4.427367e-01,NaN,2,1,2,1
51,57,1,76,NaN,NaN,1,NaN,4.992546e-01,NaN,0,0,2,1
51,58,1,20,NaN,NaN,1,NaN,2.978461e-01,NaN,1,0,1,1
51,59,1,140,NaN,NaN,1,NaN,1.031837e+00,NaN,0,0,3,1
51,60,1,53,NaN,NaN,1,NaN,1.328491e+00,NaN,0,1,2,1
51,61,1,133,NaN,NaN,2,NaN,9.333675e-01,NaN,0,0,3,1
51,62,1,39,NaN,NaN,2,NaN,6.347321e-01,NaN,0,0,1,1
51,63,1,90,NaN,NaN,1,NaN,2.915946e-01,NaN,0,0,2,1
51,64,1,59,NaN,NaN,1,NaN,2.820421e-01,NaN,0,0,2,1
51,65,1,132,NaN,NaN,2,NaN,7.368942e-01,NaN,1,0,3,1
51,66,1,141,NaN,NaN,1,NaN,3.897117e-01,NaN,0,0,3,1
51,67,1,12,NaN,NaN,2,NaN,9.763990e-01,NaN,2,0,1,1
51,68,1,96,NaN,NaN,1,NaN,7.872995e-01,NaN,0,0,2,1
51,69,1,79,NaN,NaN,1,NaN,1.100198e-01,NaN,0,1,2,1
51,70,1,61,NaN,NaN,1,NaN,8.356579e-01,NaN,0,0,2,1
51,71,1,46,NaN,NaN,2,NaN,5.648321e-01,NaN,1,0,1,1
51,72,1,114,NaN,NaN,1,NaN,4.162883e-01,NaN,1,1,3,1
51,73,1,35,NaN,NaN,2,NaN,3.860195e-01,NaN,1,0,1,1
51,74,1,97,NaN,NaN,2,NaN,4.849764e-01,NaN,0,1,3,1
51,75,1,101,NaN,NaN,2,NaN,5.879943e-01,NaN,0,1,3,1
51,76,1,60,NaN,NaN,1,NaN,3.102345e-01,NaN,0,1,2,1
51,77,1,10,NaN,NaN,2,NaN,5.083335e-01,NaN,2,0,1,1
51,78,1,23,NaN,NaN,2,NaN,6.341320e-01,NaN,2,0,1,1
51,79,1,102,NaN,NaN,2,NaN,7.148942e-01,NaN,2,0,3,1
51,80,1,88,NaN,NaN,1,NaN,4.726463e-01,NaN,0,1,2,1
51,81,1,78,NaN,NaN,1,NaN,2.401431e-01,NaN,2,0,2,1
51,82,1,67,NaN,NaN,1,NaN,5.923840e-01,NaN,0,0,2,1
51,83,1,114,NaN,NaN,1,NaN,3.387185e-01,NaN,0,1,3,1
51,84,1,61,NaN,NaN,1,NaN,3.677337e-01,NaN,2,0,2,1
51,85,1,58,NaN,NaN,1,NaN,8.509902e-01,NaN,0,0,2,1
51,86,1,85,NaN,NaN,1,NaN,6.033232e-01,NaN,0,0,2,1
51,87,1,86,NaN,NaN,1,NaN,5.573524e-01,NaN,0,0,2,1
51,88,1,76,NaN,NaN,1,NaN,5.290788e-01,NaN,1,0,2,1
51,89,1,40,NaN,NaN,2,NaN,2.182476e+00,NaN,0,0,1,1
51,90,1,98,NaN,NaN,1,NaN,3.768419e-01,NaN,1,0,3,1
51,91,1,12,NaN,NaN,1,NaN,3.243829e-01,NaN,0,0,1,1
51,92,1,84,NaN,NaN,1,NaN,4.734776e-01,NaN,0,0,2,1
51,93,1,95,NaN,NaN,1,NaN,6.650558e-01,NaN,0,0,2,1
51,94,1,112,NaN,NaN,1,NaN,5.364281e-01,NaN,0,0,3,1
51,95,1,64,NaN,NaN,1,NaN,7.168803e-01,NaN,0,0,2,1
51,96,1,25,NaN,NaN,1,NaN,2.826581e-01,NaN,1,1,1,1
51,97,1,52,NaN,NaN,1,NaN,2.976852e-01,NaN,2,1,2,1
51,98,1,81,NaN,NaN,1,NaN,5.362977e-01,NaN,0,0,2,1
51,99,1,116,NaN,NaN,1,NaN,8.928855e-01,NaN,0,0,3,1
51,100,1,121,NaN,NaN,1,NaN,1.962789e+00,NaN,0,0,3,1
51,101,1,110,NaN,NaN,2,NaN,3.424764e-01,NaN,2,0,3,1
51,102,1,5,NaN,NaN,1,NaN,2.910495e-01,NaN,0,1,1,1
51,103,1,58,NaN,NaN,1,NaN,2.178292e-01,NaN,1,0,2,1
51,104,1,108,NaN,NaN,2,NaN,2.514853e-01,NaN,2,0,3,1
51,105,1,118,NaN,NaN,1,NaN,5.959349e-01,NaN,0,0,3,1
51,106,1,48,NaN,NaN,1,NaN,2.621260e-01,NaN,2,1,1,1
51,107,1,25,NaN,NaN,1,NaN,4.534389e-01,NaN,0,1,1,1
51,108,1,62,NaN,NaN,1,NaN,4.617451e-01,NaN,2,0,2,1
51,109,1,123,NaN,NaN,1,NaN,2.689854e-01,NaN,0,0,3,1
51,110,1,108,NaN,NaN,1,NaN,4.607351e-01,NaN,0,0,3,1
51,111,1,105,NaN,NaN,2,NaN,3.009748e-01,NaN,0,1,3,1
51,112,1,21,NaN,NaN,2,NaN,2.991425e-01,NaN,0,0,1,1
51,113,1,1,NaN,NaN,1,NaN,2.813762e-01,NaN,1,0,1,1
51,114,1,80,NaN,NaN,1,NaN,6.082629e-01,NaN,0,0,2,1
51,115,1,105,NaN,NaN,2,NaN,4.338319e-01,NaN,1,1,3,1
51,116,1,14,NaN,NaN,1,NaN,2.669718e-01,NaN,0,1,1,1
51,117,1,91,NaN,NaN,1,NaN,4.185772e-01,NaN,0,0,2,1
51,118,1,11,NaN,NaN,1,NaN,3.483208e-01,NaN,2,0,1,1
51,119,1,99,NaN,NaN,2,NaN,2.888481e-01,NaN,0,0,3,1
51,120,1,143,NaN,NaN,2,NaN,3.992576e-01,NaN,0,1,3,1
51,121,1,139,NaN,NaN,2,NaN,1.273616e+00,NaN,0,0,3,1
51,122,1,122,NaN,NaN,2,NaN,4.805048e-01,NaN,2,0,3,1
51,123,1,16,NaN,NaN,1,NaN,3.194344e-01,NaN,0,1,1,1
51,124,1,142,NaN,NaN,2,NaN,4.215724e-01,NaN,0,1,3,1
51,125,1,106,NaN,NaN,1,NaN,5.745208e-01,NaN,2,1,3,1
51,126,1,109,NaN,NaN,1,NaN,2.335457e-01,NaN,0,0,3,1
51,127,1,134,NaN,NaN,2,NaN,4.265653e-01,NaN,0,0,3,1
51,128,1,70,NaN,NaN,1,NaN,6.117278e-01,NaN,0,1,2,1
51,129,1,89,NaN,NaN,1,NaN,2.616092e-01,NaN,1,0,2,1
51,130,1,38,NaN,NaN,1,NaN,3.974076e-01,NaN,0,0,1,1
51,131,1,73,NaN,NaN,1,NaN,4.232643e-01,NaN,0,0,2,1
51,132,1,41,NaN,NaN,2,NaN,3.364389e-01,NaN,2,0,1,1
51,133,1,56,NaN,NaN,1,NaN,3.334238e-01,NaN,0,1,2,1
51,134,1,140,NaN,NaN,1,NaN,2.183991e-01,NaN,2,0,3,1
51,135,1,127,NaN,NaN,1,NaN,1.291900e-04,NaN,2,0,3,1
51,136,1,94,NaN,NaN,1,NaN,2.220753e-01,NaN,2,0,2,1
51,137,1,15,NaN,NaN,2,NaN,3.515373e-01,NaN,2,0,1,1
51,138,1,3,NaN,NaN,2,NaN,4.121219e-01,NaN,1,0,1,1
51,139,1,18,NaN,NaN,2,NaN,1.541514e+00,NaN,2,0,1,1
51,140,1,117,NaN,NaN,2,NaN,4.501530e-01,NaN,2,1,3,1
51,141,1,41,NaN,NaN,2,NaN,2.659051e-01,NaN,0,0,1,1
51,142,1,39,NaN,NaN,2,NaN,3.220074e-01,NaN,1,0,1,1
51,143,1,83,NaN,NaN,1,NaN,5.912467e-01,NaN,1,0,2,1
51,144,1,82,NaN,NaN,1,NaN,2.281442e+00,NaN,0,1,2,1
51,145,1,18,NaN,NaN,2,NaN,6.404738e-01,NaN,0,0,1,1
51,146,1,2,NaN,NaN,1,NaN,2.408407e-01,NaN,1,0,1,1
51,147,1,87,NaN,NaN,1,NaN,9.295374e-01,NaN,2,0,2,1
51,148,1,130,NaN,NaN,2,NaN,2.545919e-01,NaN,2,0,3,1
51,149,1,122,NaN,NaN,2,NaN,3.983868e-01,NaN,0,0,3,1
51,150,1,130,NaN,NaN,2,NaN,8.165505e-01,NaN,0,0,3,1
51,151,1,65,NaN,NaN,1,NaN,3.138947e-01,NaN,0,0,2,1
51,152,1,40,NaN,NaN,1,NaN,2.558491e-01,NaN,1,0,1,1
51,153,1,100,NaN,NaN,2,NaN,3.200907e-01,NaN,2,1,3,1
51,154,1,28,NaN,NaN,2,NaN,2.689151e-01,NaN,2,1,1,1
51,155,1,131,NaN,NaN,2,NaN,4.126544e-01,NaN,0,1,3,1
51,156,1,5,NaN,NaN,1,NaN,3.742340e-01,NaN,2,1,1,1
51,157,1,6,NaN,NaN,1,NaN,2.977124e-01,NaN,2,0,1,1
51,158,1,103,NaN,NaN,1,NaN,2.478082e-01,NaN,1,0,3,1
51,159,1,54,NaN,NaN,1,NaN,2.486280e-01,NaN,0,1,2,1
51,160,1,83,NaN,NaN,1,NaN,6.882976e-01,NaN,0,0,2,1
51,161,1,119,NaN,NaN,2,NaN,6.867963e-01,NaN,1,0,3,1
51,162,1,128,NaN,NaN,2,NaN,7.090447e-01,NaN,0,1,3,1
51,163,1,57,NaN,NaN,1,NaN,2.590194e-01,NaN,2,0,2,1
51,164,1,94,NaN,NaN,1,NaN,2.508934e-01,NaN,0,0,2,1
51,165,1,113,NaN,NaN,1,NaN,2.272483e-01,NaN,0,0,3,1
51,166,1,60,NaN,NaN,1,NaN,6.765468e-01,NaN,2,1,2,1
51,167,1,47,NaN,NaN,1,NaN,3.958700e-01,NaN,1,0,1,1
51,168,1,1,NaN,NaN,1,NaN,3.659893e-01,NaN,0,0,1,1
51,169,1,43,NaN,NaN,1,NaN,1.001762e+00,NaN,1,0,1,1
51,170,1,22,NaN,NaN,2,NaN,7.077969e-01,NaN,0,0,1,1
51,171,1,103,NaN,NaN,1,NaN,4.182443e-01,NaN,0,0,3,1
51,172,1,63,NaN,NaN,1,NaN,5.076015e-01,NaN,2,0,2,1
51,173,1,115,NaN,NaN,2,NaN,6.734278e-01,NaN,0,0,3,1
51,174,1,110,NaN,NaN,2,NaN,4.971604e-01,NaN,0,0,3,1
51,175,1,68,NaN,NaN,1,NaN,5.432245e-01,NaN,0,1,2,1
51,176,1,124,NaN,NaN,2,NaN,5.159092e-01,NaN,0,0,3,1
51,177,1,16,NaN,NaN,1,NaN,2.890678e-01,NaN,1,1,1,1
51,178,1,23,NaN,NaN,2,NaN,1.580616e-02,NaN,0,0,1,1
51,179,1,93,NaN,NaN,1,NaN,3.535983e-01,NaN,1,0,2,1
51,180,1,126,NaN,NaN,2,NaN,4.935222e-01,NaN,1,0,3,1
51,181,1,131,NaN,NaN,2,NaN,4.197994e-01,NaN,1,1,3,1
51,182,1,120,NaN,NaN,2,NaN,3.734724e-01,NaN,1,1,3,1
51,183,1,143,NaN,NaN,2,NaN,3.365171e-01,NaN,2,1,3,1
51,184,1,53,NaN,NaN,1,NaN,4.048858e-01,NaN,2,1,2,1
51,185,1,9,NaN,NaN,2,NaN,2.633805e-01,NaN,0,0,1,1
51,186,1,137,NaN,NaN,1,NaN,2.470944e-01,NaN,0,0,3,1
51,187,1,81,NaN,NaN,1,NaN,2.389647e-01,NaN,1,0,2,1
51,188,1,48,NaN,NaN,1,NaN,4.958292e-01,NaN,0,1,1,1
51,189,1,62,NaN,NaN,1,NaN,3.980433e-01,NaN,0,0,2,1
51,190,1,104,NaN,NaN,2,NaN,5.600907e-01,NaN,0,1,3,1
51,191,1,36,NaN,NaN,2,NaN,1.279827e-04,NaN,2,0,1,1
51,192,1,107,NaN,NaN,1,NaN,2.142584e-01,NaN,0,1,3,1
51,193,1,102,NaN,NaN,2,NaN,2.638097e-01,NaN,0,0,3,1
51,194,1,132,NaN,NaN,2,NaN,2.315333e-01,NaN,0,0,3,1
51,195,1,106,NaN,NaN,1,NaN,4.483546e-01,NaN,0,1,3,1
51,196,1,4,NaN,NaN,1,NaN,2.569520e-01,NaN,0,0,1,1
51,197,1,8,NaN,NaN,2,NaN,8.328882e-01,NaN,1,0,1,1
51,198,1,50,NaN,NaN,1,NaN,7.540198e-01,NaN,2,0,2,1
51,199,1,30,NaN,NaN,2,NaN,2.859552e-01,NaN,2,0,1,1
51,200,1,10,NaN,NaN,2,NaN,1.236848e+00,NaN,0,0,1,1
51,201,1,17,NaN,NaN,1,NaN,2.689398e-01,NaN,2,0,1,1
51,202,1,32,NaN,NaN,2,NaN,5.407756e-01,NaN,1,0,1,1
51,203,1,21,NaN,NaN,2,NaN,2.496347e-01,NaN,1,0,1,1
51,204,1,67,NaN,NaN,1,NaN,6.254262e-01,NaN,1,0,2,1
51,205,1,74,NaN,NaN,1,NaN,8.028400e-01,NaN,2,0,2,1
51,206,1,82,NaN,NaN,1,NaN,5.247355e-01,NaN,2,1,2,1
51,207,1,45,NaN,NaN,2,NaN,5.459317e-01,NaN,0,1,1,1
51,208,1,121,NaN,NaN,1,NaN,4.220379e-01,NaN,1,0,3,1
51,209,1,95,NaN,NaN,1,NaN,2.396282e-01,NaN,2,0,2,1
51,210,1,123,NaN,NaN,1,NaN,2.961826e-01,NaN,2,0,3,1
51,211,1,135,NaN,NaN,1,NaN,3.743363e-01,NaN,0,0,3,1
51,212,1,116,NaN,NaN,1,NaN,2.494608e-01,NaN,2,0,3,1
51,213,1,117,NaN,NaN,2,NaN,3.062489e-01,NaN,0,1,3,1
51,214,1,63,NaN,NaN,1,NaN,2.082365e-01,NaN,0,0,2,1
51,215,1,11,NaN,NaN,1,NaN,4.021115e-01,NaN,0,0,1,1
51,216,1,124,NaN,NaN,1,NaN,3.081795e-01,NaN,1,0,3,1
51,217,1,27,NaN,NaN,1,NaN,3.704165e-01,NaN,2,1,1,1
51,218,1,33,NaN,NaN,2,NaN,4.775084e-01,NaN,0,0,1,1
51,219,1,138,NaN,NaN,1,NaN,6.848041e-01,NaN,0,0,3,1
51,220,1,136,NaN,NaN,2,NaN,2.759895e-01,NaN,0,0,3,1
51,221,1,4,NaN,NaN,1,NaN,3.309927e-01,NaN,1,0,1,1
51,222,1,88,NaN,NaN,1,NaN,1.823588e+00,NaN,1,1,2,1
51,223,1,101,NaN,NaN,2,NaN,5.768417e-01,NaN,1,1,3,1
51,224,1,56,NaN,NaN,1,NaN,4.442100e-01,NaN,1,1,2,1
51,225,1,128,NaN,NaN,2,NaN,4.369904e-01,NaN,2,1,3,1
51,226,1,3,NaN,NaN,2,NaN,2.537546e-01,NaN,0,0,1,1
51,227,1,99,NaN,NaN,2,NaN,4.612377e-01,NaN,1,0,3,1
51,228,1,65,NaN,NaN,1,NaN,2.931023e-01,NaN,2,0,2,1
51,229,1,85,NaN,NaN,1,NaN,1.139426e+00,NaN,1,0,2,1
51,230,1,71,NaN,NaN,1,NaN,6.400455e-01,NaN,0,0,2,1
51,231,1,14,NaN,NaN,1,NaN,5.606196e-01,NaN,2,1,1,1
51,232,1,75,NaN,NaN,1,NaN,7.806531e-01,NaN,0,1,2,1
51,233,1,13,NaN,NaN,1,NaN,4.794194e-01,NaN,2,0,1,1
51,234,1,119,NaN,NaN,2,NaN,2.226696e-01,NaN,0,0,3,1
51,235,1,109,NaN,NaN,1,NaN,2.635181e-01,NaN,1,0,3,1
51,236,1,77,NaN,NaN,1,NaN,2.233892e-01,NaN,0,0,2,1
51,237,1,86,NaN,NaN,1,NaN,1.552373e+00,NaN,2,0,2,1
51,238,1,136,NaN,NaN,2,NaN,1.500681e+00,NaN,1,0,3,1
51,239,1,45,NaN,NaN,2,NaN,5.389482e-01,NaN,1,1,1,1
51,240,1,35,NaN,NaN,2,NaN,7.913439e-01,NaN,0,0,1,1
51,241,1,15,NaN,NaN,1,NaN,1.050279e+00,NaN,0,0,1,1
51,242,1,142,NaN,NaN,2,NaN,4.104189e-01,NaN,1,1,3,1
51,243,1,51,NaN,NaN,1,NaN,6.765350e-01,NaN,0,1,2,1
51,244,1,7,NaN,NaN,1,NaN,6.913831e-01,NaN,1,1,1,1
51,245,1,29,NaN,NaN,1,NaN,3.059045e-01,NaN,0,0,1,1
51,246,1,34,NaN,NaN,1,NaN,2.959952e-01,NaN,2,1,1,1
51,247,1,29,NaN,NaN,1,NaN,3.584009e-01,NaN,1,0,1,1
51,248,1,139,NaN,NaN,2,NaN,3.062779e-01,NaN,2,0,3,1
51,249,1,74,NaN,NaN,1,NaN,2.721141e-01,NaN,0,0,2,1
51,250,1,34,NaN,NaN,1,NaN,4.553949e-01,NaN,0,1,1,1
51,251,1,93,NaN,NaN,1,NaN,6.154073e-01,NaN,0,0,2,1
51,252,1,33,NaN,NaN,1,NaN,5.931881e-01,NaN,1,0,1,1
51,253,1,26,NaN,NaN,2,NaN,4.277530e-01,NaN,2,0,1,1
51,254,1,90,NaN,NaN,1,NaN,2.770583e-01,NaN,1,0,2,1
51,255,1,22,NaN,NaN,2,NaN,3.243268e-01,NaN,2,0,1,1
51,256,1,137,NaN,NaN,1,NaN,4.174387e-01,NaN,1,0,3,1
51,257,1,129,NaN,NaN,2,NaN,3.228776e-01,NaN,2,0,3,1
51,258,1,91,NaN,NaN,1,NaN,5.681654e-01,NaN,1,0,2,1
51,259,1,144,NaN,NaN,1,NaN,3.641792e-01,NaN,2,0,3,1
51,260,1,127,NaN,NaN,1,NaN,4.154733e-01,NaN,0,0,3,1
51,261,1,80,NaN,NaN,1,NaN,3.849754e-01,NaN,2,0,2,1
51,262,1,69,NaN,NaN,1,NaN,4.440050e-01,NaN,2,0,2,1
51,263,1,69,NaN,NaN,1,NaN,5.485092e-01,NaN,0,0,2,1
51,264,1,73,NaN,NaN,1,NaN,3.052024e-01,NaN,2,0,2,1
51,265,1,92,NaN,NaN,1,NaN,8.545755e-01,NaN,0,0,2,1
51,266,1,78,NaN,NaN,1,NaN,2.470950e-01,NaN,0,0,2,1
51,267,1,112,NaN,NaN,1,NaN,3.429193e-01,NaN,1,0,3,1
51,268,1,6,NaN,NaN,1,NaN,2.756861e-01,NaN,0,0,1,1
51,269,1,129,NaN,NaN,2,NaN,4.908473e-01,NaN,0,0,3,1
51,270,1,49,NaN,NaN,1,NaN,2.653509e-01,NaN,1,0,2,1
51,271,1,135,NaN,NaN,1,NaN,2.170510e-01,NaN,1,0,3,1
51,272,1,37,NaN,NaN,2,NaN,2.827101e-01,NaN,0,0,1,1
51,273,1,36,NaN,NaN,2,NaN,3.376025e-01,NaN,0,0,1,1
51,274,1,77,NaN,NaN,1,NaN,5.506864e-01,NaN,1,0,2,1
51,275,1,120,NaN,NaN,2,NaN,4.265339e-01,NaN,0,1,3,1
51,276,1,98,NaN,NaN,1,NaN,4.279136e-01,NaN,0,0,3,1
51,277,1,87,NaN,NaN,1,NaN,5.975628e-01,NaN,0,0,2,1
51,278,1,97,NaN,NaN,2,NaN,4.875563e-01,NaN,1,1,3,1
51,279,1,47,NaN,NaN,1,NaN,2.460307e-01,NaN,0,0,1,1
51,280,1,64,NaN,NaN,1,NaN,9.661918e-01,NaN,1,0,2,1
51,281,1,59,NaN,NaN,1,NaN,2.977924e-01,NaN,2,0,2,1
51,282,1,19,NaN,NaN,2,NaN,3.600496e-01,NaN,2,0,1,1
51,283,1,54,NaN,NaN,1,NaN,2.203131e-01,NaN,1,1,2,1
51,284,1,84,NaN,NaN,1,NaN,6.695400e-01,NaN,1,0,2,1
51,285,1,111,NaN,NaN,1,NaN,4.372666e-01,NaN,0,0,3,1
51,286,1,52,NaN,NaN,1,NaN,6.056450e-01,NaN,0,1,2,1
51,287,1,66,NaN,NaN,1,NaN,4.055392e+00,NaN,0,0,2,1
51,288,1,8,NaN,NaN,2,NaN,2.007201e+00,NaN,0,0,1,1
51,414,2,98,13,1,0,0,3.499968e+00,NaN,1,0,3,1
51,415,2,64,26,1,1,1,1.132330e+00,NaN,1,0,2,1
51,416,2,21,33,2,2,1,1.252427e+00,NaN,1,0,1,1
51,417,2,93,14,1,2,0,7.836921e-01,NaN,1,0,2,1
51,418,2,83,64,2,1,0,7.099481e-01,NaN,1,0,2,1
51,419,2,32,7,1,2,0,2.350905e+00,NaN,1,0,1,1
51,420,2,85,70,1,1,1,7.500807e-01,NaN,1,0,2,1
51,421,2,142,72,2,2,1,1.022274e+00,NaN,1,1,3,1
51,422,2,55,46,2,2,1,1.018565e+00,NaN,1,0,2,1
51,423,2,33,62,1,1,1,9.669002e-01,NaN,1,0,1,1
51,424,2,101,36,2,2,1,9.180265e-01,NaN,1,1,3,1
51,425,2,137,21,1,1,1,1.079043e+00,NaN,1,0,3,1
51,426,2,71,66,2,2,1,1.544996e+00,NaN,1,0,2,1
51,427,2,132,31,1,1,1,9.133563e-01,NaN,1,0,3,1
51,428,2,76,55,2,2,1,9.216212e-01,NaN,1,0,2,1
51,429,2,125,52,2,2,1,9.861175e-01,NaN,1,0,3,1
51,430,2,51,69,2,2,1,7.440836e-01,NaN,1,1,2,1
51,431,2,2,71,2,2,1,1.048105e+00,NaN,1,0,1,1
51,432,2,135,20,1,1,1,6.755187e-01,NaN,1,0,3,1
51,433,2,109,3,1,1,1,1.566095e+00,NaN,1,0,3,1
51,434,2,1,2,1,1,1,9.089050e-01,NaN,1,0,1,1
51,435,2,90,18,1,1,1,7.417606e-01,NaN,1,0,2,1
51,436,2,89,41,1,1,1,7.499394e-01,NaN,1,0,2,1
51,437,2,104,19,2,1,0,9.655005e-01,NaN,1,1,3,1
51,438,3,71,66,2,2,1,9.313560e-01,NaN,1,0,2,1
51,439,3,1,2,1,1,1,6.992447e-01,NaN,1,0,1,1
51,440,3,83,64,2,2,1,6.285584e-01,NaN,1,0,2,1
51,441,3,55,46,2,2,1,7.929793e-01,NaN,1,0,2,1
51,442,3,109,3,2,2,1,7.505911e-01,NaN,1,0,3,1
51,443,3,89,41,2,2,1,6.618556e-01,NaN,1,0,2,1
51,444,3,101,36,2,2,1,6.488304e-01,NaN,1,1,3,1
51,445,3,76,55,1,2,0,4.921356e-01,NaN,1,0,2,1
51,446,3,125,52,2,2,1,7.341003e-01,NaN,1,0,3,1
51,447,3,132,31,1,1,1,7.342636e-01,NaN,1,0,3,1
51,448,3,93,14,2,2,1,6.620443e-01,NaN,1,0,2,1
51,449,3,98,13,2,2,1,1.289147e+00,NaN,1,0,3,1
51,450,3,51,69,2,2,1,4.989150e-01,NaN,1,1,2,1
51,451,3,85,70,2,2,1,4.683018e-01,NaN,1,0,2,1
51,452,3,64,26,1,1,1,5.109529e-01,NaN,1,0,2,1
51,453,3,21,33,2,2,1,4.483166e-01,NaN,1,0,1,1
51,454,3,32,7,1,1,1,4.198918e-01,NaN,1,0,1,1
51,455,3,104,19,2,2,1,1.096640e+00,NaN,1,1,3,1
51,456,3,137,21,1,1,1,8.496521e-01,NaN,1,0,3,1
51,457,3,90,18,2,2,1,5.415553e-01,NaN,1,0,2,1
51,458,3,33,62,2,2,1,7.729053e-01,NaN,1,0,1,1
51,459,3,142,72,2,2,1,7.401687e-01,NaN,1,1,3,1
51,460,3,2,71,2,2,1,8.268917e-01,NaN,1,0,1,1
51,461,3,135,20,1,1,1,5.114030e-01,NaN,1,0,3,1
51,486,2,68,34,2,2,1,1.093429e+00,NaN,1,1,2,2
51,487,2,25,9,2,2,1,8.712410e-01,NaN,1,1,1,2
51,488,2,47,56,2,2,1,9.218120e-01,NaN,1,0,1,2
51,489,2,81,43,2,2,1,6.580346e-01,NaN,1,0,2,2
51,490,2,91,45,1,1,1,9.648857e-01,NaN,1,0,2,2
51,491,2,97,63,2,2,1,6.360125e-01,NaN,1,1,3,2
51,492,2,114,32,2,2,1,1.103603e+00,NaN,1,1,3,2
51,493,2,38,17,1,1,1,1.792912e+00,NaN,1,0,1,2
51,494,2,42,68,1,1,1,1.126806e+00,NaN,1,0,1,2
51,495,2,99,61,2,1,0,1.350976e+00,NaN,1,0,3,2
51,496,2,24,49,2,2,1,8.390682e-01,NaN,1,0,1,2
51,497,2,49,29,2,2,1,6.664760e-01,NaN,1,0,2,2
51,498,2,67,53,2,1,0,1.284974e+00,NaN,1,0,2,2
51,499,2,43,38,2,2,1,1.390974e+00,NaN,1,0,1,2
51,500,2,136,12,2,2,1,6.849484e-01,NaN,1,0,3,2
51,501,2,16,5,2,2,1,6.711241e-01,NaN,1,1,1,2
51,502,2,66,8,1,1,1,6.013349e-01,NaN,1,0,2,2
51,503,2,8,60,1,2,0,1.534837e+00,NaN,1,0,1,2
51,504,2,77,27,2,2,1,4.786406e-01,NaN,1,0,2,2
51,505,2,126,6,2,2,1,1.160747e+00,NaN,1,0,3,2
51,506,2,3,59,2,2,1,8.881519e-01,NaN,1,0,1,2
51,507,2,20,48,2,2,1,1.546189e+00,NaN,1,0,1,2
51,508,2,88,16,1,1,1,7.776386e-01,NaN,1,1,2,2
51,509,2,56,4,2,2,1,6.478699e-01,NaN,1,1,2,2
51,510,3,49,29,2,2,1,1.058605e+00,NaN,1,0,2,2
51,511,3,67,53,2,2,1,8.536769e-01,NaN,1,0,2,2
51,512,3,3,59,1,1,1,1.169264e+00,NaN,1,0,1,2
51,513,3,56,4,2,2,1,5.515041e-01,NaN,1,1,2,2
51,514,3,42,68,1,1,1,5.593732e-01,NaN,1,0,1,2
51,515,3,114,32,2,2,1,9.104764e-01,NaN,1,1,3,2
51,516,3,24,49,1,1,1,6.955915e-01,NaN,1,0,1,2
51,517,3,43,38,2,2,1,5.689384e-01,NaN,1,0,1,2
51,518,3,68,34,1,1,1,6.641491e-01,NaN,1,1,2,2
51,519,3,97,63,2,2,1,4.188924e-01,NaN,1,1,3,2
51,520,3,16,5,2,2,1,6.082062e-01,NaN,1,1,1,2
51,521,3,66,8,2,2,1,4.052782e-01,NaN,1,0,2,2
51,522,3,77,27,1,1,1,4.420183e-01,NaN,1,0,2,2
51,523,3,91,45,2,2,1,5.901534e-01,NaN,1,0,2,2
51,524,3,136,12,2,2,1,7.245943e-01,NaN,1,0,3,2
51,525,3,88,16,2,2,1,1.172917e+00,NaN,1,1,2,2
51,526,3,38,17,2,2,1,6.670063e-01,NaN,1,0,1,2
51,527,3,99,61,2,2,1,2.029937e+00,NaN,1,0,3,2
51,528,3,47,56,2,1,0,1.890351e+00,NaN,1,0,1,2
51,529,3,25,9,2,2,1,6.201581e-01,NaN,1,1,1,2
51,530,3,8,60,2,2,1,6.725564e-01,NaN,1,0,1,2
51,531,3,81,43,2,2,1,5.872819e-01,NaN,1,0,2,2
51,532,3,126,6,2,2,1,7.214032e-01,NaN,1,0,3,2
51,533,3,20,48,1,1,1,7.065343e-01,NaN,1,0,1,2
51,558,2,124,50,2,2,1,4.901799e-01,NaN,1,0,3,3
51,559,2,4,51,1,1,1,4.117673e-01,NaN,1,0,1,3
51,560,2,31,40,2,2,1,1.920198e+00,NaN,1,0,1,3
51,561,2,105,1,1,1,1,7.126192e-01,NaN,1,1,3,3
51,562,2,92,15,1,1,1,1.729322e+00,NaN,1,0,2,3
51,563,2,103,39,2,2,1,9.214114e-01,NaN,1,0,3,3
51,564,2,84,25,2,2,1,6.184937e-01,NaN,1,0,2,3
51,565,2,58,44,2,2,1,6.066815e-01,NaN,1,0,2,3
51,566,2,7,30,1,1,1,6.039094e-01,NaN,1,1,1,3
51,567,2,120,22,2,2,1,7.132470e-01,NaN,1,1,3,3
51,568,2,40,35,2,2,1,1.593779e+00,NaN,1,0,1,3
51,569,2,54,57,2,2,1,5.754888e-01,NaN,1,1,2,3
51,570,2,45,23,2,2,1,6.541130e-01,NaN,1,1,1,3
51,571,2,112,42,1,1,1,9.452491e-01,NaN,1,0,3,3
51,572,2,131,47,1,1,1,8.327273e-01,NaN,1,1,3,3
51,573,2,138,11,2,2,1,1.005157e+00,NaN,1,0,3,3
51,574,2,119,54,1,1,1,8.020649e-01,NaN,1,0,3,3
51,575,2,121,24,2,2,1,8.479563e-01,NaN,1,0,3,3
51,576,2,75,37,1,1,1,6.603745e-01,NaN,1,1,2,3
51,577,2,39,10,2,2,1,4.951066e-01,NaN,1,0,1,3
51,578,2,115,65,1,1,1,1.152320e+00,NaN,1,0,3,3
51,579,2,29,67,1,2,0,9.917714e-01,NaN,1,0,1,3
51,580,2,46,28,2,2,1,7.414053e-01,NaN,1,0,1,3
51,581,2,35,58,2,2,1,1.189391e+00,NaN,1,0,1,3
51,582,3,29,67,1,1,1,9.997935e-01,NaN,1,0,1,3
51,583,3,92,15,1,1,1,5.653127e-01,NaN,1,0,2,3
51,584,3,103,39,2,2,1,6.120671e-01,NaN,1,0,3,3
51,585,3,58,44,2,2,1,5.369675e-01,NaN,1,0,2,3
51,586,3,84,25,2,2,1,4.168887e-01,NaN,1,0,2,3
51,587,3,75,37,1,1,1,5.897335e-01,NaN,1,1,2,3
51,588,3,31,40,2,2,1,1.771477e+00,NaN,1,0,1,3
51,589,3,112,42,2,2,1,1.969624e+00,NaN,1,0,3,3
51,590,3,4,51,1,1,1,6.083073e-01,NaN,1,0,1,3
51,591,3,35,58,2,2,1,4.220391e-01,NaN,1,0,1,3
51,592,3,45,23,1,1,1,8.175363e-01,NaN,1,1,1,3
51,593,3,39,10,1,1,1,4.948286e-01,NaN,1,0,1,3
51,594,3,138,11,1,1,1,1.064381e+00,NaN,1,0,3,3
51,595,3,131,47,2,2,1,1.059036e+00,NaN,1,1,3,3
51,596,3,54,57,1,1,1,4.222045e-01,NaN,1,1,2,3
51,597,3,46,28,1,1,1,8.191080e-01,NaN,1,0,1,3
51,598,3,120,22,2,2,1,7.834552e-01,NaN,1,1,3,3
51,599,3,124,50,1,1,1,4.861406e-01,NaN,1,0,3,3
51,600,3,7,30,2,2,1,6.802966e-01,NaN,1,1,1,3
51,601,3,40,35,2,2,1,6.345135e-01,NaN,1,0,1,3
51,602,3,121,24,1,1,1,9.265597e-01,NaN,1,0,3,3
51,603,3,115,65,1,1,1,1.319221e+00,NaN,1,0,3,3
51,604,3,105,1,2,2,1,1.080014e+00,NaN,1,1,3,3
51,605,3,119,54,1,1,1,6.661114e-01,NaN,1,0,3,3
51,630,4,14,34,2,2,1,1.626572e+00,NaN,2,1,1,1
51,631,4,118,15,1,1,1,7.670815e-01,NaN,2,0,3,1
51,632,4,87,62,2,2,1,8.214216e-01,NaN,2,0,2,1
51,633,4,94,33,1,1,1,1.426163e+00,NaN,2,0,2,1
51,634,4,140,60,1,2,0,2.142971e+00,NaN,2,0,3,1
51,635,4,18,8,1,1,1,9.183223e-01,NaN,2,0,1,1
51,636,4,108,46,2,2,1,1.135806e+00,NaN,2,0,3,1
51,637,4,102,27,2,2,1,9.277127e-01,NaN,2,0,3,1
51,638,4,62,54,2,2,1,5.522829e-01,NaN,2,0,2,1
51,639,4,27,22,1,1,1,8.317095e-01,NaN,2,1,1,1
51,640,4,123,17,2,2,1,1.243686e+00,NaN,2,0,3,1
51,641,4,70,32,2,1,0,1.319147e+00,NaN,2,1,2,1
51,642,4,110,41,2,1,0,1.352029e+00,NaN,2,0,3,1
51,643,4,26,52,2,2,1,1.959050e+00,NaN,2,0,1,1
51,644,4,37,50,1,1,1,6.540849e-01,NaN,2,0,1,1
51,645,4,15,29,1,2,0,9.692781e-01,NaN,2,0,1,1
51,646,4,36,11,1,1,1,9.441084e-01,NaN,2,0,1,1
51,647,4,44,31,2,2,1,1.079802e+00,NaN,2,0,1,1
51,648,4,28,36,2,2,1,6.979380e-01,NaN,2,1,1,1
51,649,4,61,3,2,1,0,8.830987e-01,NaN,2,0,2,1
51,650,4,69,20,1,1,1,7.337067e-01,NaN,2,0,2,1
51,651,4,143,9,2,2,1,1.077789e+00,NaN,2,1,3,1
51,652,4,23,65,2,2,1,1.432068e+00,NaN,2,0,1,1
51,653,4,95,28,1,1,1,6.124498e-01,NaN,2,0,2,1
51,678,4,17,70,2,2,1,1.437360e+00,NaN,2,0,1,2
51,679,4,133,68,1,1,1,8.168297e-01,NaN,2,0,3,2
51,680,4,53,47,1,1,1,9.177708e-01,NaN,2,1,2,2
51,681,4,100,37,1,1,1,5.986546e-01,NaN,2,1,3,2
51,682,4,139,56,1,1,1,9.559682e-01,NaN,2,0,3,2
51,683,4,129,35,2,2,1,9.319603e-01,NaN,2,0,3,2
51,684,4,65,24,1,1,1,9.390709e-01,NaN,2,0,2,2
51,685,4,48,19,1,1,1,1.010807e+00,NaN,2,1,1,2
51,686,4,111,18,2,2,1,1.431983e+00,NaN,2,0,3,2
51,687,4,12,44,1,1,1,7.800262e-01,NaN,2,0,1,2
51,688,4,60,63,1,1,1,1.274199e+00,NaN,2,1,2,2
51,689,4,141,51,2,2,1,1.860269e+00,NaN,2,0,3,2
51,690,4,106,16,2,2,1,1.575279e+00,NaN,2,1,3,2
51,691,4,113,45,1,1,1,7.419169e-01,NaN,2,0,3,2
51,692,4,127,10,2,1,0,1.789940e+00,NaN,2,0,3,2
51,693,4,57,21,1,1,1,8.672089e-01,NaN,2,0,2,2
51,694,4,63,42,1,1,1,1.126294e+00,NaN,2,0,2,2
51,695,4,130,38,2,2,1,1.878426e+00,NaN,2,0,3,2
51,696,4,134,67,1,1,1,1.200411e+00,NaN,2,0,3,2
51,697,4,73,48,1,1,1,7.177343e-01,NaN,2,0,2,2
51,698,4,9,26,1,2,0,1.014693e+00,NaN,2,0,1,2
51,699,4,107,57,1,1,1,1.195858e+00,NaN,2,1,3,2
51,700,4,116,43,1,1,1,1.201325e+00,NaN,2,0,3,2
51,701,4,59,12,1,1,1,8.227259e-01,NaN,2,0,2,2
51,726,4,41,61,2,2,1,8.986193e-01,NaN,2,0,1,3
51,727,4,11,14,2,2,1,7.242212e-01,NaN,2,0,1,3
51,728,4,10,64,2,2,1,1.340667e+00,NaN,2,0,1,3
51,729,4,22,6,1,1,1,1.020431e+00,NaN,2,0,1,3
51,730,4,78,49,1,1,1,6.807261e-01,NaN,2,0,2,3
51,731,4,50,13,1,1,1,6.271784e-01,NaN,2,0,2,3
51,732,4,52,1,2,2,1,1.839142e+00,NaN,2,1,2,3
51,733,4,19,53,2,2,1,8.429547e-01,NaN,2,0,1,3
51,734,4,13,55,2,2,1,9.986360e-01,NaN,2,0,1,3
51,735,4,5,4,2,2,1,1.308225e+00,NaN,2,1,1,3
51,736,4,144,58,1,1,1,1.197414e+00,NaN,2,0,3,3
51,737,4,117,69,1,1,1,1.419340e+00,NaN,2,1,3,3
51,738,4,30,39,2,2,1,7.598602e-01,NaN,2,0,1,3
51,739,4,82,23,2,2,1,8.228304e-01,NaN,2,1,2,3
51,740,4,72,2,2,2,1,6.114954e-01,NaN,2,0,2,3
51,741,4,6,66,2,2,1,2.112825e+00,NaN,2,0,1,3
51,742,4,128,30,1,1,1,1.265371e+00,NaN,2,1,3,3
51,743,4,86,59,2,2,1,9.403682e-01,NaN,2,0,2,3
51,744,4,74,40,2,2,1,6.598155e-01,NaN,2,0,2,3
51,745,4,96,7,2,2,1,6.791523e-01,NaN,2,0,2,3
51,746,4,34,72,2,2,1,1.113058e+00,NaN,2,1,1,3
51,747,4,80,71,2,2,1,7.938996e-01,NaN,2,0,2,3
51,748,4,122,25,1,1,1,9.119890e-01,NaN,2,0,3,3
51,749,4,79,5,1,2,0,9.934010e-01,NaN,2,1,2,3
51,750,5,4.839000e+01,56,1,0,0,2.500210e+00,1,1,0,1.300000e+00,1
51,751,5,4.027000e+01,10,1,0,0,2.500435e+00,1,1,0,1.300000e+00,1
51,752,5,6.409000e+01,26,2,0,0,2.500107e+00,1,1,0,2.100000e+00,1
51,753,5,9.318000e+01,15,2,0,0,2.500196e+00,1,1,0,2.300000e+00,1
51,754,5,7.802000e+01,27,2,0,0,2.500457e+00,1,1,0,2.300000e+00,1
51,755,5,9.111000e+01,18,2,0,0,2.500191e+00,1,1,0,2.300000e+00,1
51,756,5,6.409000e+01,26,2,0,0,2.500499e+00,2,1,0,2.100000e+00,1
51,757,5,1.365900e+02,12,3,0,0,2.500478e+00,1,1,0,3.200000e+00,1
51,758,5,9.400000e+00,60,1,0,0,2.500485e+00,1,1,0,1.300000e+00,1
51,759,5,5.410000e+00,51,1,0,0,2.500288e+00,1,1,0,1.300000e+00,1
51,760,5,7.613000e+01,55,2,0,0,2.500083e+00,1,1,0,2.100000e+00,1
51,761,5,4.915000e+01,29,2,0,0,2.500466e+00,1,1,0,2.100000e+00,1
51,762,5,7.613000e+01,55,2,0,0,2.500232e+00,2,1,0,2.100000e+00,1
51,763,5,6.409000e+01,26,2,0,0,2.500035e+00,3,1,0,2.100000e+00,1
51,764,5,1.033000e+02,39,3,0,0,2.500308e+00,1,1,0,3.100000e+00,1
51,765,5,2.194000e+01,33,1,0,0,2.500175e+00,1,1,0,1.200000e+00,1
51,766,5,1.356900e+02,20,3,0,0,2.500407e+00,1,1,0,3.200000e+00,1
51,767,5,1.324400e+02,31,3,0,0,2.500369e+00,1,1,0,3.100000e+00,1
51,768,5,9.850000e+01,13,3,0,0,2.500356e+00,1,1,0,3.200000e+00,1
51,769,5,9.111000e+01,18,2,0,0,2.500473e+00,2,1,0,2.300000e+00,1
51,770,5,4.430000e+01,38,1,0,0,2.500201e+00,1,1,0,1.300000e+00,1
51,771,5,1.375700e+02,21,3,0,0,2.500560e+00,1,1,0,3.200000e+00,1
51,772,5,8.517000e+01,70,2,0,0,2.500115e+00,1,1,0,2.100000e+00,1
51,773,5,9.318000e+01,15,2,0,0,2.500137e+00,2,1,0,2.300000e+00,1
51,774,5,4.027000e+01,10,1,0,0,2.500575e+00,2,1,0,1.300000e+00,1
51,775,5,7.802000e+01,27,2,0,0,2.500600e+00,2,1,0,2.300000e+00,1
51,776,5,3.644000e+01,58,1,0,0,2.500156e+00,1,1,0,1.300000e+00,1
51,777,5,2.194000e+01,33,1,0,0,2.500014e+00,2,1,0,1.200000e+00,1
51,778,5,1.096100e+02,3,3,0,0,2.500307e+00,1,1,0,3.200000e+00,1
51,779,5,3.034000e+01,67,1,0,0,2.500243e+00,1,1,0,1.300000e+00,1
51,780,5,1.262200e+02,6,3,0,0,2.500300e+00,1,1,0,3.100000e+00,1
51,781,5,4.129000e+01,35,1,0,0,2.500167e+00,1,1,0,1.300000e+00,1
51,782,5,3.034000e+01,67,1,0,0,2.500586e+00,2,1,0,1.300000e+00,1
51,783,5,1.324400e+02,31,3,0,0,2.500618e+00,2,1,0,3.100000e+00,1
51,784,5,2.194000e+01,33,1,0,0,2.500582e+00,3,1,0,1.200000e+00,1
51,785,5,5.812000e+01,44,2,0,0,2.500527e+00,1,1,0,2.100000e+00,1
51,786,5,8.310000e+01,64,2,0,0,2.500515e+00,1,1,0,2.100000e+00,1
51,787,5,6.719000e+01,53,2,0,0,2.500008e+00,1,1,0,2.100000e+00,1
51,788,5,7.802000e+01,27,2,0,0,2.500050e+00,3,1,0,2.300000e+00,1
51,789,5,1.365900e+02,12,3,0,0,2.500429e+00,2,1,0,3.200000e+00,1
51,790,5,3.174000e+01,40,1,0,0,2.500073e+00,1,1,0,1.200000e+00,1
51,791,5,1.262200e+02,6,3,0,0,2.500195e+00,2,1,0,3.100000e+00,1
51,792,5,1.216500e+02,24,3,0,0,2.500158e+00,1,1,0,3.200000e+00,1
51,793,5,4.430000e+01,38,1,0,0,2.500531e+00,2,1,0,1.300000e+00,1
51,794,5,8.216000e+01,43,2,0,0,2.500118e+00,1,1,0,2.300000e+00,1
51,795,5,4.027000e+01,10,1,0,0,2.500100e+00,3,1,0,1.300000e+00,1
51,796,5,1.365900e+02,12,3,0,0,2.500534e+00,3,1,0,3.200000e+00,1
51,797,5,4.695000e+01,28,1,0,0,2.500125e+00,1,1,0,1.200000e+00,1
51,798,5,1.216500e+02,24,3,0,0,2.500316e+00,2,1,0,3.200000e+00,1
51,799,5,3.387000e+01,62,1,0,0,2.500127e+00,1,1,0,1.200000e+00,1
51,800,5,1.152300e+02,65,3,0,0,2.500505e+00,1,1,0,3.100000e+00,1
51,801,5,1.383600e+02,11,3,0,0,2.500185e+00,1,1,0,3.100000e+00,1
51,802,5,9.850000e+01,13,3,0,0,2.500192e+00,2,1,0,3.200000e+00,1
51,803,5,2.073000e+01,48,1,0,0,2.500337e+00,1,1,0,1.200000e+00,1
51,804,5,3.860000e+00,59,1,0,0,2.500465e+00,1,1,0,1.200000e+00,1
51,805,5,1.383600e+02,11,3,0,0,2.500297e+00,2,1,0,3.100000e+00,1
51,806,5,3.860000e+00,59,1,0,0,2.500381e+00,2,1,0,1.200000e+00,1
51,807,5,1.096100e+02,3,3,0,0,2.500331e+00,2,1,0,3.200000e+00,1
51,808,5,7.106000e+01,66,2,0,0,2.500565e+00,1,1,0,2.100000e+00,1
51,809,5,3.644000e+01,58,1,0,0,2.500163e+00,2,1,0,1.300000e+00,1
51,810,5,3.860000e+00,59,1,0,0,2.500228e+00,3,1,0,1.200000e+00,1
51,811,5,9.010000e+01,41,2,0,0,2.500400e+00,1,1,0,2.300000e+00,1
51,812,5,1.252600e+02,52,3,0,0,2.500023e+00,1,1,0,3.100000e+00,1
51,813,5,9.111000e+01,18,2,0,0,2.500272e+00,3,1,0,2.300000e+00,1
51,814,5,3.644000e+01,58,1,0,0,2.500418e+00,3,1,0,1.300000e+00,1
51,815,5,9.111000e+01,18,2,0,0,2.500029e+00,4,1,0,2.300000e+00,1
51,816,5,2.073000e+01,48,1,0,0,2.500461e+00,2,1,0,1.200000e+00,1
51,817,5,1.262200e+02,6,3,0,0,2.500077e+00,3,1,0,3.100000e+00,1
51,818,5,1.375700e+02,21,3,0,0,2.500111e+00,2,1,0,3.200000e+00,1
51,819,5,1.126300e+02,42,3,0,0,2.500514e+00,1,1,0,3.200000e+00,1
51,820,5,9.318000e+01,15,2,0,0,2.500474e+00,3,1,0,2.300000e+00,1
51,821,5,3.387000e+01,62,1,0,0,2.500318e+00,2,1,0,1.200000e+00,1
51,822,5,8.216000e+01,43,2,0,0,2.500176e+00,2,1,0,2.300000e+00,1
51,823,5,7.613000e+01,55,2,0,0,2.500032e+00,3,1,0,2.100000e+00,1
51,824,5,2.478000e+01,49,1,0,0,2.500411e+00,1,1,0,1.200000e+00,1
51,825,5,3.923000e+01,17,1,0,0,2.500113e+00,1,1,0,1.300000e+00,1
51,826,5,4.915000e+01,29,2,0,0,2.500004e+00,2,1,0,2.100000e+00,1
51,827,5,6.618000e+01,8,2,0,0,2.500059e+00,1,1,0,2.100000e+00,1
51,828,5,5.410000e+00,51,1,0,0,2.500537e+00,2,1,0,1.300000e+00,1
51,829,5,9.010000e+01,41,2,0,0,2.500066e+00,2,1,0,2.300000e+00,1
51,830,5,8.310000e+01,64,2,0,0,2.500306e+00,2,1,0,2.100000e+00,1
51,831,5,9.318000e+01,15,2,0,0,2.500104e+00,4,1,0,2.300000e+00,1
51,832,5,1.126300e+02,42,3,0,0,2.500426e+00,2,1,0,3.200000e+00,1
51,833,5,9.213000e+01,45,2,0,0,2.500085e+00,1,1,0,2.300000e+00,1
51,834,5,5.608000e+01,46,2,0,0,2.500139e+00,1,1,0,2.300000e+00,1
51,835,5,1.243700e+02,50,3,0,0,2.500619e+00,1,1,0,3.100000e+00,1
51,836,5,2.800000e+00,71,1,0,0,2.500228e+00,1,1,0,1.200000e+00,1
51,837,5,1.375700e+02,21,3,0,0,2.500432e+00,3,1,0,3.200000e+00,1
51,838,5,2.073000e+01,48,1,0,0,2.500448e+00,3,1,0,1.200000e+00,1
51,839,5,8.522000e+01,25,2,0,0,2.500017e+00,1,1,0,2.300000e+00,1
51,840,5,1.196200e+02,54,3,0,0,2.500504e+00,1,1,0,3.200000e+00,1
51,841,5,6.719000e+01,53,2,0,0,2.500271e+00,2,1,0,2.100000e+00,1
51,842,5,8.522000e+01,25,2,0,0,2.500200e+00,2,1,0,2.300000e+00,1
51,843,5,8.517000e+01,70,2,0,0,2.500451e+00,2,1,0,2.100000e+00,1
51,844,5,6.409000e+01,26,2,0,0,2.500553e+00,4,1,0,2.100000e+00,1
51,845,5,2.800000e+00,71,1,0,0,2.500237e+00,2,1,0,1.200000e+00,1
51,846,5,1.720000e+00,2,1,0,0,2.500197e+00,1,1,0,1.200000e+00,1
51,847,5,3.034000e+01,67,1,0,0,2.500072e+00,3,1,0,1.300000e+00,1
51,848,5,3.923000e+01,17,1,0,0,2.500343e+00,2,1,0,1.300000e+00,1
51,849,5,7.106000e+01,66,2,0,0,2.500316e+00,2,1,0,2.100000e+00,1
51,850,5,4.129000e+01,35,1,0,0,2.500236e+00,2,1,0,1.300000e+00,1
51,851,5,1.356900e+02,20,3,0,0,2.500210e+00,2,1,0,3.200000e+00,1
51,852,5,4.333000e+01,68,1,0,0,2.500495e+00,1,1,0,1.300000e+00,1
51,853,5,6.719000e+01,53,2,0,0,2.500045e+00,3,1,0,2.100000e+00,1
51,854,5,1.720000e+00,2,1,0,0,2.500362e+00,2,1,0,1.200000e+00,1
51,855,5,3.174000e+01,40,1,0,0,2.500029e+00,2,1,0,1.200000e+00,1
51,856,5,5.608000e+01,46,2,0,0,2.500591e+00,2,1,0,2.300000e+00,1
51,857,5,4.915000e+01,29,2,0,0,2.500480e+00,3,1,0,2.100000e+00,1
51,858,5,1.216500e+02,24,3,0,0,2.500172e+00,3,1,0,3.200000e+00,1
51,859,5,9.941000e+01,61,3,0,0,2.500509e+00,1,1,0,3.100000e+00,1
51,860,5,3.923000e+01,17,1,0,0,2.500619e+00,3,1,0,1.300000e+00,1
51,861,5,1.252600e+02,52,3,0,0,2.500350e+00,2,1,0,3.100000e+00,1
51,862,5,9.941000e+01,61,3,0,0,2.500385e+00,2,1,0,3.100000e+00,1
51,863,5,1.324400e+02,31,3,0,0,2.500308e+00,3,1,0,3.100000e+00,1
51,864,5,4.129000e+01,35,1,0,0,2.500240e+00,3,1,0,1.300000e+00,1
51,865,5,7.613000e+01,55,2,0,0,2.500133e+00,4,1,0,2.100000e+00,1
51,866,5,1.720000e+00,2,1,0,0,2.500127e+00,3,1,0,1.200000e+00,1
51,867,5,9.010000e+01,41,2,0,0,2.500607e+00,3,1,0,2.300000e+00,1
51,868,5,9.311000e+01,14,2,0,0,2.500335e+00,1,1,0,2.100000e+00,1
51,869,5,1.324400e+02,31,3,0,0,2.500602e+00,4,1,0,3.100000e+00,1
51,870,5,5.812000e+01,44,2,0,0,2.500467e+00,2,1,0,2.100000e+00,1
51,871,5,8.216000e+01,43,2,0,0,2.500375e+00,3,1,0,2.300000e+00,1
51,872,5,8.310000e+01,64,2,0,0,2.500390e+00,3,1,0,2.100000e+00,1
51,873,5,5.812000e+01,44,2,0,0,2.500167e+00,3,1,0,2.100000e+00,1
51,874,5,9.213000e+01,45,2,0,0,2.500032e+00,2,1,0,2.300000e+00,1
51,875,5,8.522000e+01,25,2,0,0,2.500064e+00,3,1,0,2.300000e+00,1
51,876,5,1.196200e+02,54,3,0,0,2.500259e+00,2,1,0,3.200000e+00,1
51,877,5,1.216500e+02,24,3,0,0,2.500424e+00,4,1,0,3.200000e+00,1
51,878,5,1.152300e+02,65,3,0,0,2.500189e+00,2,1,0,3.100000e+00,1
51,879,5,3.644000e+01,58,1,0,0,2.500155e+00,4,1,0,1.300000e+00,1
51,880,5,4.695000e+01,28,1,0,0,2.500515e+00,2,1,0,1.200000e+00,1
51,881,5,4.839000e+01,56,1,0,0,2.500268e+00,2,1,0,1.300000e+00,1
51,882,5,5.410000e+00,51,1,0,0,2.500096e+00,3,1,0,1.300000e+00,1
51,883,5,9.311000e+01,14,2,0,0,2.500239e+00,2,1,0,2.100000e+00,1
51,884,5,7.106000e+01,66,2,0,0,2.500249e+00,3,1,0,2.100000e+00,1
51,885,5,3.923000e+01,17,1,0,0,2.500623e+00,4,1,0,1.300000e+00,1
51,886,5,6.618000e+01,8,2,0,0,2.500288e+00,2,1,0,2.100000e+00,1
51,887,5,1.720000e+00,2,1,0,0,2.500023e+00,4,1,0,1.200000e+00,1
51,888,5,3.174000e+01,40,1,0,0,2.500464e+00,3,1,0,1.200000e+00,1
51,889,5,1.096100e+02,3,3,0,0,2.500125e+00,3,1,0,3.200000e+00,1
51,890,5,1.152300e+02,65,3,0,0,2.500040e+00,3,1,0,3.100000e+00,1
51,891,5,9.400000e+00,60,1,0,0,2.500207e+00,2,1,0,1.300000e+00,1
51,892,5,1.196200e+02,54,3,0,0,2.500468e+00,3,1,0,3.200000e+00,1
51,893,5,4.430000e+01,38,1,0,0,2.500523e+00,3,1,0,1.300000e+00,1
51,894,5,3.034000e+01,67,1,0,0,2.500166e+00,4,1,0,1.300000e+00,1
51,895,5,9.311000e+01,14,2,0,0,2.500574e+00,3,1,0,2.100000e+00,1
51,896,5,1.243700e+02,50,3,0,0,2.500345e+00,2,1,0,3.100000e+00,1
51,897,5,6.719000e+01,53,2,0,0,2.500033e+00,4,1,0,2.100000e+00,1
51,898,5,9.213000e+01,45,2,0,0,2.500398e+00,3,1,0,2.300000e+00,1
51,899,5,5.608000e+01,46,2,0,0,2.500313e+00,3,1,0,2.300000e+00,1
51,900,5,9.850000e+01,13,3,0,0,2.500252e+00,3,1,0,3.200000e+00,1
51,901,5,3.174000e+01,40,1,0,0,2.500360e+00,4,1,0,1.200000e+00,1
51,902,5,8.517000e+01,70,2,0,0,2.500387e+00,3,1,0,2.100000e+00,1
51,903,5,7.106000e+01,66,2,0,0,2.500519e+00,4,1,0,2.100000e+00,1
51,904,5,1.252600e+02,52,3,0,0,2.500594e+00,3,1,0,3.100000e+00,1
51,905,5,6.618000e+01,8,2,0,0,2.500113e+00,3,1,0,2.100000e+00,1
51,906,5,1.375700e+02,21,3,0,0,2.500213e+00,4,1,0,3.200000e+00,1
51,907,5,4.915000e+01,29,2,0,0,2.500481e+00,4,1,0,2.100000e+00,1
51,908,5,4.430000e+01,38,1,0,0,2.500425e+00,4,1,0,1.300000e+00,1
51,909,5,3.387000e+01,62,1,0,0,2.500609e+00,3,1,0,1.200000e+00,1
51,910,5,1.126300e+02,42,3,0,0,2.500264e+00,3,1,0,3.200000e+00,1
51,911,5,8.517000e+01,70,2,0,0,2.500039e+00,4,1,0,2.100000e+00,1
51,912,5,9.941000e+01,61,3,0,0,2.500268e+00,3,1,0,3.100000e+00,1
51,913,5,1.126300e+02,42,3,0,0,2.500384e+00,4,1,0,3.200000e+00,1
51,914,5,4.333000e+01,68,1,0,0,2.500560e+00,2,1,0,1.300000e+00,1
51,915,5,7.802000e+01,27,2,0,0,2.500217e+00,4,1,0,2.300000e+00,1
51,916,5,6.618000e+01,8,2,0,0,2.500029e+00,4,1,0,2.100000e+00,1
51,917,5,1.243700e+02,50,3,0,0,2.500513e+00,3,1,0,3.100000e+00,1
51,918,5,3.296000e+01,7,1,0,0,2.500464e+00,1,1,0,1.200000e+00,1
51,919,5,5.812000e+01,44,2,0,0,2.500583e+00,4,1,0,2.100000e+00,1
51,920,5,3.296000e+01,7,1,0,0,2.500340e+00,2,1,0,1.200000e+00,1
51,921,5,1.033000e+02,39,3,0,0,2.500354e+00,2,1,0,3.100000e+00,1
51,922,5,1.262200e+02,6,3,0,0,2.500170e+00,4,1,0,3.100000e+00,1
51,923,5,9.850000e+01,13,3,0,0,2.500416e+00,4,1,0,3.200000e+00,1
51,924,5,1.152300e+02,65,3,0,0,2.500189e+00,4,1,0,3.100000e+00,1
51,925,5,1.356900e+02,20,3,0,0,2.500029e+00,3,1,0,3.200000e+00,1
51,926,5,8.216000e+01,43,2,0,0,2.500032e+00,4,1,0,2.300000e+00,1
51,927,5,4.695000e+01,28,1,0,0,2.500019e+00,3,1,0,1.200000e+00,1
51,928,5,3.296000e+01,7,1,0,0,2.500446e+00,3,1,0,1.200000e+00,1
51,929,5,3.860000e+00,59,1,0,0,2.500483e+00,4,1,0,1.200000e+00,1
51,930,5,5.410000e+00,51,1,0,0,2.500259e+00,4,1,0,1.300000e+00,1
51,931,5,1.033000e+02,39,3,0,0,2.500236e+00,3,1,0,3.100000e+00,1
51,932,5,1.356900e+02,20,3,0,0,2.500182e+00,4,1,0,3.200000e+00,1
51,933,5,1.096100e+02,3,3,0,0,2.500429e+00,4,1,0,3.200000e+00,1
51,934,5,4.129000e+01,35,1,0,0,2.500489e+00,4,1,0,1.300000e+00,1
51,935,5,1.033000e+02,39,3,0,0,2.500156e+00,4,1,0,3.100000e+00,1
51,936,5,2.800000e+00,71,1,0,0,2.500278e+00,3,1,0,1.200000e+00,1
51,937,5,4.839000e+01,56,1,0,0,2.500317e+00,3,1,0,1.300000e+00,1
51,938,5,1.383600e+02,11,3,0,0,2.500454e+00,3,1,0,3.100000e+00,1
51,939,5,5.608000e+01,46,2,0,0,2.500144e+00,4,1,0,2.300000e+00,1
51,940,5,4.695000e+01,28,1,0,0,2.500037e+00,4,1,0,1.200000e+00,1
51,941,5,9.400000e+00,60,1,0,0,2.500081e+00,3,1,0,1.300000e+00,1
51,942,5,1.365900e+02,12,3,0,0,2.500056e+00,4,1,0,3.200000e+00,1
51,943,5,8.522000e+01,25,2,0,0,2.500421e+00,4,1,0,2.300000e+00,1
51,944,5,9.311000e+01,14,2,0,0,2.500171e+00,4,1,0,2.100000e+00,1
51,945,5,4.027000e+01,10,1,0,0,2.500055e+00,4,1,0,1.300000e+00,1
51,946,5,4.839000e+01,56,1,0,0,2.500544e+00,4,1,0,1.300000e+00,1
51,947,5,2.478000e+01,49,1,0,0,2.500193e+00,2,1,0,1.200000e+00,1
51,948,5,1.383600e+02,11,3,0,0,2.500156e+00,4,1,0,3.100000e+00,1
51,949,5,1.243700e+02,50,3,0,0,2.500470e+00,4,1,0,3.100000e+00,1
51,950,5,4.333000e+01,68,1,0,0,2.500077e+00,3,1,0,1.300000e+00,1
51,951,5,1.252600e+02,52,3,0,0,2.500436e+00,4,1,0,3.100000e+00,1
51,952,5,2.800000e+00,71,1,0,0,2.500089e+00,4,1,0,1.200000e+00,1
51,953,5,1.196200e+02,54,3,0,0,2.500481e+00,4,1,0,3.200000e+00,1
51,954,5,2.478000e+01,49,1,0,0,2.500454e+00,3,1,0,1.200000e+00,1
51,955,5,2.478000e+01,49,1,0,0,2.500202e+00,4,1,0,1.200000e+00,1
51,956,5,9.941000e+01,61,3,0,0,2.500369e+00,4,1,0,3.100000e+00,1
51,957,5,4.333000e+01,68,1,0,0,2.500595e+00,4,1,0,1.300000e+00,1
51,958,5,8.310000e+01,64,2,2,1,1.444853e+00,4,1,0,2.100000e+00,1
51,959,5,2.073000e+01,48,1,2,0,1.422497e+00,4,1,0,1.200000e+00,1
51,960,5,9.213000e+01,45,2,1,0,2.960471e-01,4,1,0,2.300000e+00,1
51,961,5,9.010000e+01,41,2,3,0,2.465198e+00,4,1,0,2.300000e+00,1
51,962,5,3.387000e+01,62,1,3,0,1.445842e-04,4,1,0,1.200000e+00,1
51,963,5,3.296000e+01,7,1,2,0,3.010508e-01,4,1,0,1.200000e+00,1
51,964,5,2.194000e+01,33,1,2,0,2.552068e-01,4,1,0,1.200000e+00,1
51,965,5,9.400000e+00,60,1,3,0,2.884122e-01,4,1,0,1.300000e+00,1
51,966,6,118,15,2,1,0,2.606610e+00,NaN,2,0,3,1
51,967,6,15,29,1,2,0,1.805525e+00,NaN,2,0,1,1
51,968,6,12,44,1,1,1,9.955752e-01,NaN,2,0,1,1
51,969,6,108,46,1,1,1,1.018299e+00,NaN,2,0,3,1
51,970,6,70,32,1,2,0,1.096086e+00,NaN,2,1,2,1
51,971,6,6,66,2,2,1,1.474164e+00,NaN,2,0,1,1
51,972,6,78,49,2,2,1,1.197334e+00,NaN,2,0,2,1
51,973,6,74,40,2,2,1,7.479554e-01,NaN,2,0,2,1
51,974,6,139,56,2,1,0,7.728148e-01,NaN,2,0,3,1
51,975,6,141,51,2,2,1,9.163268e-01,NaN,2,0,3,1
51,976,6,62,54,1,1,1,6.860800e-01,NaN,2,0,2,1
51,977,6,106,16,1,1,1,8.576377e-01,NaN,2,1,3,1
51,978,6,59,12,2,2,1,6.294724e-01,NaN,2,0,2,1
51,979,6,110,41,1,1,1,8.111184e-01,NaN,2,0,3,1
51,980,6,14,34,1,2,0,1.041709e+00,NaN,2,1,1,1
51,981,6,27,22,2,1,0,7.587527e-01,NaN,2,1,1,1
51,982,6,5,4,2,2,1,6.787626e-01,NaN,2,1,1,1
51,983,6,144,58,2,2,1,7.464193e-01,NaN,2,0,3,1
51,984,6,11,14,2,1,0,7.867752e-01,NaN,2,0,1,1
51,985,6,19,53,1,1,1,9.620052e-01,NaN,2,0,1,1
51,986,6,28,36,1,1,1,7.140421e-01,NaN,2,1,1,1
51,987,6,63,42,2,2,1,1.259830e+00,NaN,2,0,2,1
51,988,6,133,68,2,2,1,1.720050e+00,NaN,2,0,3,1
51,989,6,94,33,2,2,1,9.141559e-01,NaN,2,0,2,1
51,990,6,48,19,2,2,1,1.051668e+00,NaN,2,1,1,1
51,991,6,127,10,1,2,0,1.104285e+00,NaN,2,0,3,1
51,992,6,18,8,2,2,1,1.634575e+00,NaN,2,0,1,1
51,993,6,113,45,2,2,1,1.743688e+00,NaN,2,0,3,1
51,994,6,117,69,2,2,1,1.328152e+00,NaN,2,1,3,1
51,995,6,65,24,2,2,1,9.700270e-01,NaN,2,0,2,1
51,996,6,122,25,1,1,1,9.620257e-01,NaN,2,0,3,1
51,997,6,128,30,2,2,1,1.345282e+00,NaN,2,1,3,1
51,998,6,26,52,1,1,1,1.058788e+00,NaN,2,0,1,1
51,999,6,79,5,2,2,1,8.064142e-01,NaN,2,1,2,1
51,1000,6,50,13,2,1,0,1.548601e+00,NaN,2,0,2,1
51,1001,6,53,47,2,2,1,1.348856e+00,NaN,2,1,2,1
51,1002,6,143,9,1,1,1,2.869400e+00,NaN,2,1,3,1
51,1003,6,87,62,1,1,1,9.691363e-01,NaN,2,0,2,1
51,1004,6,140,60,1,1,1,1.256940e+00,NaN,2,0,3,1
51,1005,6,102,27,1,2,0,1.189314e+00,NaN,2,0,3,1
51,1006,6,57,21,1,1,1,1.676156e+00,NaN,2,0,2,1
51,1007,6,44,31,1,1,1,9.750766e-01,NaN,2,0,1,1
51,1008,6,116,43,2,2,1,1.854511e+00,NaN,2,0,3,1
51,1009,6,60,63,2,2,1,7.387029e-01,NaN,2,1,2,1
51,1010,6,134,67,2,2,1,9.874888e-01,NaN,2,0,3,1
51,1011,6,23,65,2,1,0,1.138003e+00,NaN,2,0,1,1
51,1012,6,73,48,1,1,1,9.950422e-01,NaN,2,0,2,1
51,1013,6,17,70,1,2,0,9.135604e-01,NaN,2,0,1,1
51,1014,6,95,28,2,2,1,7.473746e-01,NaN,2,0,2,1
51,1015,6,100,37,2,2,1,1.027946e+00,NaN,2,1,3,1
51,1016,6,111,18,1,2,0,9.051999e-01,NaN,2,0,3,1
51,1017,6,52,1,1,1,1,9.395273e-01,NaN,2,1,2,1
51,1018,6,36,11,1,1,1,8.681613e-01,NaN,2,0,1,1
51,1019,6,13,55,2,2,1,7.042309e-01,NaN,2,0,1,1
51,1020,6,129,35,2,2,1,9.140201e-01,NaN,2,0,3,1
51,1021,6,80,71,2,2,1,7.559096e-01,NaN,2,0,2,1
51,1022,6,34,72,1,1,1,1.260281e+00,NaN,2,1,1,1
51,1023,6,30,39,2,2,1,9.522893e-01,NaN,2,0,1,1
51,1024,6,123,17,2,2,1,1.624334e+00,NaN,2,0,3,1
51,1025,6,107,57,2,1,0,1.110781e+00,NaN,2,1,3,1
51,1026,6,9,26,1,2,0,1.455782e+00,NaN,2,0,1,1
51,1027,6,61,3,2,2,1,1.283936e+00,NaN,2,0,2,1
51,1028,6,130,38,2,2,1,1.487915e+00,NaN,2,0,3,1
51,1029,6,82,23,1,1,1,8.015246e-01,NaN,2,1,2,1
51,1030,6,86,59,2,2,1,8.479590e-01,NaN,2,0,2,1
51,1031,6,72,2,1,2,0,1.700697e+00,NaN,2,0,2,1
51,1032,6,41,61,2,2,1,1.198627e+00,NaN,2,0,1,1
51,1033,6,69,20,2,2,1,8.210458e-01,NaN,2,0,2,1
51,1034,6,22,6,2,2,1,1.234776e+00,NaN,2,0,1,1
51,1035,6,37,50,2,2,1,1.383876e+00,NaN,2,0,1,1
51,1036,6,96,7,2,2,1,7.836716e-01,NaN,2,0,2,1
51,1037,6,10,64,2,2,1,1.070040e+00,NaN,2,0,1,1
51,1038,6,136,12,1,1,1,7.775366e-01,NaN,1,0,3,1
51,1039,6,99,61,1,2,0,1.233160e+00,NaN,1,0,3,1
51,1040,6,85,70,1,1,1,7.022097e-01,NaN,1,0,2,1
51,1041,6,115,65,1,2,0,1.208384e+00,NaN,1,0,3,1
51,1042,6,58,44,1,1,1,1.118554e+00,NaN,1,0,2,1
51,1043,6,55,46,2,2,1,6.722394e-01,NaN,1,0,2,1
51,1044,6,47,56,2,2,1,1.475994e+00,NaN,1,0,1,1
51,1045,6,46,28,1,1,1,6.871075e-01,NaN,1,0,1,1
51,1046,6,68,34,1,1,1,6.100363e-01,NaN,1,1,2,1
51,1047,6,38,17,2,2,1,1.536380e+00,NaN,1,0,1,1
51,1048,6,43,38,1,1,1,1.017118e+00,NaN,1,0,1,1
51,1049,6,76,55,1,1,1,9.750159e-01,NaN,1,0,2,1
51,1050,6,42,68,2,2,1,9.103379e-01,NaN,1,0,1,1
51,1051,6,89,41,1,1,1,8.644631e-01,NaN,1,0,2,1
51,1052,6,126,6,1,1,1,1.236403e+00,NaN,1,0,3,1
51,1053,6,121,24,1,1,1,1.408958e+00,NaN,1,0,3,1
51,1054,6,4,51,1,1,1,7.988463e-01,NaN,1,0,1,1
51,1055,6,51,69,2,2,1,8.295890e-01,NaN,1,1,2,1
51,1056,6,40,35,1,1,1,1.634582e+00,NaN,1,0,1,1
51,1057,6,81,43,2,2,1,6.714788e-01,NaN,1,0,2,1
51,1058,6,3,59,1,1,1,8.672862e-01,NaN,1,0,1,1
51,1059,6,137,21,2,2,1,1.950638e+00,NaN,1,0,3,1
51,1060,6,131,47,2,2,1,1.567130e+00,NaN,1,1,3,1
51,1061,6,84,25,1,1,1,1.287103e+00,NaN,1,0,2,1
51,1062,6,39,10,1,1,1,1.706231e+00,NaN,1,0,1,1
51,1063,6,109,3,2,2,1,1.307894e+00,NaN,1,0,3,1
51,1064,6,93,14,1,1,1,9.739145e-01,NaN,1,0,2,1
51,1065,6,29,67,2,2,1,1.189719e+00,NaN,1,0,1,1
51,1066,6,114,32,2,2,1,7.720665e-01,NaN,1,1,3,1
51,1067,6,20,48,1,1,1,8.276294e-01,NaN,1,0,1,1
51,1068,6,98,13,1,2,0,8.573932e-01,NaN,1,0,3,1
51,1069,6,104,19,1,1,1,9.414042e-01,NaN,1,1,3,1
51,1070,6,64,26,1,1,1,7.259783e-01,NaN,1,0,2,1
51,1071,6,119,54,2,2,1,7.834126e-01,NaN,1,0,3,1
51,1072,6,71,66,1,1,1,6.468470e-01,NaN,1,0,2,1
51,1073,6,21,33,2,2,1,6.989730e-01,NaN,1,0,1,1
51,1074,6,7,30,1,2,0,1.389422e+00,NaN,1,1,1,1
51,1075,6,83,64,1,1,1,9.880668e-01,NaN,1,0,2,1
51,1076,6,97,63,1,1,1,1.011457e+00,NaN,1,1,3,1
51,1077,6,25,9,1,1,1,8.499926e-01,NaN,1,1,1,1
51,1078,6,45,23,1,1,1,1.325989e+00,NaN,1,1,1,1
51,1079,6,77,27,1,1,1,7.515009e-01,NaN,1,0,2,1
51,1080,6,135,20,1,1,1,6.241134e-01,NaN,1,0,3,1
51,1081,6,66,8,1,1,1,6.378420e-01,NaN,1,0,2,1
51,1082,6,32,7,2,1,0,9.065651e-01,NaN,1,0,1,1
51,1083,6,124,50,2,2,1,1.076937e+00,NaN,1,0,3,1
51,1084,6,24,49,2,2,1,9.607655e-01,NaN,1,0,1,1
51,1085,6,1,2,2,2,1,1.952452e+00,NaN,1,0,1,1
51,1086,6,138,11,1,1,1,1.073197e+00,NaN,1,0,3,1
51,1087,6,91,45,1,1,1,1.060966e+00,NaN,1,0,2,1
51,1088,6,49,29,2,2,1,6.489723e-01,NaN,1,0,2,1
51,1089,6,103,39,1,1,1,8.052315e-01,NaN,1,0,3,1
51,1090,6,90,18,2,2,1,7.152760e-01,NaN,1,0,2,1
51,1091,6,2,71,2,2,1,9.652352e-01,NaN,1,0,1,1
51,1092,6,67,53,1,1,1,1.237097e+00,NaN,1,0,2,1
51,1093,6,132,31,1,1,1,2.346168e+00,NaN,1,0,3,1
51,1094,6,56,4,2,2,1,1.682768e+00,NaN,1,1,2,1
51,1095,6,120,22,1,1,1,1.470089e+00,NaN,1,1,3,1
51,1096,6,75,37,1,1,1,1.201649e+00,NaN,1,1,2,1
51,1097,6,88,16,2,2,1,9.998865e-01,NaN,1,1,2,1
51,1098,6,112,42,1,1,1,1.254618e+00,NaN,1,0,3,1
51,1099,6,105,1,1,1,1,1.010837e+00,NaN,1,1,3,1
51,1100,6,54,57,2,2,1,5.291808e-01,NaN,1,1,2,1
51,1101,6,101,36,2,2,1,7.228309e-01,NaN,1,1,3,1
51,1102,6,125,52,2,2,1,7.237983e-01,NaN,1,0,3,1
51,1103,6,8,60,2,2,1,6.774200e-01,NaN,1,0,1,1
51,1104,6,142,72,2,2,1,1.881272e+00,NaN,1,1,3,1
51,1105,6,35,58,2,2,1,8.279641e-01,NaN,1,0,1,1
51,1106,6,33,62,1,1,1,9.535085e-01,NaN,1,0,1,1
51,1107,6,31,40,2,2,1,9.941868e-01,NaN,1,0,1,1
51,1108,6,16,5,1,1,1,1.424438e+00,NaN,1,1,1,1
51,1109,6,92,15,2,2,1,6.298977e-01,NaN,1,0,2,1
