Subject,Trial,Cond,ImageNum,CueNum,Correct,Resp,Accuracy,RT,CueRep,ImageType,Baseline,Category,Block
44,1,1,88,NaN,NaN,1,NaN,1.944637e+00,NaN,0,1,2,1
44,2,1,104,NaN,NaN,2,NaN,4.843583e+00,NaN,0,0,3,1
44,3,1,10,NaN,NaN,2,NaN,1.763128e+00,NaN,0,1,1,1
44,4,1,125,NaN,NaN,1,NaN,1.246219e+00,NaN,0,0,3,1
44,5,1,119,NaN,NaN,1,NaN,1.288920e-04,NaN,0,0,3,1
44,6,1,100,NaN,NaN,2,NaN,1.070564e+00,NaN,0,1,3,1
44,7,1,43,NaN,NaN,1,NaN,1.862224e+00,NaN,1,0,1,1
44,8,1,31,NaN,NaN,1,NaN,1.012002e+00,NaN,2,0,1,1
44,9,1,40,NaN,NaN,2,NaN,8.370229e-01,NaN,0,1,1,1
44,10,1,52,NaN,NaN,1,NaN,9.252819e-01,NaN,1,1,2,1
44,11,1,19,NaN,NaN,2,NaN,1.297976e-04,NaN,0,0,1,1
44,12,1,9,NaN,NaN,1,NaN,1.003088e+00,NaN,1,0,1,1
44,13,1,73,NaN,NaN,1,NaN,6.203759e-01,NaN,1,1,2,1
44,14,1,58,NaN,NaN,1,NaN,8.610481e-01,NaN,2,0,2,1
44,15,1,30,NaN,NaN,1,NaN,1.140334e+00,NaN,2,0,1,1
44,16,1,45,NaN,NaN,2,NaN,4.004641e-01,NaN,0,0,1,1
44,17,1,125,NaN,NaN,1,NaN,5.057487e-01,NaN,2,0,3,1
44,18,1,55,NaN,NaN,1,NaN,7.350557e-01,NaN,0,1,2,1
44,19,1,66,NaN,NaN,1,NaN,5.235228e-01,NaN,0,1,2,1
44,20,1,81,NaN,NaN,2,NaN,7.841361e-01,NaN,1,0,2,1
44,21,1,35,NaN,NaN,2,NaN,2.178471e-01,NaN,1,0,1,1
44,22,1,46,NaN,NaN,2,NaN,5.710184e-01,NaN,2,0,1,1
44,23,1,105,NaN,NaN,2,NaN,1.254524e-01,NaN,2,1,3,1
44,24,1,20,NaN,NaN,1,NaN,1.349291e-04,NaN,0,0,1,1
44,25,1,31,NaN,NaN,1,NaN,1.687368e-04,NaN,0,0,1,1
44,26,1,5,NaN,NaN,1,NaN,3.162219e-01,NaN,0,1,1,1
44,27,1,122,NaN,NaN,2,NaN,5.128589e-01,NaN,1,0,3,1
44,28,1,87,NaN,NaN,1,NaN,5.334414e-01,NaN,2,0,2,1
44,29,1,45,NaN,NaN,2,NaN,7.535787e-01,NaN,2,0,1,1
44,30,1,70,NaN,NaN,1,NaN,9.248053e-01,NaN,1,0,2,1
44,31,1,11,NaN,NaN,1,NaN,1.243642e-04,NaN,1,0,1,1
44,32,1,86,NaN,NaN,1,NaN,3.347014e+00,NaN,1,0,2,1
44,33,1,12,NaN,NaN,2,NaN,7.024213e-01,NaN,0,0,1,1
44,34,1,117,NaN,NaN,2,NaN,1.726609e-04,NaN,0,0,3,1
44,35,1,33,NaN,NaN,2,NaN,8.052916e-01,NaN,0,1,1,1
44,36,1,141,NaN,NaN,1,NaN,1.190482e+00,NaN,0,0,3,1
44,37,1,135,NaN,NaN,1,NaN,1.608636e-01,NaN,0,0,3,1
44,38,1,39,NaN,NaN,2,NaN,4.408710e-02,NaN,2,1,1,1
44,39,1,130,NaN,NaN,2,NaN,4.416015e-02,NaN,2,0,3,1
44,40,1,57,NaN,NaN,1,NaN,1.273827e-04,NaN,0,0,2,1
44,41,1,27,NaN,NaN,1,NaN,5.336008e-01,NaN,0,0,1,1
44,42,1,69,NaN,NaN,1,NaN,5.052971e-01,NaN,0,1,2,1
44,43,1,82,NaN,NaN,1,NaN,5.989726e-01,NaN,1,1,2,1
44,44,1,119,NaN,NaN,1,NaN,3.211222e-01,NaN,1,0,3,1
44,45,1,84,NaN,NaN,1,NaN,4.129531e-01,NaN,0,0,2,1
44,46,1,48,NaN,NaN,1,NaN,4.215267e-01,NaN,0,0,1,1
44,47,1,65,NaN,NaN,1,NaN,9.426600e-01,NaN,1,0,2,1
44,48,1,4,NaN,NaN,1,NaN,5.303631e-01,NaN,0,0,1,1
44,49,1,91,NaN,NaN,2,NaN,7.056218e-02,NaN,2,0,2,1
44,50,1,55,NaN,NaN,1,NaN,5.333373e-01,NaN,2,1,2,1
44,51,1,76,NaN,NaN,1,NaN,6.331773e-01,NaN,0,0,2,1
44,52,1,13,NaN,NaN,2,NaN,1.586181e+00,NaN,0,0,1,1
44,53,1,77,NaN,NaN,2,NaN,1.819321e+00,NaN,1,0,2,1
44,54,1,109,NaN,NaN,1,NaN,8.997878e-01,NaN,0,0,3,1
44,55,1,90,NaN,NaN,1,NaN,6.573112e-01,NaN,1,0,2,1
44,56,1,8,NaN,NaN,1,NaN,4.280849e+00,NaN,0,0,1,1
44,57,1,1,NaN,NaN,1,NaN,9.906150e-01,NaN,0,0,1,1
44,58,1,14,NaN,NaN,1,NaN,6.168641e-01,NaN,0,0,1,1
44,59,1,95,NaN,NaN,1,NaN,6.015749e-01,NaN,0,1,2,1
44,60,1,35,NaN,NaN,2,NaN,6.991537e-01,NaN,0,0,1,1
44,61,1,38,NaN,NaN,1,NaN,6.884276e-01,NaN,1,1,1,1
44,62,1,64,NaN,NaN,1,NaN,1.206668e+00,NaN,0,0,2,1
44,63,1,72,NaN,NaN,1,NaN,1.775718e+00,NaN,2,0,2,1
44,64,1,126,NaN,NaN,2,NaN,2.184837e-01,NaN,0,1,3,1
44,65,1,56,NaN,NaN,1,NaN,5.950422e-01,NaN,0,0,2,1
44,66,1,132,NaN,NaN,2,NaN,6.446269e-01,NaN,1,0,3,1
44,67,1,57,NaN,NaN,1,NaN,6.276763e-01,NaN,2,0,2,1
44,68,1,51,NaN,NaN,1,NaN,1.060430e+00,NaN,0,0,2,1
44,69,1,51,NaN,NaN,1,NaN,8.523746e-01,NaN,2,0,2,1
44,70,1,60,NaN,NaN,1,NaN,6.278366e-01,NaN,2,1,2,1
44,71,1,110,NaN,NaN,2,NaN,4.841854e-01,NaN,0,0,3,1
44,72,1,15,NaN,NaN,2,NaN,6.579514e-01,NaN,2,0,1,1
44,73,1,112,NaN,NaN,1,NaN,1.185259e+00,NaN,0,0,3,1
44,74,1,50,NaN,NaN,1,NaN,9.071627e-01,NaN,2,1,2,1
44,75,1,75,NaN,NaN,1,NaN,2.400751e+00,NaN,0,0,2,1
44,76,1,101,NaN,NaN,2,NaN,8.500301e-01,NaN,2,0,3,1
44,77,1,138,NaN,NaN,1,NaN,8.496558e-01,NaN,2,1,3,1
44,78,1,130,NaN,NaN,2,NaN,9.371155e-01,NaN,0,0,3,1
44,79,1,116,NaN,NaN,1,NaN,1.533094e+00,NaN,0,0,3,1
44,80,1,3,NaN,NaN,2,NaN,7.930468e-01,NaN,0,0,1,1
44,81,1,4,NaN,NaN,1,NaN,1.283137e+00,NaN,2,0,1,1
44,82,1,3,NaN,NaN,2,NaN,7.933448e-01,NaN,1,0,1,1
44,83,1,18,NaN,NaN,2,NaN,8.272911e-01,NaN,2,0,1,1
44,84,1,116,NaN,NaN,1,NaN,1.123802e+00,NaN,2,0,3,1
44,85,1,61,NaN,NaN,1,NaN,7.136568e+00,NaN,2,0,2,1
44,86,1,107,NaN,NaN,1,NaN,9.268935e-02,NaN,0,0,3,1
44,87,1,85,NaN,NaN,1,NaN,5.630766e-01,NaN,2,0,2,1
44,88,1,74,NaN,NaN,1,NaN,9.812883e-01,NaN,1,0,2,1
44,89,1,135,NaN,NaN,1,NaN,6.794679e-01,NaN,1,0,3,1
44,90,1,43,NaN,NaN,1,NaN,3.175081e-01,NaN,0,0,1,1
44,91,1,70,NaN,NaN,1,NaN,8.985593e-01,NaN,0,0,2,1
44,92,1,137,NaN,NaN,1,NaN,1.455659e+00,NaN,1,0,3,1
44,93,1,71,NaN,NaN,1,NaN,1.191032e+00,NaN,2,1,2,1
44,94,1,103,NaN,NaN,1,NaN,1.097246e+00,NaN,2,0,3,1
44,95,1,106,NaN,NaN,2,NaN,5.186847e-01,NaN,0,0,3,1
44,96,1,42,NaN,NaN,1,NaN,4.833791e-01,NaN,0,0,1,1
44,97,1,54,NaN,NaN,1,NaN,4.011611e-01,NaN,1,0,2,1
44,98,1,102,NaN,NaN,2,NaN,6.106797e-01,NaN,0,0,3,1
44,99,1,16,NaN,NaN,1,NaN,4.441495e-01,NaN,0,1,1,1
44,100,1,71,NaN,NaN,1,NaN,7.481882e-01,NaN,0,1,2,1
44,101,1,44,NaN,NaN,2,NaN,1.911266e+00,NaN,1,0,1,1
44,102,1,97,NaN,NaN,2,NaN,1.652285e+00,NaN,2,0,3,1
44,103,1,6,NaN,NaN,1,NaN,3.043348e+00,NaN,2,0,1,1
44,104,1,73,NaN,NaN,1,NaN,1.235511e+00,NaN,0,1,2,1
44,105,1,115,NaN,NaN,2,NaN,8.040908e-01,NaN,0,0,3,1
44,106,1,120,NaN,NaN,2,NaN,7.409364e-01,NaN,0,1,3,1
44,107,1,83,NaN,NaN,1,NaN,1.442866e-04,NaN,0,1,2,1
44,108,1,114,NaN,NaN,1,NaN,6.264061e-01,NaN,0,0,3,1
44,109,1,63,NaN,NaN,1,NaN,3.869066e-01,NaN,0,0,2,1
44,110,1,93,NaN,NaN,1,NaN,8.770627e-01,NaN,1,0,2,1
44,111,1,97,NaN,NaN,2,NaN,1.285901e-04,NaN,0,0,3,1
44,112,1,23,NaN,NaN,1,NaN,3.413280e+00,NaN,1,0,1,1
44,113,1,9,NaN,NaN,1,NaN,1.518090e+00,NaN,0,0,1,1
44,114,1,141,NaN,NaN,1,NaN,6.664049e-02,NaN,1,0,3,1
44,115,1,94,NaN,NaN,1,NaN,8.415344e-01,NaN,0,0,2,1
44,116,1,5,NaN,NaN,1,NaN,5.938882e-01,NaN,1,1,1,1
44,117,1,88,NaN,NaN,1,NaN,7.715521e-01,NaN,2,1,2,1
44,118,1,123,NaN,NaN,2,NaN,1.291939e-04,NaN,1,0,3,1
44,119,1,19,NaN,NaN,1,NaN,6.234802e-01,NaN,2,0,1,1
44,120,1,124,NaN,NaN,1,NaN,3.043985e-01,NaN,0,1,3,1
44,121,1,78,NaN,NaN,1,NaN,5.495261e-01,NaN,0,0,2,1
44,122,1,90,NaN,NaN,1,NaN,6.092831e-01,NaN,0,0,2,1
44,123,1,42,NaN,NaN,1,NaN,3.542755e-01,NaN,2,0,1,1
44,124,1,14,NaN,NaN,1,NaN,4.298594e-01,NaN,2,0,1,1
44,125,1,21,NaN,NaN,1,NaN,7.002126e-02,NaN,0,0,1,1
44,126,1,80,NaN,NaN,1,NaN,3.806794e-01,NaN,0,0,2,1
44,127,1,110,NaN,NaN,2,NaN,1.349291e-04,NaN,1,0,3,1
44,128,1,30,NaN,NaN,1,NaN,5.358098e-01,NaN,0,0,1,1
44,129,1,79,NaN,NaN,1,NaN,4.759918e-01,NaN,0,0,2,1
44,130,1,137,NaN,NaN,1,NaN,3.225883e-01,NaN,0,0,3,1
44,131,1,92,NaN,NaN,1,NaN,8.872913e-01,NaN,2,1,2,1
44,132,1,96,NaN,NaN,1,NaN,6.296018e-01,NaN,2,1,2,1
44,133,1,87,NaN,NaN,1,NaN,4.694537e-01,NaN,0,0,2,1
44,134,1,50,NaN,NaN,1,NaN,1.507876e+00,NaN,0,1,2,1
44,135,1,11,NaN,NaN,1,NaN,8.896361e-01,NaN,0,0,1,1
44,136,1,22,NaN,NaN,2,NaN,5.998649e-01,NaN,0,0,1,1
44,137,1,118,NaN,NaN,1,NaN,1.307031e-04,NaN,2,0,3,1
44,138,1,109,NaN,NaN,1,NaN,5.944656e-01,NaN,2,0,3,1
44,139,1,102,NaN,NaN,2,NaN,6.116689e-01,NaN,1,0,3,1
44,140,1,91,NaN,NaN,2,NaN,2.396397e+00,NaN,0,0,2,1
44,141,1,108,NaN,NaN,2,NaN,3.020166e-01,NaN,0,0,3,1
44,142,1,142,NaN,NaN,1,NaN,3.715353e+00,NaN,2,0,3,1
44,143,1,123,NaN,NaN,1,NaN,9.678896e-01,NaN,0,0,3,1
44,144,1,103,NaN,NaN,1,NaN,2.306416e+00,NaN,0,0,3,1
44,145,1,127,NaN,NaN,1,NaN,2.343771e+00,NaN,0,1,3,1
44,146,1,138,NaN,NaN,1,NaN,4.519760e-01,NaN,0,1,3,1
44,147,1,82,NaN,NaN,1,NaN,3.876323e-01,NaN,0,1,2,1
44,148,1,53,NaN,NaN,1,NaN,3.097157e-01,NaN,0,0,2,1
44,149,1,37,NaN,NaN,2,NaN,1.627598e-01,NaN,0,0,1,1
44,150,1,1,NaN,NaN,1,NaN,3.336854e-01,NaN,1,0,1,1
44,151,1,89,NaN,NaN,1,NaN,6.496235e-01,NaN,0,0,2,1
44,152,1,108,NaN,NaN,2,NaN,1.968816e+00,NaN,2,0,3,1
44,153,1,59,NaN,NaN,1,NaN,1.304013e-04,NaN,0,0,2,1
44,154,1,136,NaN,NaN,2,NaN,5.574546e-01,NaN,2,0,3,1
44,155,1,124,NaN,NaN,2,NaN,1.496688e+00,NaN,1,1,3,1
44,156,1,62,NaN,NaN,1,NaN,4.861843e-01,NaN,0,0,2,1
44,157,1,25,NaN,NaN,1,NaN,6.201583e-01,NaN,0,0,1,1
44,158,1,20,NaN,NaN,1,NaN,4.448401e-01,NaN,1,0,1,1
44,159,1,143,NaN,NaN,1,NaN,1.346272e-04,NaN,2,0,3,1
44,160,1,37,NaN,NaN,2,NaN,6.935655e-01,NaN,1,0,1,1
44,161,1,129,NaN,NaN,2,NaN,5.234075e-01,NaN,1,1,3,1
44,162,1,58,NaN,NaN,1,NaN,4.159381e-01,NaN,0,0,2,1
44,163,1,113,NaN,NaN,2,NaN,4.488270e-01,NaN,2,0,3,1
44,164,1,117,NaN,NaN,2,NaN,7.760319e-01,NaN,1,0,3,1
44,165,1,33,NaN,NaN,2,NaN,1.378654e+00,NaN,2,1,1,1
44,166,1,34,NaN,NaN,2,NaN,4.850324e-01,NaN,0,0,1,1
44,167,1,80,NaN,NaN,1,NaN,1.352310e-04,NaN,1,0,2,1
44,168,1,27,NaN,NaN,1,NaN,1.804210e-01,NaN,1,0,1,1
44,169,1,29,NaN,NaN,1,NaN,3.421880e-01,NaN,1,0,1,1
44,170,1,10,NaN,NaN,2,NaN,1.063591e-01,NaN,1,1,1,1
44,171,1,139,NaN,NaN,2,NaN,1.307031e-04,NaN,2,0,3,1
44,172,1,79,NaN,NaN,1,NaN,4.010823e-01,NaN,1,0,2,1
44,173,1,7,NaN,NaN,1,NaN,5.864444e-01,NaN,0,0,1,1
44,174,1,128,NaN,NaN,2,NaN,2.244603e+00,NaN,1,0,3,1
44,175,1,52,NaN,NaN,1,NaN,7.240217e-01,NaN,0,1,2,1
44,176,1,121,NaN,NaN,2,NaN,4.567857e-01,NaN,2,0,3,1
44,177,1,60,NaN,NaN,1,NaN,4.399501e-01,NaN,0,1,2,1
44,178,1,7,NaN,NaN,1,NaN,1.864387e+00,NaN,2,0,1,1
44,179,1,39,NaN,NaN,2,NaN,8.869161e-01,NaN,0,1,1,1
44,180,1,24,NaN,NaN,2,NaN,1.316087e-04,NaN,0,0,1,1
44,181,1,59,NaN,NaN,1,NaN,5.745867e-01,NaN,2,0,2,1
44,182,1,12,NaN,NaN,2,NaN,3.050086e-01,NaN,2,0,1,1
44,183,1,38,NaN,NaN,1,NaN,2.430064e+00,NaN,0,1,1,1
44,184,1,13,NaN,NaN,2,NaN,1.230251e+00,NaN,1,0,1,1
44,185,1,68,NaN,NaN,1,NaN,8.547007e-01,NaN,1,0,2,1
44,186,1,144,NaN,NaN,1,NaN,3.685231e+00,NaN,0,1,3,1
44,187,1,120,NaN,NaN,2,NaN,7.711153e-01,NaN,1,1,3,1
44,188,1,96,NaN,NaN,1,NaN,2.209456e-02,NaN,0,1,2,1
44,189,1,53,NaN,NaN,1,NaN,1.313068e-04,NaN,1,0,2,1
44,190,1,115,NaN,NaN,2,NaN,1.442543e-01,NaN,2,0,3,1
44,191,1,106,NaN,NaN,2,NaN,5.239907e-01,NaN,1,0,3,1
44,192,1,49,NaN,NaN,1,NaN,1.352310e-04,NaN,0,1,2,1
44,193,1,77,NaN,NaN,1,NaN,4.825433e-01,NaN,0,0,2,1
44,194,1,26,NaN,NaN,2,NaN,6.723248e-01,NaN,1,0,1,1
44,195,1,112,NaN,NaN,1,NaN,5.430914e-01,NaN,1,0,3,1
44,196,1,126,NaN,NaN,2,NaN,4.428467e-01,NaN,1,1,3,1
44,197,1,23,NaN,NaN,1,NaN,6.269407e-01,NaN,0,0,1,1
44,198,1,74,NaN,NaN,1,NaN,3.968485e-03,NaN,0,0,2,1
44,199,1,93,NaN,NaN,1,NaN,6.850824e-01,NaN,0,0,2,1
44,200,1,25,NaN,NaN,1,NaN,6.508168e-01,NaN,2,0,1,1
44,201,1,78,NaN,NaN,1,NaN,1.319106e-04,NaN,1,0,2,1
44,202,1,28,NaN,NaN,2,NaN,3.240206e-01,NaN,1,0,1,1
44,203,1,40,NaN,NaN,2,NaN,1.310050e-04,NaN,1,1,1,1
44,204,1,72,NaN,NaN,1,NaN,5.136506e-01,NaN,0,0,2,1
44,205,1,144,NaN,NaN,1,NaN,6.304280e-01,NaN,1,1,3,1
44,206,1,36,NaN,NaN,2,NaN,1.254492e+00,NaN,0,1,1,1
44,207,1,2,NaN,NaN,1,NaN,8.298272e-01,NaN,2,1,1,1
44,208,1,29,NaN,NaN,1,NaN,6.698925e-01,NaN,0,0,1,1
44,209,1,98,NaN,NaN,2,NaN,2.607860e-01,NaN,2,1,3,1
44,210,1,139,NaN,NaN,2,NaN,9.724766e-01,NaN,0,0,3,1
44,211,1,61,NaN,NaN,1,NaN,6.709559e-01,NaN,0,0,2,1
44,212,1,107,NaN,NaN,1,NaN,2.229381e+00,NaN,2,0,3,1
44,213,1,134,NaN,NaN,2,NaN,5.656563e-01,NaN,0,0,3,1
44,214,1,36,NaN,NaN,2,NaN,1.312376e+00,NaN,1,1,1,1
44,215,1,99,NaN,NaN,2,NaN,6.369698e-01,NaN,0,1,3,1
44,216,1,17,NaN,NaN,2,NaN,2.156944e+00,NaN,2,0,1,1
44,217,1,111,NaN,NaN,1,NaN,1.392461e+00,NaN,0,0,3,1
44,218,1,47,NaN,NaN,1,NaN,6.263795e-01,NaN,2,1,1,1
44,219,1,65,NaN,NaN,1,NaN,2.833828e-01,NaN,0,0,2,1
44,220,1,104,NaN,NaN,2,NaN,7.450878e-01,NaN,1,0,3,1
44,221,1,32,NaN,NaN,2,NaN,8.843938e-01,NaN,1,0,1,1
44,222,1,127,NaN,NaN,1,NaN,4.105328e-01,NaN,2,1,3,1
44,223,1,132,NaN,NaN,2,NaN,3.587970e+00,NaN,0,0,3,1
44,224,1,134,NaN,NaN,2,NaN,1.054057e+00,NaN,1,0,3,1
44,225,1,75,NaN,NaN,1,NaN,1.574203e-01,NaN,1,0,2,1
44,226,1,24,NaN,NaN,2,NaN,5.767630e-01,NaN,2,0,1,1
44,227,1,69,NaN,NaN,1,NaN,1.291939e-04,NaN,1,1,2,1
44,228,1,131,NaN,NaN,2,NaN,3.326494e-01,NaN,0,0,3,1
44,229,1,56,NaN,NaN,1,NaN,4.485695e-01,NaN,2,0,2,1
44,230,1,84,NaN,NaN,1,NaN,9.597914e-01,NaN,1,0,2,1
44,231,1,94,NaN,NaN,1,NaN,1.294957e-04,NaN,2,0,2,1
44,232,1,128,NaN,NaN,1,NaN,6.032991e-02,NaN,0,0,3,1
44,233,1,47,NaN,NaN,1,NaN,2.999284e-01,NaN,0,1,1,1
44,234,1,89,NaN,NaN,1,NaN,3.060177e-01,NaN,2,0,2,1
44,235,1,44,NaN,NaN,1,NaN,1.322124e-04,NaN,0,0,1,1
44,236,1,113,NaN,NaN,1,NaN,1.264772e-04,NaN,0,0,3,1
44,237,1,133,NaN,NaN,2,NaN,2.411554e-01,NaN,0,0,3,1
44,238,1,41,NaN,NaN,2,NaN,5.451543e-01,NaN,2,0,1,1
44,239,1,18,NaN,NaN,2,NaN,4.769762e-01,NaN,0,0,1,1
44,240,1,140,NaN,NaN,2,NaN,4.915129e-01,NaN,0,0,3,1
44,241,1,63,NaN,NaN,1,NaN,5.292463e-01,NaN,1,0,2,1
44,242,1,22,NaN,NaN,2,NaN,8.932210e-01,NaN,1,0,1,1
44,243,1,67,NaN,NaN,1,NaN,6.836266e-01,NaN,1,0,2,1
44,244,1,28,NaN,NaN,2,NaN,4.335215e-01,NaN,0,0,1,1
44,245,1,54,NaN,NaN,1,NaN,1.313068e-04,NaN,0,0,2,1
44,246,1,49,NaN,NaN,1,NaN,5.951025e-01,NaN,1,1,2,1
44,247,1,121,NaN,NaN,2,NaN,1.331180e-04,NaN,0,0,3,1
44,248,1,76,NaN,NaN,1,NaN,4.780079e-01,NaN,2,0,2,1
44,249,1,41,NaN,NaN,2,NaN,1.379476e-04,NaN,0,0,1,1
44,250,1,101,NaN,NaN,2,NaN,1.488144e-04,NaN,0,0,3,1
44,251,1,2,NaN,NaN,1,NaN,1.078643e+00,NaN,0,1,1,1
44,252,1,86,NaN,NaN,1,NaN,1.403625e-04,NaN,0,0,2,1
44,253,1,133,NaN,NaN,2,NaN,3.017437e-01,NaN,2,0,3,1
44,254,1,64,NaN,NaN,1,NaN,3.631941e-01,NaN,2,0,2,1
44,255,1,122,NaN,NaN,2,NaN,1.669821e+00,NaN,0,0,3,1
44,256,1,95,NaN,NaN,1,NaN,2.858414e-02,NaN,2,1,2,1
44,257,1,142,NaN,NaN,1,NaN,5.089526e-01,NaN,0,0,3,1
44,258,1,15,NaN,NaN,2,NaN,1.106247e+00,NaN,0,0,1,1
44,259,1,26,NaN,NaN,2,NaN,1.258735e-04,NaN,0,0,1,1
44,260,1,62,NaN,NaN,1,NaN,6.651962e-01,NaN,2,0,2,1
44,261,1,136,NaN,NaN,2,NaN,1.328161e-04,NaN,0,0,3,1
44,262,1,114,NaN,NaN,1,NaN,6.249614e-01,NaN,1,0,3,1
44,263,1,105,NaN,NaN,2,NaN,1.593793e-04,NaN,0,1,3,1
44,264,1,66,NaN,NaN,1,NaN,4.830564e-01,NaN,1,1,2,1
44,265,1,16,NaN,NaN,1,NaN,1.531494e-01,NaN,1,1,1,1
44,266,1,92,NaN,NaN,1,NaN,1.564372e+00,NaN,0,1,2,1
44,267,1,143,NaN,NaN,2,NaN,1.719227e+00,NaN,0,0,3,1
44,268,1,131,NaN,NaN,2,NaN,5.800065e-01,NaN,2,0,3,1
44,269,1,140,NaN,NaN,2,NaN,1.101224e-01,NaN,1,0,3,1
44,270,1,85,NaN,NaN,1,NaN,1.334198e-04,NaN,0,0,2,1
44,271,1,100,NaN,NaN,2,NaN,3.886604e-01,NaN,1,1,3,1
44,272,1,46,NaN,NaN,2,NaN,9.028532e-01,NaN,0,0,1,1
44,273,1,67,NaN,NaN,1,NaN,9.403109e-01,NaN,0,0,2,1
44,274,1,99,NaN,NaN,2,NaN,6.479775e-01,NaN,2,1,3,1
44,275,1,81,NaN,NaN,1,NaN,4.312898e-01,NaN,0,0,2,1
44,276,1,48,NaN,NaN,1,NaN,3.995314e-01,NaN,2,0,1,1
44,277,1,111,NaN,NaN,1,NaN,4.328631e-01,NaN,1,0,3,1
44,278,1,32,NaN,NaN,1,NaN,1.319106e-04,NaN,0,0,1,1
44,279,1,83,NaN,NaN,1,NaN,6.264987e-01,NaN,2,1,2,1
44,280,1,98,NaN,NaN,2,NaN,3.949975e-01,NaN,0,1,3,1
44,281,1,68,NaN,NaN,1,NaN,2.682363e-01,NaN,0,0,2,1
44,282,1,17,NaN,NaN,1,NaN,4.111232e-01,NaN,0,0,1,1
44,283,1,21,NaN,NaN,1,NaN,3.323883e-01,NaN,1,0,1,1
44,284,1,34,NaN,NaN,2,NaN,6.323614e-01,NaN,2,0,1,1
44,285,1,8,NaN,NaN,2,NaN,7.287469e-01,NaN,2,0,1,1
44,286,1,118,NaN,NaN,1,NaN,1.972384e+00,NaN,0,0,3,1
44,287,1,129,NaN,NaN,2,NaN,7.595247e-01,NaN,0,1,3,1
44,288,1,6,NaN,NaN,1,NaN,5.785874e-01,NaN,0,0,1,1
44,419,2,106,17,2,2,1,3.030193e+00,NaN,1,0,3,1
44,420,2,93,58,2,2,1,9.951706e-01,NaN,1,0,2,1
44,421,2,70,26,2,0,0,3.499928e+00,NaN,1,0,2,1
44,422,2,86,60,2,2,1,1.290054e+00,NaN,1,0,2,1
44,423,2,68,33,1,1,1,6.760044e-01,NaN,1,0,2,1
44,424,2,20,20,1,1,1,1.551198e+00,NaN,1,0,1,1
44,425,2,100,16,2,2,1,9.421839e-01,NaN,1,1,3,1
44,426,2,117,72,2,2,1,1.678749e+00,NaN,1,0,3,1
44,427,2,78,71,1,1,1,1.976539e+00,NaN,1,0,2,1
44,428,2,36,56,1,2,0,3.023542e+00,NaN,1,1,1,1
44,429,2,22,47,2,2,1,1.092283e+00,NaN,1,0,1,1
44,430,2,75,64,2,2,1,8.941567e-01,NaN,1,0,2,1
44,431,2,27,38,1,1,1,1.424147e+00,NaN,1,0,1,1
44,432,2,144,52,1,2,0,2.116782e+00,NaN,1,1,3,1
44,433,2,43,22,2,2,1,1.293697e+00,NaN,1,0,1,1
44,434,2,23,14,2,2,1,1.184058e+00,NaN,1,0,1,1
44,435,2,119,10,1,1,1,1.654089e+00,NaN,1,0,3,1
44,436,2,38,62,2,2,1,2.705388e+00,NaN,1,1,1,1
44,437,2,5,13,1,1,1,1.666659e+00,NaN,1,1,1,1
44,438,2,40,68,2,2,1,1.205582e+00,NaN,1,1,1,1
44,439,2,13,9,1,1,1,8.352830e-01,NaN,1,0,1,1
44,440,2,134,37,1,1,1,1.375031e+00,NaN,1,0,3,1
44,441,2,16,54,1,1,1,2.038141e+00,NaN,1,1,1,1
44,442,2,80,53,1,1,1,8.021843e-01,NaN,1,0,2,1
44,443,3,106,17,2,2,1,1.288189e+00,NaN,1,0,3,1
44,444,3,117,72,1,1,1,1.258414e+00,NaN,1,0,3,1
44,445,3,134,37,2,1,0,1.477633e+00,NaN,1,0,3,1
44,446,3,27,38,1,1,1,8.646800e-01,NaN,1,0,1,1
44,447,3,75,64,2,2,1,6.272727e-01,NaN,1,0,2,1
44,448,3,16,54,1,1,1,8.643404e-01,NaN,1,1,1,1
44,449,3,40,68,2,2,1,6.190970e-01,NaN,1,1,1,1
44,450,3,22,47,1,1,1,1.687922e+00,NaN,1,0,1,1
44,451,3,13,9,2,2,1,1.010015e+00,NaN,1,0,1,1
44,452,3,78,71,2,2,1,9.351691e-01,NaN,1,0,2,1
44,453,3,38,62,1,1,1,8.552193e-01,NaN,1,1,1,1
44,454,3,80,53,2,2,1,9.946315e-01,NaN,1,0,2,1
44,455,3,119,10,1,1,1,1.080705e+00,NaN,1,0,3,1
44,456,3,86,60,2,2,1,1.306756e+00,NaN,1,0,2,1
44,457,3,23,14,1,1,1,7.726982e-01,NaN,1,0,1,1
44,458,3,36,56,2,2,1,2.763169e+00,NaN,1,1,1,1
44,459,3,43,22,1,1,1,1.465825e+00,NaN,1,0,1,1
44,460,3,5,13,2,2,1,1.348716e+00,NaN,1,1,1,1
44,461,3,100,16,1,1,1,1.323944e+00,NaN,1,1,3,1
44,462,3,93,58,2,2,1,6.286715e-01,NaN,1,0,2,1
44,463,3,68,33,2,2,1,6.087367e-01,NaN,1,0,2,1
44,464,3,70,26,1,1,1,1.830490e+00,NaN,1,0,2,1
44,465,3,144,52,1,1,1,6.904153e-01,NaN,1,1,3,1
44,466,3,20,20,1,1,1,9.883870e-01,NaN,1,0,1,1
44,491,2,111,27,2,2,1,1.864072e+00,NaN,1,0,3,2
44,492,2,65,18,1,1,1,2.226683e+00,NaN,1,0,2,2
44,493,2,44,6,2,2,1,2.071720e+00,NaN,1,0,1,2
44,494,2,82,23,2,2,1,1.306441e+00,NaN,1,1,2,2
44,495,2,90,59,2,1,0,1.019700e+00,NaN,1,0,2,2
44,496,2,52,41,1,1,1,7.522756e-01,NaN,1,1,2,2
44,497,2,35,65,2,2,1,1.335761e+00,NaN,1,0,1,2
44,498,2,10,4,1,1,1,1.671701e+00,NaN,1,1,1,2
44,499,2,29,2,2,2,1,1.090997e+00,NaN,1,0,1,2
44,500,2,32,30,2,2,1,1.196915e+00,NaN,1,0,1,2
44,501,2,63,31,2,2,1,3.090036e+00,NaN,1,0,2,2
44,502,2,66,67,1,1,1,1.068462e+00,NaN,1,1,2,2
44,503,2,3,11,2,2,1,1.382988e+00,NaN,1,0,1,2
44,504,2,67,7,2,2,1,1.748954e+00,NaN,1,0,2,2
44,505,2,140,43,2,2,1,1.220837e+00,NaN,1,0,3,2
44,506,2,126,45,2,2,1,1.993574e+00,NaN,1,1,3,2
44,507,2,124,51,2,2,1,6.316982e-01,NaN,1,1,3,2
44,508,2,37,36,2,2,1,1.915520e+00,NaN,1,0,1,2
44,509,2,77,57,2,2,1,1.884684e+00,NaN,1,0,2,2
44,510,2,110,39,2,2,1,7.594042e-01,NaN,1,0,3,2
44,511,2,74,35,1,1,1,7.658950e-01,NaN,1,0,2,2
44,512,2,49,15,2,1,0,1.100526e+00,NaN,1,1,2,2
44,513,2,123,50,1,1,1,1.542304e+00,NaN,1,0,3,2
44,514,2,135,19,2,2,1,7.020723e-01,NaN,1,0,3,2
44,515,3,49,15,1,1,1,8.406828e-01,NaN,1,1,2,2
44,516,3,90,59,1,1,1,7.163473e-01,NaN,1,0,2,2
44,517,3,52,41,1,1,1,4.452241e-01,NaN,1,1,2,2
44,518,3,135,19,1,1,1,6.005736e-01,NaN,1,0,3,2
44,519,3,124,51,2,2,1,1.285971e+00,NaN,1,1,3,2
44,520,3,126,45,1,1,1,9.441258e-01,NaN,1,1,3,2
44,521,3,123,50,2,2,1,2.280013e+00,NaN,1,0,3,2
44,522,3,35,65,2,2,1,9.463266e-01,NaN,1,0,1,2
44,523,3,29,2,1,1,1,1.049722e+00,NaN,1,0,1,2
44,524,3,74,35,2,1,0,7.090847e-01,NaN,1,0,2,2
44,525,3,63,31,2,1,0,2.550499e+00,NaN,1,0,2,2
44,526,3,65,18,1,1,1,1.838228e+00,NaN,1,0,2,2
44,527,3,44,6,2,2,1,1.698507e+00,NaN,1,0,1,2
44,528,3,10,4,1,1,1,5.955906e-01,NaN,1,1,1,2
44,529,3,110,39,2,2,1,6.651552e-01,NaN,1,0,3,2
44,530,3,82,23,1,1,1,7.957385e-01,NaN,1,1,2,2
44,531,3,3,11,1,1,1,1.249001e+00,NaN,1,0,1,2
44,532,3,140,43,1,1,1,1.356899e+00,NaN,1,0,3,2
44,533,3,67,7,2,2,1,9.963623e-01,NaN,1,0,2,2
44,534,3,37,36,2,2,1,6.016353e-01,NaN,1,0,1,2
44,535,3,77,57,2,2,1,5.670641e-01,NaN,1,0,2,2
44,536,3,66,67,2,2,1,6.055811e-01,NaN,1,1,2,2
44,537,3,111,27,2,2,1,7.473324e-01,NaN,1,0,3,2
44,538,3,32,30,2,2,1,6.663940e-01,NaN,1,0,1,2
44,563,2,104,69,2,2,1,1.782617e+00,NaN,1,0,3,3
44,564,2,102,29,1,1,1,1.860822e+00,NaN,1,0,3,3
44,565,2,120,3,1,1,1,1.608401e+00,NaN,1,1,3,3
44,566,2,1,63,1,1,1,1.845660e+00,NaN,1,0,1,3
44,567,2,112,48,1,1,1,9.850832e-01,NaN,1,0,3,3
44,568,2,122,44,2,2,1,1.951158e+00,NaN,1,0,3,3
44,569,2,54,8,2,2,1,1.415246e+00,NaN,1,0,2,3
44,570,2,84,25,1,1,1,8.435490e-01,NaN,1,0,2,3
44,571,2,137,5,2,2,1,1.191554e+00,NaN,1,0,3,3
44,572,2,129,66,2,2,1,1.053554e+00,NaN,1,1,3,3
44,573,2,81,49,2,2,1,6.410759e-01,NaN,1,0,2,3
44,574,2,79,32,2,2,1,6.292680e-01,NaN,1,0,2,3
44,575,2,128,12,1,1,1,1.025247e+00,NaN,1,0,3,3
44,576,2,9,24,2,2,1,1.669920e+00,NaN,1,0,1,3
44,577,2,11,46,1,1,1,1.529041e+00,NaN,1,0,1,3
44,578,2,141,42,2,2,1,2.056972e+00,NaN,1,0,3,3
44,579,2,73,28,2,2,1,1.500554e+00,NaN,1,1,2,3
44,580,2,21,70,1,1,1,9.658068e-01,NaN,1,0,1,3
44,581,2,132,55,2,2,1,1.292612e+00,NaN,1,0,3,3
44,582,2,28,21,2,2,1,1.558871e+00,NaN,1,0,1,3
44,583,2,26,34,2,2,1,1.966053e+00,NaN,1,0,1,3
44,584,2,53,61,1,1,1,7.647721e-01,NaN,1,0,2,3
44,585,2,69,40,2,2,1,7.158577e-01,NaN,1,1,2,3
44,586,2,114,1,1,1,1,9.725282e-01,NaN,1,0,3,3
44,587,3,21,70,2,2,1,8.264121e-01,NaN,1,0,1,3
44,588,3,141,42,1,1,1,1.095053e+00,NaN,1,0,3,3
44,589,3,81,49,2,2,1,4.889806e-01,NaN,1,0,2,3
44,590,3,9,24,2,2,1,1.210985e+00,NaN,1,0,1,3
44,591,3,129,66,1,1,1,6.726904e-01,NaN,1,1,3,3
44,592,3,79,32,2,2,1,3.633402e-01,NaN,1,0,2,3
44,593,3,84,25,2,2,1,6.816247e-01,NaN,1,0,2,3
44,594,3,73,28,1,2,0,8.599059e-01,NaN,1,1,2,3
44,595,3,11,46,1,1,1,9.111264e-01,NaN,1,0,1,3
44,596,3,122,44,1,1,1,1.248894e+00,NaN,1,0,3,3
44,597,3,53,61,1,1,1,1.899941e+00,NaN,1,0,2,3
44,598,3,102,29,2,2,1,8.135056e-01,NaN,1,0,3,3
44,599,3,26,34,2,2,1,7.222721e-01,NaN,1,0,1,3
44,600,3,120,3,1,1,1,7.153108e-01,NaN,1,1,3,3
44,601,3,137,5,1,1,1,8.598859e-01,NaN,1,0,3,3
44,602,3,132,55,1,1,1,2.470882e+00,NaN,1,0,3,3
44,603,3,104,69,1,1,1,1.706165e+00,NaN,1,0,3,3
44,604,3,69,40,1,1,1,8.033748e-01,NaN,1,1,2,3
44,605,3,128,12,1,1,1,6.088644e-01,NaN,1,0,3,3
44,606,3,112,48,1,1,1,6.303948e-01,NaN,1,0,3,3
44,607,3,54,8,1,1,1,1.642468e+00,NaN,1,0,2,3
44,608,3,1,63,2,2,1,8.227705e-01,NaN,1,0,1,3
44,609,3,114,1,1,1,1,8.911454e-01,NaN,1,0,3,3
44,610,3,28,21,1,1,1,1.285197e+00,NaN,1,0,1,3
44,635,4,4,27,1,1,1,1.819707e+00,NaN,2,0,1,1
44,636,4,55,56,2,2,1,1.392716e+00,NaN,2,1,2,1
44,637,4,103,7,1,2,0,1.038371e+00,NaN,2,0,3,1
44,638,4,133,36,1,1,1,1.194382e+00,NaN,2,0,3,1
44,639,4,60,4,1,2,0,1.975953e+00,NaN,2,1,2,1
44,640,4,48,57,1,1,1,1.246672e+00,NaN,2,0,1,1
44,641,4,46,26,1,1,1,1.338504e+00,NaN,2,0,1,1
44,642,4,139,14,1,1,1,1.714151e+00,NaN,2,0,3,1
44,643,4,87,50,2,2,1,1.523235e+00,NaN,2,0,2,1
44,644,4,98,23,2,2,1,1.708066e+00,NaN,2,1,3,1
44,645,4,83,51,2,2,1,2.005092e+00,NaN,2,1,2,1
44,646,4,61,65,1,1,1,8.106848e-01,NaN,2,0,2,1
44,647,4,136,6,2,2,1,1.560387e+00,NaN,2,0,3,1
44,648,4,94,39,2,0,0,3.499649e+00,NaN,2,0,2,1
44,649,4,131,30,1,1,1,4.489327e-01,NaN,2,0,3,1
44,650,4,7,72,1,1,1,5.563420e-01,NaN,2,0,1,1
44,651,4,41,60,1,1,1,1.292076e+00,NaN,2,0,1,1
44,652,4,15,43,2,2,1,1.718093e+00,NaN,2,0,1,1
44,653,4,58,20,2,2,1,1.766602e+00,NaN,2,0,2,1
44,654,4,97,58,2,2,1,6.694156e-01,NaN,2,0,3,1
44,655,4,109,18,1,2,0,2.216241e+00,NaN,2,0,3,1
44,656,4,34,71,2,1,0,8.288456e-01,NaN,2,0,1,1
44,657,4,30,61,2,2,1,2.169228e+00,NaN,2,0,1,1
44,658,4,2,3,1,1,1,8.640214e-01,NaN,2,1,1,1
44,683,4,130,47,2,2,1,1.763837e+00,NaN,2,0,3,2
44,684,4,108,8,2,2,1,1.330693e+00,NaN,2,0,3,2
44,685,4,115,32,1,1,1,1.738863e+00,NaN,2,0,3,2
44,686,4,56,9,2,2,1,1.579206e+00,NaN,2,0,2,2
44,687,4,142,21,1,1,1,2.753090e+00,NaN,2,0,3,2
44,688,4,19,69,1,1,1,6.248811e-01,NaN,2,0,1,2
44,689,4,71,54,2,2,1,9.175272e-01,NaN,2,1,2,2
44,690,4,8,37,1,1,1,1.390417e+00,NaN,2,0,1,2
44,691,4,25,49,1,1,1,7.882319e-01,NaN,2,0,1,2
44,692,4,92,16,1,1,1,1.506359e+00,NaN,2,1,2,2
44,693,4,50,62,2,2,1,1.548036e+00,NaN,2,1,2,2
44,694,4,31,31,1,1,1,1.195574e+00,NaN,2,0,1,2
44,695,4,51,70,1,1,1,6.966945e-01,NaN,2,0,2,2
44,696,4,64,24,2,2,1,9.063296e-01,NaN,2,0,2,2
44,697,4,14,1,2,2,1,1.707565e+00,NaN,2,0,1,2
44,698,4,12,17,1,1,1,1.964996e+00,NaN,2,0,1,2
44,699,4,18,48,2,2,1,1.459566e+00,NaN,2,0,1,2
44,700,4,88,52,1,1,1,2.959089e+00,NaN,2,1,2,2
44,701,4,101,59,2,1,0,1.126475e+00,NaN,2,0,3,2
44,702,4,105,15,2,2,1,1.063618e+00,NaN,2,1,3,2
44,703,4,121,38,2,2,1,1.042330e+00,NaN,2,0,3,2
44,704,4,113,64,1,1,1,1.654272e+00,NaN,2,0,3,2
44,705,4,85,42,1,1,1,6.177003e-01,NaN,2,0,2,2
44,706,4,95,45,1,1,1,1.022212e+00,NaN,2,1,2,2
44,731,4,72,29,1,1,1,6.265860e-01,NaN,2,0,2,3
44,732,4,24,5,1,1,1,1.511462e+00,NaN,2,0,1,3
44,733,4,39,28,1,1,1,7.289797e-01,NaN,2,1,1,3
44,734,4,125,2,2,2,1,1.481122e+00,NaN,2,0,3,3
44,735,4,138,68,1,1,1,9.631967e-01,NaN,2,1,3,3
44,736,4,62,46,1,2,0,8.016835e-01,NaN,2,0,2,3
44,737,4,107,33,1,1,1,1.023033e+00,NaN,2,0,3,3
44,738,4,127,13,1,1,1,9.558622e-01,NaN,2,1,3,3
44,739,4,76,19,2,1,0,8.273261e-01,NaN,2,0,2,3
44,740,4,99,41,2,2,1,9.687001e-01,NaN,2,1,3,3
44,741,4,57,34,2,2,1,1.047289e+00,NaN,2,0,2,3
44,742,4,47,40,2,2,1,1.122264e+00,NaN,2,1,1,3
44,743,4,118,11,2,2,1,2.610874e+00,NaN,2,0,3,3
44,744,4,89,44,2,2,1,1.448752e+00,NaN,2,0,2,3
44,745,4,143,22,2,2,1,9.962636e-01,NaN,2,0,3,3
44,746,4,45,53,2,2,1,1.265294e+00,NaN,2,0,1,3
44,747,4,91,55,2,2,1,1.716340e+00,NaN,2,0,2,3
44,748,4,59,63,1,1,1,1.628871e+00,NaN,2,0,2,3
44,749,4,6,12,1,1,1,1.217029e+00,NaN,2,0,1,3
44,750,4,17,10,1,1,1,2.197744e+00,NaN,2,0,1,3
44,751,4,33,67,1,1,1,1.387108e+00,NaN,2,1,1,3
44,752,4,42,35,1,1,1,1.817549e+00,NaN,2,0,1,3
44,753,4,96,66,2,2,1,5.263346e-01,NaN,2,1,2,3
44,754,4,116,25,1,1,1,1.879020e+00,NaN,2,0,3,3
44,755,5,1.170700e+02,72,3,0,0,2.500059e+00,1,1,0,3.100000e+00,1
44,756,5,4.180000e+00,11,1,1,1,1.749909e+00,1,1,0,1.300000e+00,1
44,757,5,2.942000e+01,21,1,0,0,2.500160e+00,1,1,0,1.300000e+00,1
44,758,5,9.640000e+00,24,1,3,0,6.106643e-01,1,1,0,1.200000e+00,1
44,759,5,1.329100e+02,55,3,2,0,1.533422e-04,1,1,0,3.200000e+00,1
44,760,5,8.015000e+01,32,2,1,0,1.488144e-04,1,1,0,2.300000e+00,1
44,761,5,1.110400e+02,27,3,1,0,8.788741e-01,1,1,0,3.100000e+00,1
44,762,5,2.657000e+01,34,1,1,1,6.426308e-02,1,1,0,1.200000e+00,1
44,763,5,1.109400e+02,39,3,2,0,1.201709e+00,1,1,0,3.200000e+00,1
44,764,5,1.401500e+02,43,3,3,1,1.602735e+00,1,1,0,3.100000e+00,1
44,765,5,9.640000e+00,24,1,2,0,2.690184e-01,2,1,0,1.200000e+00,1
44,766,5,3.331000e+01,30,1,1,1,5.183538e-01,1,1,0,1.300000e+00,1
44,767,5,4.180000e+00,11,1,1,1,3.280579e-01,2,1,0,1.300000e+00,1
44,768,5,9.640000e+00,24,1,1,1,5.372825e-01,3,1,0,1.200000e+00,1
44,769,5,6.907000e+01,33,2,2,1,4.988030e-01,1,1,0,2.300000e+00,1
44,770,5,1.121800e+02,48,3,3,1,3.649566e-01,1,1,0,3.100000e+00,1
44,771,5,2.657000e+01,34,1,1,1,3.014621e-01,2,1,0,1.200000e+00,1
44,772,5,1.110400e+02,27,3,3,1,4.387167e-01,2,1,0,3.100000e+00,1
44,773,5,8.045000e+01,53,2,2,1,1.040512e+00,1,1,0,2.100000e+00,1
44,774,5,1.109400e+02,39,3,3,1,3.058674e-01,2,1,0,3.200000e+00,1
44,775,5,8.125000e+01,49,2,2,1,4.193439e-01,1,1,0,2.100000e+00,1
44,776,5,1.191700e+02,10,3,3,1,3.567788e-01,1,1,0,3.100000e+00,1
44,777,5,5.330000e+01,61,2,2,1,3.899668e-01,1,1,0,2.100000e+00,1
44,778,5,7.613000e+01,64,2,2,1,6.633782e-01,1,1,0,2.300000e+00,1
44,779,5,1.590000e+00,63,1,1,1,3.452238e-01,1,1,0,1.200000e+00,1
44,780,5,1.357600e+02,19,3,3,1,4.424126e-01,1,1,0,3.200000e+00,1
44,781,5,8.641000e+01,60,2,2,1,4.446499e-01,1,1,0,2.100000e+00,1
44,782,5,7.046000e+01,26,2,2,1,3.577345e-01,1,1,0,2.100000e+00,1
44,783,5,6.331000e+01,31,2,2,1,3.593403e-01,1,1,0,2.100000e+00,1
44,784,5,2.058000e+01,20,1,1,1,4.016097e-01,1,1,0,1.200000e+00,1
44,785,5,7.046000e+01,26,2,2,1,2.906705e-01,2,1,0,2.100000e+00,1
44,786,5,2.821000e+01,38,1,1,1,3.962146e-01,1,1,0,1.300000e+00,1
44,787,5,1.141400e+02,1,3,2,0,4.614983e-01,1,1,0,3.100000e+00,1
44,788,5,1.401500e+02,43,3,1,0,3.430251e-01,2,1,0,3.100000e+00,1
44,789,5,4.443000e+01,22,1,1,1,2.569442e-01,1,1,0,1.300000e+00,1
44,790,5,3.331000e+01,30,1,1,1,3.546070e-01,2,1,0,1.300000e+00,1
44,791,5,3.833000e+01,36,1,1,1,3.083287e-01,1,1,0,1.300000e+00,1
44,792,5,1.340800e+02,37,3,3,1,3.011301e-01,1,1,0,3.100000e+00,1
44,793,5,7.748000e+01,57,2,2,1,2.871874e-01,1,1,0,2.100000e+00,1
44,794,5,1.027200e+02,29,3,3,1,1.647885e+00,1,1,0,3.200000e+00,1
44,795,5,6.907000e+01,33,2,2,1,3.304187e-01,2,1,0,2.300000e+00,1
44,796,5,1.372400e+02,5,3,3,1,3.237163e-01,1,1,0,3.100000e+00,1
44,797,5,1.340800e+02,37,3,3,1,2.213130e-01,2,1,0,3.100000e+00,1
44,798,5,1.121800e+02,48,3,3,1,3.907094e-01,2,1,0,3.100000e+00,1
44,799,5,9.397000e+01,58,2,2,1,2.961742e-01,1,1,0,2.300000e+00,1
44,800,5,6.907000e+01,33,2,2,1,9.855605e-01,3,1,0,2.300000e+00,1
44,801,5,2.151000e+01,70,1,2,0,3.791106e-01,1,1,0,1.200000e+00,1
44,802,5,4.443000e+01,22,1,1,1,3.800603e-01,2,1,0,1.300000e+00,1
44,803,5,1.061200e+02,17,3,3,1,3.979243e-01,1,1,0,3.100000e+00,1
44,804,5,8.516000e+01,25,2,2,1,3.429345e-01,1,1,0,2.300000e+00,1
44,805,5,1.357600e+02,19,3,3,1,3.534979e-01,2,1,0,3.200000e+00,1
44,806,5,9.101000e+01,59,2,2,1,2.984336e-01,1,1,0,2.300000e+00,1
44,807,5,2.439000e+01,14,1,1,1,3.321728e-01,1,1,0,1.300000e+00,1
44,808,5,1.418500e+02,42,3,0,0,2.500349e+00,1,1,0,3.200000e+00,1
44,809,5,1.357600e+02,19,3,3,1,3.754754e-01,3,1,0,3.200000e+00,1
44,810,5,7.442000e+01,35,2,2,1,2.736525e-01,1,1,0,2.100000e+00,1
44,811,5,3.331000e+01,30,1,1,1,2.991381e-01,3,1,0,1.300000e+00,1
44,812,5,1.109400e+02,39,3,3,1,5.242373e-01,3,1,0,3.200000e+00,1
44,813,5,1.228900e+02,44,3,2,0,1.117965e+00,1,1,0,3.200000e+00,1
44,814,5,1.141400e+02,1,3,2,0,1.055228e+00,2,1,0,3.100000e+00,1
44,815,5,2.942000e+01,21,1,3,0,8.565936e-01,2,1,0,1.300000e+00,1
44,816,5,2.942000e+01,21,1,1,1,3.462371e-01,3,1,0,1.300000e+00,1
44,817,5,1.418500e+02,42,3,3,1,3.157130e-01,2,1,0,3.200000e+00,1
44,818,5,5.508000e+01,8,2,2,1,3.728604e-01,1,1,0,2.300000e+00,1
44,819,5,9.397000e+01,58,2,2,1,3.823507e-01,2,1,0,2.300000e+00,1
44,820,5,1.238700e+02,50,3,3,1,3.519383e-01,1,1,0,3.200000e+00,1
44,821,5,6.803000e+01,7,2,2,1,3.370076e-01,1,1,0,2.300000e+00,1
44,822,5,1.141400e+02,1,3,3,1,4.265622e-01,3,1,0,3.100000e+00,1
44,823,5,7.046000e+01,26,2,2,1,5.326177e-01,3,1,0,2.100000e+00,1
44,824,5,2.942000e+01,21,1,1,1,3.183750e-01,4,1,0,1.300000e+00,1
44,825,5,2.821000e+01,38,1,1,1,3.756465e-01,2,1,0,1.300000e+00,1
44,826,5,2.821000e+01,38,1,1,1,3.694452e-01,3,1,0,1.300000e+00,1
44,827,5,5.330000e+01,61,2,2,1,4.669730e-01,2,1,0,2.100000e+00,1
44,828,5,3.025000e+01,2,1,1,1,3.807044e-01,1,1,0,1.300000e+00,1
44,829,5,8.516000e+01,25,2,2,1,4.217866e-01,2,1,0,2.300000e+00,1
44,830,5,6.609000e+01,18,2,2,1,3.990880e-01,1,1,0,2.300000e+00,1
44,831,5,1.162000e+01,46,1,1,1,4.969264e-01,1,1,0,1.200000e+00,1
44,832,5,7.748000e+01,57,2,2,1,2.981849e-01,2,1,0,2.100000e+00,1
44,833,5,6.803000e+01,7,2,2,1,3.074603e-01,2,1,0,2.300000e+00,1
44,834,5,1.418500e+02,42,3,3,1,3.971474e-01,3,1,0,3.200000e+00,1
44,835,5,1.280600e+02,12,3,3,1,5.502711e-01,1,1,0,3.100000e+00,1
44,836,5,2.330000e+01,47,1,1,1,3.036795e-01,1,1,0,1.300000e+00,1
44,837,5,1.041900e+02,69,3,3,1,2.975199e-01,1,1,0,3.100000e+00,1
44,838,5,1.170700e+02,72,3,3,1,9.386595e-01,2,1,0,3.100000e+00,1
44,839,5,6.331000e+01,31,2,2,1,2.924490e-01,2,1,0,2.100000e+00,1
44,840,5,3.833000e+01,36,1,1,1,2.942538e-01,2,1,0,1.300000e+00,1
44,841,5,1.329100e+02,55,3,3,1,3.754850e-01,2,1,0,3.200000e+00,1
44,842,5,1.280600e+02,12,3,3,1,8.975683e-01,2,1,0,3.100000e+00,1
44,843,5,3.561000e+01,65,1,1,1,4.353015e-01,1,1,0,1.200000e+00,1
44,844,5,9.397000e+01,58,2,2,1,4.204789e-01,3,1,0,2.300000e+00,1
44,845,5,2.439000e+01,14,1,1,1,4.058885e-01,2,1,0,1.300000e+00,1
44,846,5,1.027200e+02,29,3,2,0,5.678752e-01,2,1,0,3.200000e+00,1
44,847,5,1.590000e+00,63,1,1,1,3.288557e-01,2,1,0,1.200000e+00,1
44,848,5,8.641000e+01,60,2,2,1,3.302904e-01,2,1,0,2.100000e+00,1
44,849,5,2.657000e+01,34,1,1,1,4.358765e-01,3,1,0,1.200000e+00,1
44,850,5,1.041900e+02,69,3,3,1,3.649944e-01,2,1,0,3.100000e+00,1
44,851,5,9.397000e+01,58,2,2,1,3.024790e-01,4,1,0,2.300000e+00,1
44,852,5,8.641000e+01,60,2,2,1,4.001004e-01,3,1,0,2.100000e+00,1
44,853,5,2.058000e+01,20,1,1,1,4.255036e-01,2,1,0,1.200000e+00,1
44,854,5,2.058000e+01,20,1,1,1,2.595387e-01,3,1,0,1.200000e+00,1
44,855,5,6.609000e+01,18,2,2,1,3.332924e-01,2,1,0,2.300000e+00,1
44,856,5,5.330000e+01,61,2,2,1,5.350005e-01,3,1,0,2.100000e+00,1
44,857,5,3.561000e+01,65,1,1,1,4.080968e-01,2,1,0,1.200000e+00,1
44,858,5,8.015000e+01,32,2,2,1,3.859199e-01,2,1,0,2.300000e+00,1
44,859,5,3.561000e+01,65,1,1,1,2.910674e-01,3,1,0,1.200000e+00,1
44,860,5,1.228900e+02,44,3,3,1,5.325709e-01,2,1,0,3.200000e+00,1
44,861,5,4.443000e+01,22,1,1,1,3.821328e-01,3,1,0,1.300000e+00,1
44,862,5,1.191700e+02,10,3,3,1,3.673341e-01,2,1,0,3.100000e+00,1
44,863,5,1.121800e+02,48,3,3,1,3.607222e-01,3,1,0,3.100000e+00,1
44,864,5,1.590000e+00,63,1,1,1,4.509626e-01,3,1,0,1.200000e+00,1
44,865,5,3.025000e+01,2,1,1,1,4.603521e-01,2,1,0,1.300000e+00,1
44,866,5,2.330000e+01,47,1,1,1,3.902789e-01,2,1,0,1.300000e+00,1
44,867,5,4.536000e+01,6,1,1,1,4.956610e-01,1,1,0,1.300000e+00,1
44,868,5,1.027200e+02,29,3,3,1,5.772053e-01,3,1,0,3.200000e+00,1
44,869,5,6.609000e+01,18,2,2,1,4.034193e-01,3,1,0,2.300000e+00,1
44,870,5,8.125000e+01,49,2,2,1,3.091905e-01,2,1,0,2.100000e+00,1
44,871,5,1.162000e+01,46,1,1,1,6.070032e-01,2,1,0,1.200000e+00,1
44,872,5,1.340800e+02,37,3,3,1,3.204319e-01,3,1,0,3.100000e+00,1
44,873,5,8.045000e+01,53,2,2,1,9.856254e-01,2,1,0,2.100000e+00,1
44,874,5,1.238700e+02,50,3,3,1,3.553287e-01,2,1,0,3.200000e+00,1
44,875,5,2.151000e+01,70,1,2,0,5.244413e-01,2,1,0,1.200000e+00,1
44,876,5,1.110400e+02,27,3,3,1,3.420604e-01,3,1,0,3.100000e+00,1
44,877,5,4.536000e+01,6,1,1,1,4.959043e-01,2,1,0,1.300000e+00,1
44,878,5,1.590000e+00,63,1,1,1,3.934732e-01,4,1,0,1.200000e+00,1
44,879,5,7.613000e+01,64,2,3,0,3.392281e-01,2,1,0,2.300000e+00,1
44,880,5,7.046000e+01,26,2,2,1,4.850774e-01,4,1,0,2.100000e+00,1
44,881,5,1.061200e+02,17,3,3,1,4.461897e-01,2,1,0,3.100000e+00,1
44,882,5,6.331000e+01,31,2,2,1,4.796983e-01,3,1,0,2.100000e+00,1
44,883,5,8.045000e+01,53,2,2,1,6.010687e-01,3,1,0,2.100000e+00,1
44,884,5,7.748000e+01,57,2,2,1,5.147720e-01,3,1,0,2.100000e+00,1
44,885,5,6.907000e+01,33,2,2,1,1.267921e+00,4,1,0,2.300000e+00,1
44,886,5,1.041900e+02,69,3,3,1,3.414503e-01,3,1,0,3.100000e+00,1
44,887,5,1.329100e+02,55,3,3,1,3.988815e-01,3,1,0,3.200000e+00,1
44,888,5,5.330000e+01,61,2,2,1,3.363312e-01,4,1,0,2.100000e+00,1
44,889,5,5.508000e+01,8,2,2,1,2.975929e-01,2,1,0,2.300000e+00,1
44,890,5,8.125000e+01,49,2,2,1,4.833194e-01,3,1,0,2.100000e+00,1
44,891,5,1.356000e+01,9,1,1,1,3.566988e-01,1,1,0,1.200000e+00,1
44,892,5,7.442000e+01,35,2,2,1,4.939893e-01,2,1,0,2.100000e+00,1
44,893,5,3.025000e+01,2,1,1,1,2.304006e+00,3,1,0,1.300000e+00,1
44,894,5,1.110400e+02,27,3,2,0,1.257980e+00,4,1,0,3.100000e+00,1
44,895,5,7.613000e+01,64,2,3,0,3.076402e-01,3,1,0,2.300000e+00,1
44,896,5,1.356000e+01,9,1,1,1,3.649056e-01,2,1,0,1.200000e+00,1
44,897,5,1.238700e+02,50,3,3,1,4.865522e-01,3,1,0,3.200000e+00,1
44,898,5,8.125000e+01,49,2,2,1,4.557383e-01,4,1,0,2.100000e+00,1
44,899,5,1.228900e+02,44,3,2,0,1.041076e+00,3,1,0,3.200000e+00,1
44,900,5,6.331000e+01,31,2,2,1,9.882092e-02,4,1,0,2.100000e+00,1
44,901,5,4.180000e+00,11,1,1,1,3.559239e-01,3,1,0,1.300000e+00,1
44,902,5,8.641000e+01,60,2,2,1,4.215366e-01,4,1,0,2.100000e+00,1
44,903,5,1.356000e+01,9,1,1,1,4.229928e-01,3,1,0,1.200000e+00,1
44,904,5,3.025000e+01,2,1,1,1,3.525697e-01,4,1,0,1.300000e+00,1
44,905,5,1.109400e+02,39,3,3,1,4.736624e-01,4,1,0,3.200000e+00,1
44,906,5,8.516000e+01,25,2,2,1,3.393147e-01,3,1,0,2.300000e+00,1
44,907,5,9.101000e+01,59,2,2,1,4.445316e-01,2,1,0,2.300000e+00,1
44,908,5,3.331000e+01,30,1,0,0,2.500473e+00,4,1,0,1.300000e+00,1
44,909,5,6.803000e+01,7,2,2,1,4.080350e-01,3,1,0,2.300000e+00,1
44,910,5,1.170700e+02,72,3,3,1,9.935880e-01,3,1,0,3.100000e+00,1
44,911,5,9.101000e+01,59,2,2,1,5.798444e-01,3,1,0,2.300000e+00,1
44,912,5,5.508000e+01,8,2,2,1,4.052232e-01,3,1,0,2.300000e+00,1
44,913,5,1.356000e+01,9,1,1,1,3.985455e-01,4,1,0,1.200000e+00,1
44,914,5,2.330000e+01,47,1,1,1,4.160999e-01,3,1,0,1.300000e+00,1
44,915,5,8.015000e+01,32,2,2,1,4.575787e-01,3,1,0,2.300000e+00,1
44,916,5,2.439000e+01,14,1,1,1,3.626472e-01,3,1,0,1.300000e+00,1
44,917,5,1.340800e+02,37,3,3,1,3.402284e-01,4,1,0,3.100000e+00,1
44,918,5,2.058000e+01,20,1,1,1,6.777474e-01,4,1,0,1.200000e+00,1
44,919,5,8.516000e+01,25,2,2,1,2.950646e-01,4,1,0,2.300000e+00,1
44,920,5,1.228900e+02,44,3,3,1,2.964899e-01,4,1,0,3.200000e+00,1
44,921,5,1.372400e+02,5,3,3,1,3.700474e-01,2,1,0,3.100000e+00,1
44,922,5,7.613000e+01,64,2,2,1,3.551980e-01,4,1,0,2.300000e+00,1
44,923,5,1.238700e+02,50,3,3,1,4.288880e-01,4,1,0,3.200000e+00,1
44,924,5,1.357600e+02,19,3,3,1,6.621203e-01,4,1,0,3.200000e+00,1
44,925,5,1.121800e+02,48,3,3,1,1.103524e+00,4,1,0,3.100000e+00,1
44,926,5,1.372400e+02,5,3,3,1,4.488970e-01,3,1,0,3.100000e+00,1
44,927,5,1.372400e+02,5,3,3,1,4.742978e-01,4,1,0,3.100000e+00,1
44,928,5,7.834000e+01,71,2,1,0,1.180025e+00,1,1,0,2.100000e+00,1
44,929,5,7.442000e+01,35,2,2,1,2.770743e-01,3,1,0,2.100000e+00,1
44,930,5,1.401500e+02,43,3,2,0,3.033094e-01,3,1,0,3.100000e+00,1
44,931,5,1.191700e+02,10,3,3,1,3.926144e-01,3,1,0,3.100000e+00,1
44,932,5,1.329100e+02,55,3,3,1,3.867026e-01,4,1,0,3.200000e+00,1
44,933,5,3.833000e+01,36,1,1,1,4.204222e-01,3,1,0,1.300000e+00,1
44,934,5,2.151000e+01,70,1,2,0,6.700256e-01,3,1,0,1.200000e+00,1
44,935,5,1.061200e+02,17,3,0,0,2.500076e+00,3,1,0,3.100000e+00,1
44,936,5,1.061200e+02,17,3,1,0,1.503237e-04,4,1,0,3.100000e+00,1
44,937,5,7.442000e+01,35,2,2,1,1.170609e+00,4,1,0,2.100000e+00,1
44,938,5,1.162000e+01,46,1,1,1,8.437249e-01,3,1,0,1.200000e+00,1
44,939,5,1.162000e+01,46,1,1,1,4.220111e-01,4,1,0,1.200000e+00,1
44,940,5,6.609000e+01,18,2,2,1,5.916617e-01,4,1,0,2.300000e+00,1
44,941,5,4.536000e+01,6,1,1,1,4.651124e-01,3,1,0,1.300000e+00,1
44,942,5,1.191700e+02,10,3,3,1,4.342052e-01,4,1,0,3.100000e+00,1
44,943,5,1.041900e+02,69,3,3,1,1.043584e+00,4,1,0,3.100000e+00,1
44,944,5,1.027200e+02,29,3,3,1,4.217120e-01,4,1,0,3.200000e+00,1
44,945,5,1.170700e+02,72,3,3,1,4.390662e-01,4,1,0,3.100000e+00,1
44,946,5,3.561000e+01,65,1,1,1,4.088306e-01,4,1,0,1.200000e+00,1
44,947,5,7.834000e+01,71,2,1,0,3.867835e-01,2,1,0,2.100000e+00,1
44,948,5,7.834000e+01,71,2,2,1,3.480335e-01,3,1,0,2.100000e+00,1
44,949,5,1.401500e+02,43,3,3,1,2.854934e-01,4,1,0,3.100000e+00,1
44,950,5,7.748000e+01,57,2,2,1,5.431817e-01,4,1,0,2.100000e+00,1
44,951,5,1.280600e+02,12,3,3,1,3.456579e-01,3,1,0,3.100000e+00,1
44,952,5,4.536000e+01,6,1,1,1,5.064061e-01,4,1,0,1.300000e+00,1
44,953,5,6.803000e+01,7,2,2,1,4.919141e-01,4,1,0,2.300000e+00,1
44,954,5,8.015000e+01,32,2,2,1,4.222095e-01,4,1,0,2.300000e+00,1
44,955,5,1.141400e+02,1,3,3,1,1.015625e+00,4,1,0,3.100000e+00,1
44,956,5,9.101000e+01,59,2,2,1,4.007011e-01,4,1,0,2.300000e+00,1
44,957,5,2.821000e+01,38,1,1,1,4.501189e-01,4,1,0,1.300000e+00,1
44,958,5,4.180000e+00,11,1,1,1,3.720750e-01,4,1,0,1.300000e+00,1
44,959,5,4.443000e+01,22,1,1,1,3.168872e-01,4,1,0,1.300000e+00,1
44,960,5,2.330000e+01,47,1,1,1,6.063382e-01,4,1,0,1.300000e+00,1
44,961,5,5.508000e+01,8,2,2,1,2.880407e-01,4,1,0,2.300000e+00,1
44,962,5,2.657000e+01,34,1,1,1,3.451824e-01,4,1,0,1.200000e+00,1
44,963,5,3.833000e+01,36,1,1,1,4.295364e-02,4,1,0,1.300000e+00,1
44,964,5,7.834000e+01,71,2,1,0,3.963595e-01,4,1,0,2.100000e+00,1
44,965,5,9.640000e+00,24,1,1,1,3.655582e-01,4,1,0,1.200000e+00,1
44,966,5,1.280600e+02,12,3,3,1,4.950721e-01,4,1,0,3.100000e+00,1
44,967,5,2.151000e+01,70,1,1,1,3.363091e-01,4,1,0,1.200000e+00,1
44,968,5,8.045000e+01,53,2,1,0,4.098304e-01,4,1,0,2.100000e+00,1
44,969,5,1.418500e+02,42,3,1,0,1.539747e+00,4,1,0,3.200000e+00,1
44,970,5,2.439000e+01,14,1,1,1,4.623447e-01,4,1,0,1.300000e+00,1
44,971,6,121,38,1,2,0,1.112826e+00,NaN,2,0,3,1
44,972,6,41,60,2,2,1,1.082958e+00,NaN,2,0,1,1
44,973,6,19,69,2,2,1,9.097131e-01,NaN,2,0,1,1
44,974,6,12,17,1,1,1,2.647888e+00,NaN,2,0,1,1
44,975,6,125,2,2,2,1,1.571664e+00,NaN,2,0,3,1
44,976,6,72,29,2,1,0,1.010879e+00,NaN,2,0,2,1
44,977,6,136,6,2,2,1,2.056973e+00,NaN,2,0,3,1
44,978,6,60,4,1,2,0,8.930879e-01,NaN,2,1,2,1
44,979,6,96,66,2,2,1,6.238995e-01,NaN,2,1,2,1
44,980,6,94,39,2,2,1,1.341051e+00,NaN,2,0,2,1
44,981,6,64,24,1,1,1,9.976899e-01,NaN,2,0,2,1
44,982,6,17,10,1,1,1,1.307730e+00,NaN,2,0,1,1
44,983,6,107,33,2,2,1,1.062135e+00,NaN,2,0,3,1
44,984,6,31,31,1,1,1,1.041230e+00,NaN,2,0,1,1
44,985,6,89,44,1,1,1,1.413888e+00,NaN,2,0,2,1
44,986,6,51,70,1,1,1,1.067458e+00,NaN,2,0,2,1
44,987,6,113,64,1,1,1,1.134825e+00,NaN,2,0,3,1
44,988,6,139,14,1,1,1,7.518895e-01,NaN,2,0,3,1
44,989,6,88,52,2,1,0,6.715572e-01,NaN,2,1,2,1
44,990,6,91,55,1,2,0,7.706208e-01,NaN,2,0,2,1
44,991,6,39,28,2,2,1,1.217987e+00,NaN,2,1,1,1
44,992,6,14,1,2,2,1,1.847646e+00,NaN,2,0,1,1
44,993,6,83,51,2,2,1,1.163687e+00,NaN,2,1,2,1
44,994,6,24,5,2,2,1,2.562766e+00,NaN,2,0,1,1
44,995,6,71,54,1,1,1,9.222654e-01,NaN,2,1,2,1
44,996,6,115,32,1,1,1,1.987663e+00,NaN,2,0,3,1
44,997,6,97,58,2,2,1,1.210421e+00,NaN,2,0,3,1
44,998,6,59,63,2,2,1,1.288620e+00,NaN,2,0,2,1
44,999,6,58,20,1,2,0,1.355448e+00,NaN,2,0,2,1
44,1000,6,101,59,2,1,0,1.282956e+00,NaN,2,0,3,1
44,1001,6,25,49,2,2,1,2.861743e+00,NaN,2,0,1,1
44,1002,6,34,71,1,1,1,1.665347e+00,NaN,2,0,1,1
44,1003,6,85,42,2,2,1,7.006968e-01,NaN,2,0,2,1
44,1004,6,92,16,1,1,1,8.224499e-01,NaN,2,1,2,1
44,1005,6,61,65,1,1,1,8.041648e-01,NaN,2,0,2,1
44,1006,6,95,45,2,2,1,8.741229e-01,NaN,2,1,2,1
44,1007,6,33,67,2,2,1,1.109380e+00,NaN,2,1,1,1
44,1008,6,103,7,1,1,1,2.079338e+00,NaN,2,0,3,1
44,1009,6,48,57,2,1,0,1.058043e+00,NaN,2,0,1,1
44,1010,6,15,43,2,2,1,8.220318e-01,NaN,2,0,1,1
44,1011,6,116,25,2,0,0,3.500082e+00,NaN,2,0,3,1
44,1012,6,105,15,1,2,0,1.829643e+00,NaN,2,1,3,1
44,1013,6,55,56,2,2,1,7.700618e-01,NaN,2,1,2,1
44,1014,6,109,18,2,2,1,1.769661e+00,NaN,2,0,3,1
44,1015,6,30,61,2,2,1,1.433007e+00,NaN,2,0,1,1
44,1016,6,108,8,1,1,1,1.477764e+00,NaN,2,0,3,1
44,1017,6,45,53,2,2,1,1.385603e+00,NaN,2,0,1,1
44,1018,6,62,46,2,1,0,6.879313e-01,NaN,2,0,2,1
44,1019,6,46,26,1,1,1,7.862989e-01,NaN,2,0,1,1
44,1020,6,8,37,2,2,1,8.732451e-01,NaN,2,0,1,1
44,1021,6,138,68,1,1,1,1.052524e+00,NaN,2,1,3,1
44,1022,6,47,40,1,1,1,8.962782e-01,NaN,2,1,1,1
44,1023,6,87,50,2,2,1,8.183549e-01,NaN,2,0,2,1
44,1024,6,18,48,2,2,1,1.216018e+00,NaN,2,0,1,1
44,1025,6,7,72,2,2,1,1.317417e+00,NaN,2,0,1,1
44,1026,6,56,9,1,1,1,1.174528e+00,NaN,2,0,2,1
44,1027,6,4,27,2,1,0,1.213799e+00,NaN,2,0,1,1
44,1028,6,118,11,2,2,1,1.963113e+00,NaN,2,0,3,1
44,1029,6,131,30,1,1,1,7.467390e-01,NaN,2,0,3,1
44,1030,6,57,34,1,2,0,8.985638e-01,NaN,2,0,2,1
44,1031,6,130,47,1,1,1,1.260674e+00,NaN,2,0,3,1
44,1032,6,42,35,1,1,1,8.809219e-01,NaN,2,0,1,1
44,1033,6,50,62,1,1,1,1.307879e+00,NaN,2,1,2,1
44,1034,6,6,12,2,2,1,1.173720e+00,NaN,2,0,1,1
44,1035,6,142,21,2,2,1,9.968372e-01,NaN,2,0,3,1
44,1036,6,143,22,2,2,1,1.098726e+00,NaN,2,0,3,1
44,1037,6,98,23,1,1,1,1.148979e+00,NaN,2,1,3,1
44,1038,6,99,41,1,1,1,1.892808e+00,NaN,2,1,3,1
44,1039,6,133,36,2,2,1,1.607733e+00,NaN,2,0,3,1
44,1040,6,127,13,1,1,1,1.477356e+00,NaN,2,1,3,1
44,1041,6,2,3,2,2,1,1.177367e+00,NaN,2,1,1,1
44,1042,6,76,19,2,2,1,1.008469e+00,NaN,2,0,2,1
44,1043,6,102,29,1,1,1,1.014292e+00,NaN,1,0,3,1
44,1044,6,37,36,2,2,1,9.319013e-01,NaN,1,0,1,1
44,1045,6,65,18,1,1,1,1.140584e+00,NaN,1,0,2,1
44,1046,6,78,71,2,2,1,1.165507e+00,NaN,1,0,2,1
44,1047,6,3,11,2,2,1,1.260427e+00,NaN,1,0,1,1
44,1048,6,119,10,2,2,1,1.248518e+00,NaN,1,0,3,1
44,1049,6,144,52,2,2,1,1.188749e+00,NaN,1,1,3,1
44,1050,6,128,12,1,1,1,1.379160e+00,NaN,1,0,3,1
44,1051,6,86,60,2,2,1,1.754116e+00,NaN,1,0,2,1
44,1052,6,67,7,1,1,1,1.265897e+00,NaN,1,0,2,1
44,1053,6,38,62,2,2,1,8.775469e-01,NaN,1,1,1,1
44,1054,6,11,46,2,2,1,8.407109e-01,NaN,1,0,1,1
44,1055,6,49,15,2,2,1,9.253232e-01,NaN,1,1,2,1
44,1056,6,110,39,2,2,1,1.078697e+00,NaN,1,0,3,1
44,1057,6,52,41,1,1,1,7.776619e-01,NaN,1,1,2,1
44,1058,6,16,54,2,2,1,1.000698e+00,NaN,1,1,1,1
44,1059,6,124,51,2,2,1,8.470052e-01,NaN,1,1,3,1
44,1060,6,43,22,2,2,1,1.610986e+00,NaN,1,0,1,1
44,1061,6,120,3,1,1,1,8.008027e-01,NaN,1,1,3,1
44,1062,6,123,50,1,1,1,1.263173e+00,NaN,1,0,3,1
44,1063,6,111,27,1,2,0,1.121986e+00,NaN,1,0,3,1
44,1064,6,80,53,1,1,1,1.083474e+00,NaN,1,0,2,1
44,1065,6,53,61,1,1,1,7.183695e-01,NaN,1,0,2,1
44,1066,6,134,37,1,1,1,1.079953e+00,NaN,1,0,3,1
44,1067,6,132,55,2,2,1,1.410658e+00,NaN,1,0,3,1
44,1068,6,27,38,1,1,1,2.200496e+00,NaN,1,0,1,1
44,1069,6,135,19,1,1,1,7.986991e-01,NaN,1,0,3,1
44,1070,6,54,8,2,2,1,7.483596e-01,NaN,1,0,2,1
44,1071,6,36,56,1,2,0,1.364546e+00,NaN,1,1,1,1
44,1072,6,22,47,2,2,1,1.235841e+00,NaN,1,0,1,1
44,1073,6,81,49,2,2,1,6.967711e-01,NaN,1,0,2,1
44,1074,6,79,32,1,1,1,7.546135e-01,NaN,1,0,2,1
44,1075,6,44,6,1,1,1,2.234751e+00,NaN,1,0,1,1
44,1076,6,1,63,1,1,1,7.832278e-01,NaN,1,0,1,1
44,1077,6,35,65,2,2,1,1.109897e+00,NaN,1,0,1,1
44,1078,6,29,2,2,2,1,1.680273e+00,NaN,1,0,1,1
44,1079,6,9,24,1,1,1,1.314525e+00,NaN,1,0,1,1
44,1080,6,126,45,2,2,1,1.380214e+00,NaN,1,1,3,1
44,1081,6,10,4,2,2,1,1.066828e+00,NaN,1,1,1,1
44,1082,6,84,25,2,2,1,1.054681e+00,NaN,1,0,2,1
44,1083,6,112,48,1,1,1,9.061274e-01,NaN,1,0,3,1
44,1084,6,5,13,2,2,1,9.570436e-01,NaN,1,1,1,1
44,1085,6,63,31,1,1,1,1.468616e+00,NaN,1,0,2,1
44,1086,6,82,23,2,2,1,6.795823e-01,NaN,1,1,2,1
44,1087,6,66,67,2,2,1,7.221692e-01,NaN,1,1,2,1
44,1088,6,114,1,1,1,1,1.099680e+00,NaN,1,0,3,1
44,1089,6,26,34,2,2,1,1.429597e+00,NaN,1,0,1,1
44,1090,6,40,68,1,1,1,1.474507e+00,NaN,1,1,1,1
44,1091,6,69,40,1,1,1,1.053925e+00,NaN,1,1,2,1
44,1092,6,104,69,1,1,1,1.889525e+00,NaN,1,0,3,1
44,1093,6,32,30,1,1,1,1.164417e+00,NaN,1,0,1,1
44,1094,6,70,26,1,1,1,1.179969e+00,NaN,1,0,2,1
44,1095,6,137,5,1,1,1,1.027014e+00,NaN,1,0,3,1
44,1096,6,122,44,1,1,1,8.797030e-01,NaN,1,0,3,1
44,1097,6,13,9,2,2,1,8.829392e-01,NaN,1,0,1,1
44,1098,6,140,43,2,2,1,9.891673e-01,NaN,1,0,3,1
44,1099,6,23,14,2,2,1,1.419868e+00,NaN,1,0,1,1
44,1100,6,74,35,1,1,1,7.934072e-01,NaN,1,0,2,1
44,1101,6,129,66,1,1,1,1.335959e+00,NaN,1,1,3,1
44,1102,6,68,33,2,2,1,5.926451e-01,NaN,1,0,2,1
44,1103,6,90,59,2,1,0,6.953388e-01,NaN,1,0,2,1
44,1104,6,77,57,1,1,1,8.735289e-01,NaN,1,0,2,1
44,1105,6,100,16,2,2,1,1.061297e+00,NaN,1,1,3,1
44,1106,6,73,28,2,1,0,1.713204e+00,NaN,1,1,2,1
44,1107,6,75,64,2,2,1,6.181392e-01,NaN,1,0,2,1
44,1108,6,28,21,1,1,1,6.718467e-01,NaN,1,0,1,1
44,1109,6,141,42,2,2,1,1.179149e+00,NaN,1,0,3,1
44,1110,6,106,17,2,1,0,1.441460e+00,NaN,1,0,3,1
44,1111,6,93,58,1,1,1,9.743598e-01,NaN,1,0,2,1
44,1112,6,21,70,1,1,1,1.237537e+00,NaN,1,0,1,1
44,1113,6,117,72,1,2,0,1.338506e+00,NaN,1,0,3,1
44,1114,6,20,20,2,2,1,1.203316e+00,NaN,1,0,1,1
