Subject,Trial,Cond,ImageNum,CueNum,Correct,Resp,Accuracy,RT,CueRep,ImageType,Baseline,Category,Block
35,1,1,7,NaN,NaN,1,NaN,7.336376e-01,NaN,2,0,1,1
35,2,1,20,NaN,NaN,1,NaN,5.917516e-01,NaN,1,0,1,1
35,3,1,72,NaN,NaN,1,NaN,3.539132e-01,NaN,0,0,2,1
35,4,1,143,NaN,NaN,2,NaN,5.810850e-01,NaN,0,0,3,1
35,5,1,61,NaN,NaN,1,NaN,6.724176e-01,NaN,0,0,2,1
35,6,1,84,NaN,NaN,1,NaN,3.183191e-01,NaN,1,0,2,1
35,7,1,30,NaN,NaN,2,NaN,4.588248e-01,NaN,2,1,1,1
35,8,1,8,NaN,NaN,1,NaN,1.017933e+00,NaN,0,0,1,1
35,9,1,40,NaN,NaN,1,NaN,1.146700e+00,NaN,1,0,1,1
35,10,1,24,NaN,NaN,1,NaN,4.223603e-01,NaN,1,0,1,1
35,11,1,109,NaN,NaN,1,NaN,6.548919e-01,NaN,0,0,3,1
35,12,1,19,NaN,NaN,1,NaN,7.743887e-01,NaN,0,0,1,1
35,13,1,111,NaN,NaN,1,NaN,2.809565e-01,NaN,0,0,3,1
35,14,1,103,NaN,NaN,1,NaN,2.468741e-01,NaN,2,1,3,1
35,15,1,79,NaN,NaN,1,NaN,5.505148e-01,NaN,1,0,2,1
35,16,1,103,NaN,NaN,1,NaN,4.575683e-01,NaN,0,1,3,1
35,17,1,29,NaN,NaN,1,NaN,3.613376e-01,NaN,0,0,1,1
35,18,1,108,NaN,NaN,2,NaN,1.979772e+00,NaN,0,0,3,1
35,19,1,13,NaN,NaN,1,NaN,3.181314e-01,NaN,2,0,1,1
35,20,1,74,NaN,NaN,1,NaN,3.306615e-01,NaN,2,0,2,1
35,21,1,63,NaN,NaN,1,NaN,2.466716e-01,NaN,0,1,2,1
35,22,1,46,NaN,NaN,2,NaN,2.861498e-01,NaN,0,0,1,1
35,23,1,140,NaN,NaN,1,NaN,3.628227e-02,NaN,0,1,3,1
35,24,1,69,NaN,NaN,1,NaN,3.319969e-01,NaN,0,0,2,1
35,25,1,108,NaN,NaN,1,NaN,6.722911e-01,NaN,1,0,3,1
35,26,1,82,NaN,NaN,1,NaN,3.027264e-01,NaN,0,0,2,1
35,27,1,117,NaN,NaN,2,NaN,1.324000e-01,NaN,0,0,3,1
35,28,1,116,NaN,NaN,1,NaN,1.521198e-01,NaN,0,0,3,1
35,29,1,31,NaN,NaN,1,NaN,4.034174e-01,NaN,0,0,1,1
35,30,1,77,NaN,NaN,1,NaN,2.770461e-01,NaN,0,0,2,1
35,31,1,115,NaN,NaN,2,NaN,2.832976e-01,NaN,0,0,3,1
35,32,1,43,NaN,NaN,1,NaN,3.056362e-01,NaN,1,0,1,1
35,33,1,1,NaN,NaN,1,NaN,1.110240e-01,NaN,0,0,1,1
35,34,1,52,NaN,NaN,1,NaN,2.772194e-01,NaN,1,0,2,1
35,35,1,30,NaN,NaN,2,NaN,4.428485e-01,NaN,0,1,1,1
35,36,1,89,NaN,NaN,1,NaN,2.590094e-01,NaN,0,0,2,1
35,37,1,75,NaN,NaN,1,NaN,2.503664e-01,NaN,1,0,2,1
35,38,1,91,NaN,NaN,2,NaN,2.019850e-01,NaN,0,1,2,1
35,39,1,119,NaN,NaN,1,NaN,1.227428e+00,NaN,0,0,3,1
35,40,1,27,NaN,NaN,1,NaN,3.240357e-01,NaN,0,0,1,1
35,41,1,42,NaN,NaN,2,NaN,3.370087e-01,NaN,2,0,1,1
35,42,1,126,NaN,NaN,1,NaN,3.728569e-01,NaN,0,1,3,1
35,43,1,48,NaN,NaN,1,NaN,2.874896e-01,NaN,2,0,1,1
35,44,1,144,NaN,NaN,1,NaN,3.094367e-01,NaN,2,0,3,1
35,45,1,128,NaN,NaN,1,NaN,5.469304e-01,NaN,0,1,3,1
35,46,1,106,NaN,NaN,1,NaN,2.462737e-01,NaN,1,0,3,1
35,47,1,37,NaN,NaN,2,NaN,2.138554e-01,NaN,1,1,1,1
35,48,1,105,NaN,NaN,1,NaN,1.342585e-01,NaN,2,1,3,1
35,49,1,82,NaN,NaN,1,NaN,4.900908e-01,NaN,2,0,2,1
35,50,1,11,NaN,NaN,1,NaN,1.246613e-04,NaN,0,0,1,1
35,51,1,124,NaN,NaN,1,NaN,1.633504e+00,NaN,1,0,3,1
35,52,1,139,NaN,NaN,2,NaN,4.018339e-01,NaN,0,0,3,1
35,53,1,62,NaN,NaN,1,NaN,1.240578e-04,NaN,2,1,2,1
35,54,1,65,NaN,NaN,1,NaN,1.192279e-04,NaN,1,0,2,1
35,55,1,129,NaN,NaN,2,NaN,1.422220e-01,NaN,1,0,3,1
35,56,1,19,NaN,NaN,1,NaN,2.097376e-01,NaN,1,0,1,1
35,57,1,67,NaN,NaN,1,NaN,1.632421e-01,NaN,2,0,2,1
35,58,1,116,NaN,NaN,1,NaN,1.421221e-01,NaN,1,0,3,1
35,59,1,107,NaN,NaN,1,NaN,7.426392e-02,NaN,2,0,3,1
35,60,1,143,NaN,NaN,1,NaN,4.648599e-01,NaN,1,0,3,1
35,61,1,137,NaN,NaN,1,NaN,1.204358e-04,NaN,2,0,3,1
35,62,1,98,NaN,NaN,1,NaN,1.246622e-04,NaN,2,1,3,1
35,63,1,106,NaN,NaN,1,NaN,1.863079e-01,NaN,0,0,3,1
35,64,1,140,NaN,NaN,1,NaN,2.681064e-01,NaN,2,1,3,1
35,65,1,77,NaN,NaN,1,NaN,1.870860e-01,NaN,1,0,2,1
35,66,1,54,NaN,NaN,1,NaN,2.369513e-01,NaN,0,1,2,1
35,67,1,61,NaN,NaN,2,NaN,5.092331e-01,NaN,2,0,2,1
35,68,1,24,NaN,NaN,1,NaN,2.423220e-01,NaN,0,0,1,1
35,69,1,59,NaN,NaN,1,NaN,1.252647e-04,NaN,1,1,2,1
35,70,1,113,NaN,NaN,1,NaN,1.252647e-04,NaN,0,0,3,1
35,71,1,51,NaN,NaN,1,NaN,2.903590e-02,NaN,0,0,2,1
35,72,1,121,NaN,NaN,1,NaN,5.218584e-03,NaN,1,0,3,1
35,73,1,55,NaN,NaN,1,NaN,3.025755e-01,NaN,0,0,2,1
35,74,1,69,NaN,NaN,1,NaN,2.277897e-01,NaN,2,0,2,1
35,75,1,14,NaN,NaN,1,NaN,1.249630e-04,NaN,0,1,1,1
35,76,1,40,NaN,NaN,1,NaN,2.859442e-01,NaN,0,0,1,1
35,77,1,58,NaN,NaN,1,NaN,1.478345e-01,NaN,1,0,2,1
35,78,1,32,NaN,NaN,1,NaN,9.527590e-02,NaN,1,1,1,1
35,79,1,134,NaN,NaN,2,NaN,6.884160e-02,NaN,0,0,3,1
35,80,1,123,NaN,NaN,1,NaN,1.228508e-04,NaN,0,1,3,1
35,81,1,60,NaN,NaN,1,NaN,1.237560e-04,NaN,1,0,2,1
35,82,1,64,NaN,NaN,1,NaN,1.207376e-04,NaN,0,1,2,1
35,83,1,80,NaN,NaN,1,NaN,1.255674e-04,NaN,1,1,2,1
35,84,1,112,NaN,NaN,1,NaN,1.255674e-04,NaN,1,0,3,1
35,85,1,65,NaN,NaN,1,NaN,1.258692e-04,NaN,0,0,2,1
35,86,1,44,NaN,NaN,1,NaN,1.276797e-04,NaN,0,0,1,1
35,87,1,29,NaN,NaN,1,NaN,1.240578e-04,NaN,1,0,1,1
35,88,1,23,NaN,NaN,1,NaN,1.273789e-04,NaN,2,0,1,1
35,89,1,2,NaN,NaN,1,NaN,1.288876e-04,NaN,1,0,1,1
35,90,1,130,NaN,NaN,2,NaN,1.261709e-04,NaN,1,0,3,1
35,91,1,127,NaN,NaN,1,NaN,1.276806e-04,NaN,2,1,3,1
35,92,1,10,NaN,NaN,1,NaN,1.300946e-04,NaN,0,0,1,1
35,93,1,126,NaN,NaN,1,NaN,1.249639e-04,NaN,1,1,3,1
35,94,1,26,NaN,NaN,1,NaN,1.530349e-04,NaN,0,1,1,1
35,95,1,142,NaN,NaN,1,NaN,1.261709e-04,NaN,2,0,3,1
35,96,1,111,NaN,NaN,1,NaN,1.319060e-04,NaN,1,0,3,1
35,97,1,88,NaN,NaN,1,NaN,1.279823e-04,NaN,0,0,2,1
35,98,1,60,NaN,NaN,1,NaN,2.119797e-01,NaN,0,0,2,1
35,99,1,16,NaN,NaN,1,NaN,1.593744e-04,NaN,1,0,1,1
35,100,1,109,NaN,NaN,1,NaN,1.243595e-04,NaN,2,0,3,1
35,101,1,144,NaN,NaN,1,NaN,1.346227e-04,NaN,0,0,3,1
35,102,1,37,NaN,NaN,2,NaN,1.261709e-04,NaN,0,1,1,1
35,103,1,22,NaN,NaN,2,NaN,4.422186e-01,NaN,0,0,1,1
35,104,1,83,NaN,NaN,1,NaN,1.270771e-04,NaN,0,1,2,1
35,105,1,67,NaN,NaN,1,NaN,1.264727e-04,NaN,0,0,2,1
35,106,1,6,NaN,NaN,1,NaN,1.249639e-04,NaN,0,0,1,1
35,107,1,62,NaN,NaN,1,NaN,1.503183e-04,NaN,0,1,2,1
35,108,1,10,NaN,NaN,1,NaN,1.210393e-04,NaN,2,0,1,1
35,109,1,114,NaN,NaN,1,NaN,1.572613e-04,NaN,0,0,3,1
35,110,1,13,NaN,NaN,1,NaN,1.237560e-04,NaN,0,0,1,1
35,111,1,49,NaN,NaN,1,NaN,1.291893e-04,NaN,0,0,2,1
35,112,1,131,NaN,NaN,1,NaN,1.282841e-04,NaN,2,0,3,1
35,113,1,122,NaN,NaN,1,NaN,1.291893e-04,NaN,2,0,3,1
35,114,1,44,NaN,NaN,1,NaN,1.234543e-04,NaN,1,0,1,1
35,115,1,96,NaN,NaN,1,NaN,1.270771e-04,NaN,0,0,2,1
35,116,1,34,NaN,NaN,1,NaN,1.252657e-04,NaN,0,0,1,1
35,117,1,50,NaN,NaN,1,NaN,1.246613e-04,NaN,1,1,2,1
35,118,1,70,NaN,NaN,1,NaN,1.255674e-04,NaN,0,0,2,1
35,119,1,91,NaN,NaN,2,NaN,1.588047e-01,NaN,1,1,2,1
35,120,1,96,NaN,NaN,1,NaN,1.219446e-04,NaN,2,0,2,1
35,121,1,93,NaN,NaN,1,NaN,1.294911e-04,NaN,0,0,2,1
35,122,1,25,NaN,NaN,1,NaN,1.261709e-04,NaN,0,1,1,1
35,123,1,117,NaN,NaN,1,NaN,1.258692e-04,NaN,2,0,3,1
35,124,1,93,NaN,NaN,1,NaN,1.297928e-04,NaN,1,0,2,1
35,125,1,3,NaN,NaN,2,NaN,1.288876e-04,NaN,0,0,1,1
35,126,1,9,NaN,NaN,1,NaN,1.400551e-04,NaN,0,0,1,1
35,127,1,66,NaN,NaN,1,NaN,1.258692e-04,NaN,2,0,2,1
35,128,1,57,NaN,NaN,1,NaN,1.228508e-04,NaN,1,0,2,1
35,129,1,12,NaN,NaN,1,NaN,6.865385e-01,NaN,0,0,1,1
35,130,1,87,NaN,NaN,1,NaN,7.673784e-02,NaN,0,0,2,1
35,131,1,104,NaN,NaN,1,NaN,1.249630e-04,NaN,1,0,3,1
35,132,1,76,NaN,NaN,1,NaN,1.237560e-04,NaN,2,0,2,1
35,133,1,94,NaN,NaN,1,NaN,1.255674e-04,NaN,1,0,2,1
35,134,1,9,NaN,NaN,1,NaN,1.207376e-04,NaN,2,0,1,1
35,135,1,85,NaN,NaN,1,NaN,1.258692e-04,NaN,2,1,2,1
35,136,1,68,NaN,NaN,1,NaN,1.267744e-04,NaN,0,0,2,1
35,137,1,50,NaN,NaN,1,NaN,1.617884e-04,NaN,0,1,2,1
35,138,1,120,NaN,NaN,1,NaN,1.261709e-04,NaN,0,1,3,1
35,139,1,39,NaN,NaN,2,NaN,1.476016e-04,NaN,0,0,1,1
35,140,1,18,NaN,NaN,1,NaN,8.476460e-01,NaN,1,0,1,1
35,141,1,98,NaN,NaN,1,NaN,6.400816e-02,NaN,0,1,3,1
35,142,1,134,NaN,NaN,1,NaN,9.370782e-02,NaN,2,0,3,1
35,143,1,66,NaN,NaN,1,NaN,1.153516e-01,NaN,0,0,2,1
35,144,1,87,NaN,NaN,1,NaN,1.273779e-04,NaN,2,0,2,1
35,145,1,28,NaN,NaN,2,NaN,2.108227e-01,NaN,2,0,1,1
35,146,1,141,NaN,NaN,1,NaN,1.066587e-01,NaN,1,0,3,1
35,147,1,123,NaN,NaN,1,NaN,1.270762e-04,NaN,2,1,3,1
35,148,1,47,NaN,NaN,1,NaN,1.273779e-04,NaN,1,0,1,1
35,149,1,73,NaN,NaN,1,NaN,1.261709e-04,NaN,2,0,2,1
35,150,1,56,NaN,NaN,1,NaN,1.270762e-04,NaN,0,0,2,1
35,151,1,86,NaN,NaN,1,NaN,1.258692e-04,NaN,2,1,2,1
35,152,1,5,NaN,NaN,1,NaN,1.261709e-04,NaN,1,0,1,1
35,153,1,95,NaN,NaN,1,NaN,1.231525e-04,NaN,0,1,2,1
35,154,1,138,NaN,NaN,1,NaN,1.204358e-04,NaN,2,1,3,1
35,155,1,15,NaN,NaN,1,NaN,1.451876e-04,NaN,2,1,1,1
35,156,1,84,NaN,NaN,1,NaN,1.216438e-04,NaN,0,0,2,1
35,157,1,8,NaN,NaN,1,NaN,1.551481e-04,NaN,2,0,1,1
35,158,1,118,NaN,NaN,1,NaN,1.249630e-04,NaN,1,0,3,1
35,159,1,115,NaN,NaN,2,NaN,1.726551e-04,NaN,2,0,3,1
35,160,1,104,NaN,NaN,1,NaN,1.252657e-04,NaN,0,0,3,1
35,161,1,100,NaN,NaN,1,NaN,1.219455e-04,NaN,0,0,3,1
35,162,1,124,NaN,NaN,2,NaN,1.234543e-04,NaN,0,0,3,1
35,163,1,72,NaN,NaN,1,NaN,1.213420e-04,NaN,1,0,2,1
35,164,1,17,NaN,NaN,1,NaN,1.210393e-04,NaN,2,0,1,1
35,165,1,129,NaN,NaN,1,NaN,1.267744e-04,NaN,0,0,3,1
35,166,1,42,NaN,NaN,1,NaN,1.270771e-04,NaN,0,0,1,1
35,167,1,137,NaN,NaN,1,NaN,1.267754e-04,NaN,0,0,3,1
35,168,1,51,NaN,NaN,1,NaN,6.118260e-02,NaN,2,0,2,1
35,169,1,130,NaN,NaN,1,NaN,5.879477e-01,NaN,0,0,3,1
35,170,1,16,NaN,NaN,1,NaN,1.563560e-04,NaN,0,0,1,1
35,171,1,22,NaN,NaN,1,NaN,1.273779e-04,NaN,1,0,1,1
35,172,1,113,NaN,NaN,1,NaN,1.584683e-04,NaN,1,0,3,1
35,173,1,2,NaN,NaN,1,NaN,1.273779e-04,NaN,0,0,1,1
35,174,1,39,NaN,NaN,1,NaN,1.349244e-04,NaN,2,0,1,1
35,175,1,38,NaN,NaN,1,NaN,1.258692e-04,NaN,0,0,1,1
35,176,1,33,NaN,NaN,1,NaN,1.249630e-04,NaN,0,0,1,1
35,177,1,102,NaN,NaN,1,NaN,1.252657e-04,NaN,2,0,3,1
35,178,1,59,NaN,NaN,1,NaN,1.279823e-04,NaN,0,1,2,1
35,179,1,138,NaN,NaN,1,NaN,1.264727e-04,NaN,0,1,3,1
35,180,1,80,NaN,NaN,1,NaN,1.255674e-04,NaN,0,1,2,1
35,181,1,33,NaN,NaN,1,NaN,1.252657e-04,NaN,2,0,1,1
35,182,1,95,NaN,NaN,1,NaN,3.263672e-01,NaN,1,1,2,1
35,183,1,139,NaN,NaN,1,NaN,1.261700e-04,NaN,2,0,3,1
35,184,1,110,NaN,NaN,1,NaN,1.261709e-04,NaN,1,0,3,1
35,185,1,34,NaN,NaN,1,NaN,1.252647e-04,NaN,2,0,1,1
35,186,1,90,NaN,NaN,1,NaN,1.264727e-04,NaN,0,0,2,1
35,187,1,12,NaN,NaN,1,NaN,1.252657e-04,NaN,2,0,1,1
35,188,1,142,NaN,NaN,1,NaN,1.267744e-04,NaN,0,0,3,1
35,189,1,70,NaN,NaN,1,NaN,1.210393e-04,NaN,2,0,2,1
35,190,1,14,NaN,NaN,1,NaN,2.846384e-01,NaN,1,1,1,1
35,191,1,28,NaN,NaN,1,NaN,1.225490e-04,NaN,0,0,1,1
35,192,1,128,NaN,NaN,1,NaN,1.207376e-04,NaN,1,1,3,1
35,193,1,3,NaN,NaN,1,NaN,1.207376e-04,NaN,2,0,1,1
35,194,1,107,NaN,NaN,1,NaN,1.279814e-04,NaN,0,0,3,1
35,195,1,23,NaN,NaN,1,NaN,1.270762e-04,NaN,0,0,1,1
35,196,1,94,NaN,NaN,1,NaN,1.463946e-04,NaN,0,0,2,1
35,197,1,35,NaN,NaN,1,NaN,1.291893e-04,NaN,1,1,1,1
35,198,1,141,NaN,NaN,1,NaN,1.282832e-04,NaN,0,0,3,1
35,199,1,136,NaN,NaN,1,NaN,1.297928e-04,NaN,0,0,3,1
35,200,1,125,NaN,NaN,1,NaN,1.476025e-04,NaN,0,1,3,1
35,201,1,110,NaN,NaN,1,NaN,1.234543e-04,NaN,0,0,3,1
35,202,1,53,NaN,NaN,1,NaN,1.476016e-04,NaN,0,1,2,1
35,203,1,41,NaN,NaN,1,NaN,1.258692e-04,NaN,1,0,1,1
35,204,1,133,NaN,NaN,1,NaN,1.270762e-04,NaN,1,0,3,1
35,205,1,45,NaN,NaN,1,NaN,1.252657e-04,NaN,0,0,1,1
35,206,1,131,NaN,NaN,1,NaN,1.273779e-04,NaN,0,0,3,1
35,207,1,112,NaN,NaN,1,NaN,1.258692e-04,NaN,0,0,3,1
35,208,1,36,NaN,NaN,2,NaN,5.139159e-01,NaN,1,1,1,1
35,209,1,136,NaN,NaN,1,NaN,1.198323e-04,NaN,2,0,3,1
35,210,1,35,NaN,NaN,1,NaN,1.285858e-04,NaN,0,1,1,1
35,211,1,46,NaN,NaN,2,NaN,3.854450e-01,NaN,1,0,1,1
35,212,1,119,NaN,NaN,1,NaN,3.874082e-01,NaN,2,0,3,1
35,213,1,97,NaN,NaN,1,NaN,1.231525e-04,NaN,1,1,3,1
35,214,1,133,NaN,NaN,1,NaN,1.325095e-04,NaN,0,0,3,1
35,215,1,5,NaN,NaN,1,NaN,1.201332e-04,NaN,0,0,1,1
35,216,1,63,NaN,NaN,1,NaN,1.255674e-04,NaN,2,1,2,1
35,217,1,21,NaN,NaN,1,NaN,1.264727e-04,NaN,1,1,1,1
35,218,1,11,NaN,NaN,1,NaN,1.255674e-04,NaN,1,0,1,1
35,219,1,7,NaN,NaN,1,NaN,8.533007e-01,NaN,0,0,1,1
35,220,1,99,NaN,NaN,1,NaN,1.270762e-04,NaN,2,0,3,1
35,221,1,135,NaN,NaN,1,NaN,1.254292e+00,NaN,2,0,3,1
35,222,1,121,NaN,NaN,1,NaN,2.221199e+00,NaN,0,0,3,1
35,223,1,26,NaN,NaN,1,NaN,6.248536e-02,NaN,1,1,1,1
35,224,1,101,NaN,NaN,1,NaN,5.729935e-01,NaN,1,0,3,1
35,225,1,118,NaN,NaN,1,NaN,1.243595e-04,NaN,0,0,3,1
35,226,1,132,NaN,NaN,2,NaN,1.240578e-04,NaN,0,0,3,1
35,227,1,56,NaN,NaN,1,NaN,1.545446e-04,NaN,1,0,2,1
35,228,1,38,NaN,NaN,1,NaN,1.584683e-04,NaN,2,0,1,1
35,229,1,92,NaN,NaN,1,NaN,1.210403e-04,NaN,2,0,2,1
35,230,1,99,NaN,NaN,1,NaN,1.285858e-04,NaN,0,0,3,1
35,231,1,86,NaN,NaN,1,NaN,1.282832e-04,NaN,0,1,2,1
35,232,1,120,NaN,NaN,1,NaN,1.243595e-04,NaN,2,1,3,1
35,233,1,71,NaN,NaN,1,NaN,1.255674e-04,NaN,0,0,2,1
35,234,1,90,NaN,NaN,1,NaN,1.204358e-04,NaN,2,0,2,1
35,235,1,55,NaN,NaN,1,NaN,1.279814e-04,NaN,1,0,2,1
35,236,1,105,NaN,NaN,1,NaN,4.624922e-01,NaN,0,1,3,1
35,237,1,21,NaN,NaN,1,NaN,1.237560e-04,NaN,0,1,1,1
35,238,1,97,NaN,NaN,1,NaN,1.285858e-04,NaN,0,1,3,1
35,239,1,15,NaN,NaN,1,NaN,1.288876e-04,NaN,0,1,1,1
35,240,1,100,NaN,NaN,1,NaN,1.240578e-04,NaN,1,0,3,1
35,241,1,92,NaN,NaN,1,NaN,5.869993e-02,NaN,0,0,2,1
35,242,1,4,NaN,NaN,1,NaN,7.432489e-02,NaN,0,1,1,1
35,243,1,47,NaN,NaN,1,NaN,1.252647e-04,NaN,0,0,1,1
35,244,1,25,NaN,NaN,1,NaN,1.222463e-04,NaN,2,1,1,1
35,245,1,114,NaN,NaN,1,NaN,1.201341e-04,NaN,1,0,3,1
35,246,1,32,NaN,NaN,1,NaN,1.255665e-04,NaN,0,1,1,1
35,247,1,6,NaN,NaN,1,NaN,1.352262e-04,NaN,2,0,1,1
35,248,1,45,NaN,NaN,1,NaN,1.273779e-04,NaN,2,0,1,1
35,249,1,36,NaN,NaN,1,NaN,1.255665e-04,NaN,0,1,1,1
35,250,1,18,NaN,NaN,1,NaN,4.915263e-01,NaN,0,0,1,1
35,251,1,54,NaN,NaN,1,NaN,1.204358e-04,NaN,1,1,2,1
35,252,1,83,NaN,NaN,1,NaN,1.255674e-04,NaN,2,1,2,1
35,253,1,74,NaN,NaN,1,NaN,1.264727e-04,NaN,0,0,2,1
35,254,1,52,NaN,NaN,1,NaN,1.297928e-04,NaN,0,0,2,1
35,255,1,135,NaN,NaN,1,NaN,1.343209e-04,NaN,0,0,3,1
35,256,1,58,NaN,NaN,1,NaN,1.246622e-04,NaN,0,0,2,1
35,257,1,1,NaN,NaN,1,NaN,1.204358e-04,NaN,2,0,1,1
35,258,1,76,NaN,NaN,1,NaN,1.337165e-04,NaN,0,0,2,1
35,259,1,43,NaN,NaN,1,NaN,1.291893e-04,NaN,0,0,1,1
35,260,1,127,NaN,NaN,1,NaN,1.258682e-04,NaN,0,1,3,1
35,261,1,73,NaN,NaN,1,NaN,1.261700e-04,NaN,0,0,2,1
35,262,1,125,NaN,NaN,1,NaN,1.270762e-04,NaN,1,1,3,1
35,263,1,71,NaN,NaN,1,NaN,1.328113e-04,NaN,2,0,2,1
35,264,1,57,NaN,NaN,1,NaN,1.228498e-04,NaN,0,0,2,1
35,265,1,88,NaN,NaN,1,NaN,1.216438e-04,NaN,2,0,2,1
35,266,1,79,NaN,NaN,1,NaN,1.264727e-04,NaN,0,0,2,1
35,267,1,75,NaN,NaN,1,NaN,1.243595e-04,NaN,0,0,2,1
35,268,1,78,NaN,NaN,1,NaN,7.199831e-01,NaN,1,0,2,1
35,269,1,53,NaN,NaN,1,NaN,1.201341e-04,NaN,2,1,2,1
35,270,1,122,NaN,NaN,1,NaN,1.276806e-04,NaN,0,0,3,1
35,271,1,89,NaN,NaN,1,NaN,1.279823e-04,NaN,1,0,2,1
35,272,1,49,NaN,NaN,1,NaN,1.264727e-04,NaN,2,0,2,1
35,273,1,102,NaN,NaN,1,NaN,1.252657e-04,NaN,0,0,3,1
35,274,1,41,NaN,NaN,1,NaN,1.337165e-04,NaN,0,0,1,1
35,275,1,64,NaN,NaN,1,NaN,1.219446e-04,NaN,2,1,2,1
35,276,1,31,NaN,NaN,1,NaN,1.213411e-04,NaN,2,0,1,1
35,277,1,85,NaN,NaN,1,NaN,1.234543e-04,NaN,0,1,2,1
35,278,1,132,NaN,NaN,1,NaN,1.279814e-04,NaN,1,0,3,1
35,279,1,68,NaN,NaN,1,NaN,1.240587e-04,NaN,1,0,2,1
35,280,1,20,NaN,NaN,1,NaN,1.246613e-04,NaN,0,0,1,1
35,281,1,81,NaN,NaN,1,NaN,1.548454e-04,NaN,0,0,2,1
35,282,1,4,NaN,NaN,1,NaN,1.445832e-04,NaN,1,1,1,1
35,283,1,48,NaN,NaN,1,NaN,1.252657e-04,NaN,0,0,1,1
35,284,1,17,NaN,NaN,1,NaN,1.288867e-04,NaN,0,0,1,1
35,285,1,78,NaN,NaN,1,NaN,1.300946e-04,NaN,0,0,2,1
35,286,1,101,NaN,NaN,1,NaN,1.261709e-04,NaN,0,0,3,1
35,287,1,81,NaN,NaN,1,NaN,1.279823e-04,NaN,1,0,2,1
35,288,1,27,NaN,NaN,1,NaN,1.279823e-04,NaN,2,0,1,1
35,339,2,114,1,2,1,0,3.273650e+00,NaN,1,0,3,1
35,340,2,104,13,1,1,1,1.125462e+00,NaN,1,0,3,1
35,341,2,80,58,2,2,1,1.030056e+00,NaN,1,1,2,1
35,342,2,97,60,1,1,1,9.623827e-01,NaN,1,1,3,1
35,343,2,58,35,1,1,1,8.410917e-01,NaN,1,0,2,1
35,344,2,111,67,2,2,1,1.717075e+00,NaN,1,0,3,1
35,345,2,81,2,1,2,0,2.013610e+00,NaN,1,0,2,1
35,346,2,22,4,1,1,1,1.770686e+00,NaN,1,0,1,1
35,347,2,91,49,1,1,1,1.593475e+00,NaN,1,1,2,1
35,348,2,118,50,2,0,0,3.499701e+00,NaN,1,0,3,1
35,349,2,16,24,2,1,0,1.793150e+00,NaN,1,0,1,1
35,350,2,89,5,2,2,1,6.548974e-01,NaN,1,0,2,1
35,351,2,110,17,2,2,1,1.018306e+00,NaN,1,0,3,1
35,352,2,43,14,2,2,1,1.055262e+00,NaN,1,0,1,1
35,353,2,101,26,1,1,1,1.010759e+00,NaN,1,0,3,1
35,354,2,130,21,2,2,1,1.912202e+00,NaN,1,0,3,1
35,355,2,5,39,2,2,1,8.328997e-01,NaN,1,0,1,1
35,356,2,14,3,2,1,0,9.245797e-01,NaN,1,1,1,1
35,357,2,54,56,2,1,0,1.117741e+00,NaN,1,1,2,1
35,358,2,18,53,1,1,1,1.734300e+00,NaN,1,0,1,1
35,359,2,56,8,1,1,1,6.145109e-01,NaN,1,0,2,1
35,360,2,106,15,2,2,1,1.627041e+00,NaN,1,0,3,1
35,361,2,60,63,1,1,1,8.087528e-01,NaN,1,0,2,1
35,362,2,4,7,2,2,1,8.695946e-01,NaN,1,1,1,1
35,363,3,91,49,1,1,1,9.048974e-01,NaN,1,1,2,1
35,364,3,111,67,1,1,1,1.402497e+00,NaN,1,0,3,1
35,365,3,56,8,1,1,1,5.599055e-01,NaN,1,0,2,1
35,366,3,80,58,1,1,1,1.079431e+00,NaN,1,1,2,1
35,367,3,43,14,2,2,1,1.265392e+00,NaN,1,0,1,1
35,368,3,104,13,2,2,1,9.082874e-01,NaN,1,0,3,1
35,369,3,106,15,2,2,1,1.317131e+00,NaN,1,0,3,1
35,370,3,89,5,1,1,1,6.627625e-01,NaN,1,0,2,1
35,371,3,54,56,1,1,1,5.607597e-01,NaN,1,1,2,1
35,372,3,16,24,1,1,1,1.856085e+00,NaN,1,0,1,1
35,373,3,101,26,2,2,1,1.323653e+00,NaN,1,0,3,1
35,374,3,4,7,2,2,1,8.042369e-01,NaN,1,1,1,1
35,375,3,97,60,2,2,1,9.941391e-01,NaN,1,1,3,1
35,376,3,130,21,2,2,1,1.272250e+00,NaN,1,0,3,1
35,377,3,5,39,1,1,1,1.578663e+00,NaN,1,0,1,1
35,378,3,110,17,1,1,1,1.384997e+00,NaN,1,0,3,1
35,379,3,114,1,1,2,0,1.151186e+00,NaN,1,0,3,1
35,380,3,118,50,2,2,1,7.502584e-01,NaN,1,0,3,1
35,381,3,60,63,1,1,1,5.182263e-01,NaN,1,0,2,1
35,382,3,18,53,2,2,1,1.150657e+00,NaN,1,0,1,1
35,383,3,22,4,1,1,1,8.540837e-01,NaN,1,0,1,1
35,384,3,81,2,1,1,1,5.294485e-01,NaN,1,0,2,1
35,385,3,58,35,1,1,1,8.019163e-01,NaN,1,0,2,1
35,386,3,14,3,2,2,1,9.429533e-01,NaN,1,1,1,1
35,411,2,37,70,2,1,0,1.398873e+00,NaN,1,1,1,2
35,412,2,41,45,1,1,1,1.060038e+00,NaN,1,0,1,2
35,413,2,116,69,2,2,1,1.527295e+00,NaN,1,0,3,2
35,414,2,19,71,2,2,1,8.082686e-01,NaN,1,0,1,2
35,415,2,113,37,2,2,1,1.405593e+00,NaN,1,0,3,2
35,416,2,2,38,2,2,1,1.115209e+00,NaN,1,0,1,2
35,417,2,44,62,2,2,1,8.756031e-01,NaN,1,0,1,2
35,418,2,32,59,2,2,1,1.574856e+00,NaN,1,1,1,2
35,419,2,20,42,1,1,1,7.413552e-01,NaN,1,0,1,2
35,420,2,75,32,2,2,1,6.376808e-01,NaN,1,0,2,2
35,421,2,128,11,1,1,1,1.521710e+00,NaN,1,1,3,2
35,422,2,72,30,2,2,1,6.904217e-01,NaN,1,0,2,2
35,423,2,50,16,1,1,1,9.003335e-01,NaN,1,1,2,2
35,424,2,84,46,1,1,1,1.510062e+00,NaN,1,0,2,2
35,425,2,40,29,2,2,1,1.167154e+00,NaN,1,0,1,2
35,426,2,59,31,1,1,1,6.057680e-01,NaN,1,1,2,2
35,427,2,36,40,2,2,1,9.151516e-01,NaN,1,1,1,2
35,428,2,77,34,1,1,1,7.800187e-01,NaN,1,0,2,2
35,429,2,24,22,2,2,1,1.034063e+00,NaN,1,0,1,2
35,430,2,29,51,2,2,1,8.544097e-01,NaN,1,0,1,2
35,431,2,55,41,2,1,0,1.001899e+00,NaN,1,0,2,2
35,432,2,78,19,2,1,0,5.674939e-01,NaN,1,0,2,2
35,433,2,57,18,1,1,1,5.337767e-01,NaN,1,0,2,2
35,434,2,47,48,2,2,1,1.021842e+00,NaN,1,0,1,2
35,435,3,50,16,2,2,1,8.292462e-01,NaN,1,1,2,2
35,436,3,44,62,1,1,1,1.217466e+00,NaN,1,0,1,2
35,437,3,40,29,2,2,1,8.784483e-01,NaN,1,0,1,2
35,438,3,116,69,2,2,1,1.072321e+00,NaN,1,0,3,2
35,439,3,41,45,2,2,1,8.753034e-01,NaN,1,0,1,2
35,440,3,75,32,1,1,1,8.140263e-01,NaN,1,0,2,2
35,441,3,24,22,2,2,1,8.989064e-01,NaN,1,0,1,2
35,442,3,113,37,1,1,1,1.004117e+00,NaN,1,0,3,2
35,443,3,55,41,2,2,1,8.575851e-01,NaN,1,0,2,2
35,444,3,32,59,1,1,1,1.140744e+00,NaN,1,1,1,2
35,445,3,84,46,1,1,1,6.130630e-01,NaN,1,0,2,2
35,446,3,36,40,1,1,1,9.139968e-01,NaN,1,1,1,2
35,447,3,72,30,1,1,1,7.547383e-01,NaN,1,0,2,2
35,448,3,59,31,1,1,1,5.299982e-01,NaN,1,1,2,2
35,449,3,2,38,1,1,1,1.169903e+00,NaN,1,0,1,2
35,450,3,77,34,2,2,1,1.240654e+00,NaN,1,0,2,2
35,451,3,47,48,2,2,1,2.532657e+00,NaN,1,0,1,2
35,452,3,78,19,2,2,1,5.011865e-01,NaN,1,0,2,2
35,453,3,20,42,1,1,1,7.506773e-01,NaN,1,0,1,2
35,454,3,37,70,2,2,1,1.677740e+00,NaN,1,1,1,2
35,455,3,19,71,1,1,1,1.080035e+00,NaN,1,0,1,2
35,456,3,57,18,2,2,1,5.382283e-01,NaN,1,0,2,2
35,457,3,29,51,2,2,1,8.504643e-01,NaN,1,0,1,2
35,458,3,128,11,1,1,1,1.669653e+00,NaN,1,1,3,2
35,483,2,93,64,2,2,1,8.455853e-01,NaN,1,0,2,3
35,484,2,26,52,1,1,1,1.369056e+00,NaN,1,1,1,3
35,485,2,95,10,1,1,1,1.303863e+00,NaN,1,1,2,3
35,486,2,126,47,1,1,1,1.513570e+00,NaN,1,1,3,3
35,487,2,141,68,1,1,1,1.602339e+00,NaN,1,0,3,3
35,488,2,132,72,1,1,1,1.719767e+00,NaN,1,0,3,3
35,489,2,65,65,2,1,0,1.928370e+00,NaN,1,0,2,3
35,490,2,94,25,2,1,0,1.648561e+00,NaN,1,0,2,3
35,491,2,35,12,1,1,1,2.075875e+00,NaN,1,1,1,3
35,492,2,125,54,2,1,0,1.622968e+00,NaN,1,1,3,3
35,493,2,100,57,2,2,1,1.899671e+00,NaN,1,0,3,3
35,494,2,129,36,2,2,1,1.509018e+00,NaN,1,0,3,3
35,495,2,133,33,1,1,1,1.374320e+00,NaN,1,0,3,3
35,496,2,52,61,1,1,1,1.925281e+00,NaN,1,0,2,3
35,497,2,124,9,2,2,1,1.797632e+00,NaN,1,0,3,3
35,498,2,68,6,1,1,1,1.451574e+00,NaN,1,0,2,3
35,499,2,21,44,1,1,1,1.382609e+00,NaN,1,1,1,3
35,500,2,121,23,2,2,1,1.869037e+00,NaN,1,0,3,3
35,501,2,108,20,1,1,1,1.128803e+00,NaN,1,0,3,3
35,502,2,143,43,2,2,1,1.119687e+00,NaN,1,0,3,3
35,503,2,79,28,2,1,0,1.064539e+00,NaN,1,0,2,3
35,504,2,112,66,1,1,1,9.794375e-01,NaN,1,0,3,3
35,505,2,46,27,2,2,1,1.577451e+00,NaN,1,0,1,3
35,506,2,11,55,1,1,1,1.800285e+00,NaN,1,0,1,3
35,507,3,94,25,1,1,1,8.788138e-01,NaN,1,0,2,3
35,508,3,129,36,2,2,1,1.064922e+00,NaN,1,0,3,3
35,509,3,121,23,1,1,1,7.796761e-01,NaN,1,0,3,3
35,510,3,112,66,1,1,1,7.541371e-01,NaN,1,0,3,3
35,511,3,132,72,1,1,1,1.593456e+00,NaN,1,0,3,3
35,512,3,95,10,2,2,1,8.311387e-01,NaN,1,1,2,3
35,513,3,93,64,1,1,1,1.251421e+00,NaN,1,0,2,3
35,514,3,65,65,2,2,1,1.047027e+00,NaN,1,0,2,3
35,515,3,11,55,2,2,1,1.058485e+00,NaN,1,0,1,3
35,516,3,141,68,1,1,1,1.317559e+00,NaN,1,0,3,3
35,517,3,68,6,1,1,1,1.302375e+00,NaN,1,0,2,3
35,518,3,21,44,1,1,1,1.607664e+00,NaN,1,1,1,3
35,519,3,35,12,1,1,1,1.045614e+00,NaN,1,1,1,3
35,520,3,133,33,2,2,1,1.088845e+00,NaN,1,0,3,3
35,521,3,100,57,2,2,1,1.130822e+00,NaN,1,0,3,3
35,522,3,143,43,1,1,1,1.083124e+00,NaN,1,0,3,3
35,523,3,52,61,1,1,1,7.568081e-01,NaN,1,0,2,3
35,524,3,108,20,2,2,1,1.364464e+00,NaN,1,0,3,3
35,525,3,26,52,1,1,1,2.274961e+00,NaN,1,1,1,3
35,526,3,125,54,2,2,1,8.859304e-01,NaN,1,1,3,3
35,527,3,126,47,1,1,1,1.223921e+00,NaN,1,1,3,3
35,528,3,46,27,2,2,1,5.090291e-01,NaN,1,0,1,3
35,529,3,124,9,1,1,1,8.302030e-01,NaN,1,0,3,3
35,530,3,79,28,2,1,0,7.302890e-01,NaN,1,0,2,3
35,555,4,63,40,1,1,1,6.361217e-01,NaN,2,1,2,1
35,556,4,92,72,2,1,0,9.044564e-01,NaN,2,0,2,1
35,557,4,105,58,2,2,1,1.177699e+00,NaN,2,1,3,1
35,558,4,23,37,1,1,1,9.126143e-01,NaN,2,0,1,1
35,559,4,96,57,2,2,1,7.132185e-01,NaN,2,0,2,1
35,560,4,48,35,2,2,1,8.339721e-01,NaN,2,0,1,1
35,561,4,140,7,1,1,1,1.917948e+00,NaN,2,1,3,1
35,562,4,137,14,2,2,1,9.426484e-01,NaN,2,0,3,1
35,563,4,107,65,1,1,1,6.711547e-01,NaN,2,0,3,1
35,564,4,27,30,2,2,1,5.456832e-01,NaN,2,0,1,1
35,565,4,86,47,1,1,1,1.032935e+00,NaN,2,1,2,1
35,566,4,62,3,2,2,1,4.855571e-01,NaN,2,1,2,1
35,567,4,139,48,2,1,0,1.343375e+00,NaN,2,0,3,1
35,568,4,42,63,2,1,0,1.431432e+00,NaN,2,0,1,1
35,569,4,53,70,1,1,1,8.513819e-01,NaN,2,1,2,1
35,570,4,3,13,1,1,1,9.667371e-01,NaN,2,0,1,1
35,571,4,136,42,2,2,1,7.573931e-01,NaN,2,0,3,1
35,572,4,115,8,2,1,0,1.412796e+00,NaN,2,0,3,1
35,573,4,7,33,2,2,1,8.979646e-01,NaN,2,0,1,1
35,574,4,49,38,1,2,0,8.434947e-01,NaN,2,0,2,1
35,575,4,127,44,2,2,1,6.714088e-01,NaN,2,1,3,1
35,576,4,9,23,1,1,1,7.061254e-01,NaN,2,0,1,1
35,577,4,51,29,2,0,0,3.499802e+00,NaN,2,0,2,1
35,578,4,131,45,2,1,0,1.269279e+00,NaN,2,0,3,1
35,603,4,74,26,1,1,1,1.545780e+00,NaN,2,0,2,2
35,604,4,15,54,2,1,0,1.065437e+00,NaN,2,1,1,2
35,605,4,138,52,2,2,1,1.323946e+00,NaN,2,1,3,2
35,606,4,85,11,1,1,1,5.970516e-01,NaN,2,1,2,2
35,607,4,8,36,2,2,1,1.266431e+00,NaN,2,0,1,2
35,608,4,71,24,2,2,1,7.889955e-01,NaN,2,0,2,2
35,609,4,122,64,2,2,1,6.429205e-01,NaN,2,0,3,2
35,610,4,102,2,1,1,1,9.428769e-01,NaN,2,0,3,2
35,611,4,38,61,2,1,0,1.120244e+00,NaN,2,0,1,2
35,612,4,25,10,2,2,1,1.848016e+00,NaN,2,1,1,2
35,613,4,76,43,2,2,1,7.233804e-01,NaN,2,0,2,2
35,614,4,117,34,2,1,0,1.732041e+00,NaN,2,0,3,2
35,615,4,17,67,1,1,1,1.748205e+00,NaN,2,0,1,2
35,616,4,73,1,2,2,1,1.012106e+00,NaN,2,0,2,2
35,617,4,119,28,2,2,1,8.484857e-01,NaN,2,0,3,2
35,618,4,144,53,1,2,0,1.147796e+00,NaN,2,0,3,2
35,619,4,6,21,2,2,1,8.436988e-01,NaN,2,0,1,2
35,620,4,87,66,2,2,1,1.335520e+00,NaN,2,0,2,2
35,621,4,70,4,2,2,1,7.038749e-01,NaN,2,0,2,2
35,622,4,103,16,2,2,1,8.167217e-01,NaN,2,1,3,2
35,623,4,30,56,2,2,1,9.419385e-01,NaN,2,1,1,2
35,624,4,1,69,1,1,1,9.820508e-01,NaN,2,0,1,2
35,625,4,39,6,1,1,1,6.041039e-01,NaN,2,0,1,2
35,626,4,109,5,1,1,1,1.017112e+00,NaN,2,0,3,2
35,651,4,45,46,2,1,0,1.676998e+00,NaN,2,0,1,3
35,652,4,88,15,1,2,0,1.079860e+00,NaN,2,0,2,3
35,653,4,142,27,1,1,1,1.169891e+00,NaN,2,0,3,3
35,654,4,64,12,1,1,1,7.128526e-01,NaN,2,1,2,3
35,655,4,90,50,1,2,0,9.374570e-01,NaN,2,0,2,3
35,656,4,66,39,2,2,1,6.175900e-01,NaN,2,0,2,3
35,657,4,99,32,2,2,1,1.662111e+00,NaN,2,0,3,3
35,658,4,13,20,2,2,1,1.440699e+00,NaN,2,0,1,3
35,659,4,135,71,1,1,1,6.931232e-01,NaN,2,0,3,3
35,660,4,134,55,2,1,0,1.198740e+00,NaN,2,0,3,3
35,661,4,69,62,1,1,1,7.725728e-01,NaN,2,0,2,3
35,662,4,61,51,2,2,1,7.554392e-01,NaN,2,0,2,3
35,663,4,33,18,1,2,0,9.149618e-01,NaN,2,0,1,3
35,664,4,82,9,2,2,1,4.676722e-01,NaN,2,0,2,3
35,665,4,123,59,1,1,1,1.686235e+00,NaN,2,1,3,3
35,666,4,83,60,2,2,1,8.885522e-01,NaN,2,1,2,3
35,667,4,31,25,1,1,1,1.098604e+00,NaN,2,0,1,3
35,668,4,10,17,1,1,1,1.083715e+00,NaN,2,0,1,3
35,669,4,12,68,1,1,1,6.711311e-01,NaN,2,0,1,3
35,670,4,120,49,2,2,1,9.527554e-01,NaN,2,1,3,3
35,671,4,28,19,2,2,1,1.216157e+00,NaN,2,0,1,3
35,672,4,98,31,2,2,1,2.236655e+00,NaN,2,1,3,3
35,673,4,67,22,2,2,1,6.890169e-01,NaN,2,0,2,3
35,674,4,34,41,1,1,1,1.234835e+00,NaN,2,0,1,3
35,675,5,2.035000e+01,71,1,0,0,2.500131e+00,1,1,0,1.300000e+00,1
35,676,5,5.238000e+01,61,2,2,1,9.734193e-01,1,1,0,2.100000e+00,1
35,677,5,7.227000e+01,30,2,1,0,4.308222e-01,1,1,0,2.100000e+00,1
35,678,5,1.300600e+02,21,3,1,0,3.606558e-01,1,1,0,3.100000e+00,1
35,679,5,1.437600e+02,43,3,2,0,1.223085e-01,1,1,0,3.200000e+00,1
35,680,5,1.160100e+02,69,3,1,0,7.160775e-01,1,1,0,3.100000e+00,1
35,681,5,4.437000e+01,14,1,1,1,2.854697e-01,1,1,0,1.300000e+00,1
35,682,5,9.422000e+01,64,2,1,0,3.268791e-01,1,1,0,2.300000e+00,1
35,683,5,5.848000e+01,35,2,3,0,2.161199e-04,1,1,0,2.100000e+00,1
35,684,5,7.817000e+01,34,2,2,1,1.463946e-04,1,1,0,2.300000e+00,1
35,685,5,1.128700e+02,66,3,2,0,1.476025e-04,1,1,0,3.200000e+00,1
35,686,5,4.437000e+01,14,1,1,1,3.574535e-01,2,1,0,1.300000e+00,1
35,687,5,1.944000e+01,53,1,2,0,3.028282e-01,1,1,0,1.300000e+00,1
35,688,5,4.437000e+01,14,1,1,1,1.448859e-04,3,1,0,1.300000e+00,1
35,689,5,1.329200e+02,72,3,3,1,1.457902e-04,1,1,0,3.200000e+00,1
35,690,5,6.042000e+01,63,2,3,0,1.445832e-04,1,1,0,2.100000e+00,1
35,691,5,1.101000e+02,17,3,3,1,1.469981e-04,1,1,0,3.100000e+00,1
35,692,5,1.111700e+02,67,3,3,1,1.442814e-04,1,1,0,3.100000e+00,1
35,693,5,1.290800e+02,36,3,1,0,1.509218e-04,1,1,0,3.100000e+00,1
35,694,5,5.715000e+01,8,2,2,1,1.043092e-01,1,1,0,2.300000e+00,1
35,695,5,8.202000e+01,2,2,3,0,1.451867e-04,1,1,0,2.300000e+00,1
35,696,5,1.411200e+02,68,3,1,0,1.723533e-04,1,1,0,3.100000e+00,1
35,697,5,4.437000e+01,14,1,1,1,1.436779e-04,4,1,0,1.300000e+00,1
35,698,5,1.234000e+01,55,1,2,0,1.442814e-04,1,1,0,1.300000e+00,1
35,699,5,1.189000e+02,50,3,3,1,1.466954e-04,1,1,0,3.200000e+00,1
35,700,5,6.042000e+01,63,2,3,0,1.479033e-04,2,1,0,2.100000e+00,1
35,701,5,1.944000e+01,53,1,2,0,1.421683e-04,2,1,0,1.300000e+00,1
35,702,5,5.733000e+01,18,2,3,0,1.702402e-04,1,1,0,2.100000e+00,1
35,703,5,1.290800e+02,36,3,2,0,1.479033e-04,2,1,0,3.100000e+00,1
35,704,5,4.839000e+01,48,1,1,1,1.497148e-04,1,1,0,1.300000e+00,1
35,705,5,1.132300e+02,37,3,3,1,1.460928e-04,1,1,0,3.100000e+00,1
35,706,5,1.101000e+02,17,3,3,1,1.391498e-04,2,1,0,3.100000e+00,1
35,707,5,8.445000e+01,46,2,3,0,1.460928e-04,1,1,0,2.100000e+00,1
35,708,5,7.817000e+01,34,2,2,1,1.663165e-04,2,1,0,2.300000e+00,1
35,709,5,1.081300e+02,20,3,1,0,1.445832e-04,1,1,0,3.100000e+00,1
35,710,5,2.961000e+01,51,1,2,0,1.448849e-04,1,1,0,1.200000e+00,1
35,711,5,1.671000e+01,24,1,2,0,1.506200e-04,1,1,0,1.200000e+00,1
35,712,5,1.189000e+02,50,3,3,1,1.457911e-04,2,1,0,3.200000e+00,1
35,713,5,6.607000e+01,65,2,3,0,1.491103e-04,1,1,0,2.300000e+00,1
35,714,5,1.132300e+02,37,3,3,1,1.439797e-04,2,1,0,3.100000e+00,1
35,715,5,5.733000e+01,18,2,2,1,1.466963e-04,2,1,0,2.100000e+00,1
35,716,5,1.248200e+02,9,3,2,0,1.421683e-04,1,1,0,3.200000e+00,1
35,717,5,1.111700e+02,67,3,3,1,1.427727e-04,2,1,0,3.100000e+00,1
35,718,5,2.467000e+01,22,1,2,0,1.847288e-04,1,1,0,1.200000e+00,1
35,719,5,1.330700e+02,33,3,2,0,1.515253e-04,1,1,0,3.100000e+00,1
35,720,5,5.660000e+00,39,1,2,0,1.409603e-04,1,1,0,1.200000e+00,1
35,721,5,4.839000e+01,48,1,1,1,1.829173e-04,2,1,0,1.300000e+00,1
35,722,5,1.944000e+01,53,1,1,1,1.530349e-04,3,1,0,1.300000e+00,1
35,723,5,1.128700e+02,66,3,2,0,1.427727e-04,2,1,0,3.200000e+00,1
35,724,5,2.136000e+01,42,1,3,0,1.275212e+00,1,1,0,1.300000e+00,1
35,725,5,8.019000e+01,28,2,3,0,1.812976e-01,1,1,0,2.300000e+00,1
35,726,5,1.300600e+02,21,3,1,0,1.424700e-04,2,1,0,3.100000e+00,1
35,727,5,7.828000e+01,19,2,1,0,1.409613e-04,1,1,0,2.100000e+00,1
35,728,5,2.961000e+01,51,1,1,1,1.430735e-04,2,1,0,1.200000e+00,1
35,729,5,5.848000e+01,35,2,2,1,1.439797e-04,2,1,0,2.100000e+00,1
35,730,5,1.290800e+02,36,3,1,0,1.472998e-04,3,1,0,3.100000e+00,1
35,731,5,9.422000e+01,64,2,2,1,1.469981e-04,2,1,0,2.300000e+00,1
35,732,5,1.329200e+02,72,3,1,0,1.476016e-04,2,1,0,3.200000e+00,1
35,733,5,2.490000e+00,38,1,1,1,1.445832e-04,1,1,0,1.200000e+00,1
35,734,5,1.132300e+02,37,3,3,1,1.451867e-04,3,1,0,3.100000e+00,1
35,735,5,7.599000e+01,32,2,1,0,1.427727e-04,1,1,0,2.300000e+00,1
35,736,5,1.944000e+01,53,1,3,0,1.403578e-04,4,1,0,1.300000e+00,1
35,737,5,7.227000e+01,30,2,2,1,1.460928e-04,2,1,0,2.100000e+00,1
35,738,5,2.490000e+00,38,1,1,1,1.557516e-04,2,1,0,1.200000e+00,1
35,739,5,1.411200e+02,68,3,1,0,1.512235e-04,2,1,0,3.100000e+00,1
35,740,5,4.231000e+01,45,1,1,1,1.409613e-04,1,1,0,1.300000e+00,1
35,741,5,6.839000e+01,6,2,3,0,2.677101e-01,1,1,0,2.100000e+00,1
35,742,5,6.607000e+01,65,2,2,1,1.439797e-04,2,1,0,2.300000e+00,1
35,743,5,1.040300e+02,13,3,3,1,1.436779e-04,1,1,0,3.100000e+00,1
35,744,5,1.068800e+02,15,3,1,0,1.363910e-01,1,1,0,3.200000e+00,1
35,745,5,6.607000e+01,65,2,2,1,1.436779e-04,3,1,0,2.300000e+00,1
35,746,5,7.599000e+01,32,2,1,0,1.479043e-04,2,1,0,2.300000e+00,1
35,747,5,8.019000e+01,28,2,1,0,6.062268e-02,2,1,0,2.300000e+00,1
35,748,5,2.961000e+01,51,1,1,1,6.541883e-01,3,1,0,1.200000e+00,1
35,749,5,9.009000e+01,5,2,3,0,1.460919e-04,1,1,0,2.300000e+00,1
35,750,5,9.009000e+01,5,2,2,1,1.506200e-04,2,1,0,2.300000e+00,1
35,751,5,1.017400e+02,26,3,1,0,1.457911e-04,1,1,0,3.200000e+00,1
35,752,5,7.828000e+01,19,2,2,1,1.524314e-04,2,1,0,2.100000e+00,1
35,753,5,9.422000e+01,64,2,2,1,1.472998e-04,3,1,0,2.300000e+00,1
35,754,5,5.534000e+01,41,2,1,0,1.642033e-04,1,1,0,2.100000e+00,1
35,755,5,5.238000e+01,61,2,1,0,1.403578e-04,2,1,0,2.100000e+00,1
35,756,5,1.128700e+02,66,3,3,1,1.436779e-04,3,1,0,3.200000e+00,1
35,757,5,9.009000e+01,5,2,2,1,1.454893e-04,3,1,0,2.300000e+00,1
35,758,5,4.742000e+01,27,1,1,1,1.485078e-04,1,1,0,1.300000e+00,1
35,759,5,1.300600e+02,21,3,3,1,1.337435e-01,3,1,0,3.100000e+00,1
35,760,5,5.534000e+01,41,2,2,1,1.421683e-04,2,1,0,2.100000e+00,1
35,761,5,4.051000e+01,29,1,1,1,1.850169e-01,1,1,0,1.200000e+00,1
35,762,5,1.009600e+02,57,3,2,0,1.942983e-01,1,1,0,3.200000e+00,1
35,763,5,1.234000e+01,55,1,3,0,6.840528e-01,2,1,0,1.300000e+00,1
35,764,5,1.329200e+02,72,3,2,0,1.463946e-04,3,1,0,3.200000e+00,1
35,765,5,1.009600e+02,57,3,3,1,1.442824e-04,2,1,0,3.200000e+00,1
35,766,5,1.437600e+02,43,3,3,1,1.430735e-04,2,1,0,3.200000e+00,1
35,767,5,9.431000e+01,25,2,1,0,1.433762e-04,1,1,0,2.100000e+00,1
35,768,5,1.017400e+02,26,3,3,1,1.427727e-04,2,1,0,3.200000e+00,1
35,769,5,2.035000e+01,71,1,3,0,1.448849e-04,2,1,0,1.300000e+00,1
35,770,5,4.231000e+01,45,1,1,1,1.512244e-04,2,1,0,1.300000e+00,1
35,771,5,6.042000e+01,63,2,3,0,1.497148e-04,3,1,0,2.100000e+00,1
35,772,5,2.136000e+01,42,1,1,1,1.427727e-04,2,1,0,1.300000e+00,1
35,773,5,1.132300e+02,37,3,2,0,1.702392e-04,4,1,0,3.100000e+00,1
35,774,5,4.742000e+01,27,1,3,0,1.466963e-04,2,1,0,1.300000e+00,1
35,775,5,2.035000e+01,71,1,3,0,1.391508e-04,3,1,0,1.300000e+00,1
35,776,5,1.671000e+01,24,1,3,0,1.442814e-04,2,1,0,1.200000e+00,1
35,777,5,2.467000e+01,22,1,2,0,1.599770e-04,2,1,0,1.200000e+00,1
35,778,5,1.101000e+02,17,3,3,1,1.463946e-04,3,1,0,3.100000e+00,1
35,779,5,8.202000e+01,2,2,2,1,1.515253e-04,2,1,0,2.300000e+00,1
35,780,5,2.490000e+00,38,1,2,0,1.454884e-04,3,1,0,1.200000e+00,1
35,781,5,8.445000e+01,46,2,3,0,1.430744e-04,2,1,0,2.100000e+00,1
35,782,5,5.715000e+01,8,2,2,1,1.460919e-04,2,1,0,2.300000e+00,1
35,783,5,1.248200e+02,9,3,3,1,1.400551e-04,2,1,0,3.200000e+00,1
35,784,5,5.733000e+01,18,2,2,1,1.427727e-04,3,1,0,2.100000e+00,1
35,785,5,5.238000e+01,61,2,2,1,1.445832e-04,3,1,0,2.100000e+00,1
35,786,5,4.839000e+01,48,1,2,0,1.611849e-04,3,1,0,1.300000e+00,1
35,787,5,2.035000e+01,71,1,1,1,1.385463e-04,4,1,0,1.300000e+00,1
35,788,5,1.068800e+02,15,3,3,1,1.750032e-01,2,1,0,3.200000e+00,1
35,789,5,1.329200e+02,72,3,3,1,1.463946e-04,4,1,0,3.200000e+00,1
35,790,5,2.136000e+01,42,1,1,1,1.463946e-04,3,1,0,1.300000e+00,1
35,791,5,1.147300e+02,1,3,2,0,1.463946e-04,1,1,0,3.200000e+00,1
35,792,5,6.839000e+01,6,2,2,1,1.611849e-04,2,1,0,2.100000e+00,1
35,793,5,1.330700e+02,33,3,1,0,1.445832e-04,2,1,0,3.100000e+00,1
35,794,5,5.660000e+00,39,1,2,0,1.421692e-04,2,1,0,1.200000e+00,1
35,795,5,4.231000e+01,45,1,2,0,1.388490e-04,3,1,0,1.300000e+00,1
35,796,5,1.300600e+02,21,3,3,1,1.457911e-04,4,1,0,3.100000e+00,1
35,797,5,1.330700e+02,33,3,3,1,1.469981e-04,3,1,0,3.100000e+00,1
35,798,5,1.437600e+02,43,3,2,0,1.702402e-04,3,1,0,3.200000e+00,1
35,799,5,6.042000e+01,63,2,2,1,1.509227e-04,4,1,0,2.100000e+00,1
35,800,5,5.715000e+01,8,2,2,1,1.445832e-04,3,1,0,2.300000e+00,1
35,801,5,6.607000e+01,65,2,2,1,1.551472e-04,4,1,0,2.300000e+00,1
35,802,5,2.467000e+01,22,1,1,1,1.463946e-04,3,1,0,1.200000e+00,1
35,803,5,1.234000e+01,55,1,1,1,1.436779e-04,3,1,0,1.300000e+00,1
35,804,5,6.839000e+01,6,2,3,0,1.436779e-04,3,1,0,2.100000e+00,1
35,805,5,1.160100e+02,69,3,1,0,1.753708e-04,2,1,0,3.100000e+00,1
35,806,5,6.839000e+01,6,2,2,1,1.412630e-04,4,1,0,2.100000e+00,1
35,807,5,8.019000e+01,28,2,3,0,1.439797e-04,3,1,0,2.300000e+00,1
35,808,5,1.189000e+02,50,3,2,0,1.457911e-04,3,1,0,3.200000e+00,1
35,809,5,2.270000e+01,4,1,2,0,1.469981e-04,1,1,0,1.200000e+00,1
35,810,5,1.147300e+02,1,3,2,0,1.500165e-04,2,1,0,3.200000e+00,1
35,811,5,1.147300e+02,1,3,3,1,1.530349e-04,3,1,0,3.200000e+00,1
35,812,5,5.848000e+01,35,2,2,1,1.427718e-04,3,1,0,2.100000e+00,1
35,813,5,1.248200e+02,9,3,3,1,1.476016e-04,3,1,0,3.200000e+00,1
35,814,5,5.715000e+01,8,2,2,1,1.430735e-04,4,1,0,2.300000e+00,1
35,815,5,1.411200e+02,68,3,1,0,1.403568e-04,3,1,0,3.100000e+00,1
35,816,5,1.210900e+02,23,3,1,0,1.442814e-04,1,1,0,3.100000e+00,1
35,817,5,8.445000e+01,46,2,2,1,1.472998e-04,3,1,0,2.100000e+00,1
35,818,5,1.671000e+01,24,1,1,1,1.421683e-04,3,1,0,1.200000e+00,1
35,819,5,4.839000e+01,48,1,2,0,1.472998e-04,4,1,0,1.300000e+00,1
35,820,5,1.147300e+02,1,3,3,1,1.479033e-04,4,1,0,3.200000e+00,1
35,821,5,1.437600e+02,43,3,3,1,1.454893e-04,4,1,0,3.200000e+00,1
35,822,5,7.599000e+01,32,2,1,0,1.491113e-04,3,1,0,2.300000e+00,1
35,823,5,5.848000e+01,35,2,2,1,1.442824e-04,4,1,0,2.100000e+00,1
35,824,5,1.040300e+02,13,3,3,1,1.454893e-04,2,1,0,3.100000e+00,1
35,825,5,4.051000e+01,29,1,1,1,1.439797e-04,2,1,0,1.200000e+00,1
35,826,5,8.019000e+01,28,2,2,1,1.448859e-04,4,1,0,2.300000e+00,1
35,827,5,1.189000e+02,50,3,2,0,1.442814e-04,4,1,0,3.200000e+00,1
35,828,5,1.111700e+02,67,3,3,1,1.454893e-04,3,1,0,3.100000e+00,1
35,829,5,1.248200e+02,9,3,3,1,1.472998e-04,4,1,0,3.200000e+00,1
35,830,5,1.111700e+02,67,3,3,1,1.660148e-04,4,1,0,3.100000e+00,1
35,831,5,7.227000e+01,30,2,2,1,1.451867e-04,3,1,0,2.100000e+00,1
35,832,5,1.068800e+02,15,3,1,0,1.463937e-04,3,1,0,3.200000e+00,1
35,833,5,1.210900e+02,23,3,3,1,1.430744e-04,2,1,0,3.100000e+00,1
35,834,5,1.290800e+02,36,3,2,0,1.545446e-04,4,1,0,3.100000e+00,1
35,835,5,8.445000e+01,46,2,1,0,1.445832e-04,4,1,0,2.100000e+00,1
35,836,5,4.469000e+01,62,1,4,0,1.811069e-04,1,1,0,1.200000e+00,1
35,837,5,4.742000e+01,27,1,1,1,1.675235e-04,3,1,0,1.300000e+00,1
35,838,5,1.009600e+02,57,3,2,0,1.427727e-04,3,1,0,3.200000e+00,1
35,839,5,8.202000e+01,2,2,2,1,1.433762e-04,3,1,0,2.300000e+00,1
35,840,5,9.431000e+01,25,2,1,0,1.448849e-04,2,1,0,2.100000e+00,1
35,841,5,1.330700e+02,33,3,1,0,1.482060e-04,4,1,0,3.100000e+00,1
35,842,5,2.270000e+01,4,1,3,0,1.635998e-04,2,1,0,1.200000e+00,1
35,843,5,1.160100e+02,69,3,1,0,2.607936e-04,3,1,0,3.100000e+00,1
35,844,5,5.238000e+01,61,2,2,1,1.448849e-04,4,1,0,2.100000e+00,1
35,845,5,4.742000e+01,27,1,1,1,1.424700e-04,4,1,0,1.300000e+00,1
35,846,5,1.081300e+02,20,3,3,1,1.439797e-04,2,1,0,3.100000e+00,1
35,847,5,7.828000e+01,19,2,1,0,1.457911e-04,3,1,0,2.100000e+00,1
35,848,5,1.210900e+02,23,3,3,1,1.457911e-04,3,1,0,3.100000e+00,1
35,849,5,1.040300e+02,13,3,1,0,1.687305e-04,3,1,0,3.100000e+00,1
35,850,5,9.431000e+01,25,2,3,0,1.581665e-04,3,1,0,2.100000e+00,1
35,851,5,5.534000e+01,41,2,1,0,1.385463e-04,3,1,0,2.100000e+00,1
35,852,5,8.202000e+01,2,2,2,1,1.412630e-04,4,1,0,2.300000e+00,1
35,853,5,7.828000e+01,19,2,2,1,1.415648e-04,4,1,0,2.100000e+00,1
35,854,5,7.599000e+01,32,2,1,0,1.415648e-04,4,1,0,2.300000e+00,1
35,855,5,1.101000e+02,17,3,3,1,1.473008e-04,4,1,0,3.100000e+00,1
35,856,5,9.009000e+01,5,2,2,1,1.466963e-04,4,1,0,2.300000e+00,1
35,857,5,1.081300e+02,20,3,3,1,3.214218e-01,3,1,0,3.100000e+00,1
35,858,5,5.733000e+01,18,2,2,1,1.433762e-04,4,1,0,2.100000e+00,1
35,859,5,1.017400e+02,26,3,1,0,1.430735e-04,3,1,0,3.200000e+00,1
35,860,5,1.411200e+02,68,3,3,1,1.473008e-04,4,1,0,3.100000e+00,1
35,861,5,4.469000e+01,62,1,1,1,1.466963e-04,2,1,0,1.200000e+00,1
35,862,5,7.227000e+01,30,2,2,1,1.427727e-04,4,1,0,2.100000e+00,1
35,863,5,4.051000e+01,29,1,3,0,1.427727e-04,3,1,0,1.200000e+00,1
35,864,5,4.469000e+01,62,1,2,0,1.427727e-04,3,1,0,1.200000e+00,1
35,865,5,1.160100e+02,69,3,2,0,1.497148e-04,4,1,0,3.100000e+00,1
35,866,5,1.128700e+02,66,3,2,0,1.451867e-04,4,1,0,3.200000e+00,1
35,867,5,1.081300e+02,20,3,2,0,1.436779e-04,4,1,0,3.100000e+00,1
35,868,5,5.534000e+01,41,2,2,1,1.690323e-04,4,1,0,2.100000e+00,1
35,869,5,1.068800e+02,15,3,3,1,1.506200e-04,4,1,0,3.200000e+00,1
35,870,5,4.051000e+01,29,1,1,1,1.430744e-04,4,1,0,1.200000e+00,1
35,871,5,7.817000e+01,34,2,2,1,1.466963e-04,3,1,0,2.300000e+00,1
35,872,5,5.660000e+00,39,1,1,1,1.476016e-04,3,1,0,1.200000e+00,1
35,873,5,5.660000e+00,39,1,1,1,1.376411e-04,4,1,0,1.200000e+00,1
35,874,5,1.009600e+02,57,3,2,0,1.497148e-04,4,1,0,3.200000e+00,1
35,875,5,2.136000e+01,42,1,2,0,1.445841e-04,4,1,0,1.300000e+00,1
35,876,5,1.234000e+01,55,1,2,0,1.457902e-04,4,1,0,1.300000e+00,1
35,877,5,9.431000e+01,25,2,3,0,1.433762e-04,4,1,0,2.100000e+00,1
35,878,5,1.210900e+02,23,3,3,1,1.479033e-04,4,1,0,3.100000e+00,1
35,879,5,9.422000e+01,64,2,2,1,1.433752e-04,4,1,0,2.300000e+00,1
35,880,5,1.017400e+02,26,3,3,1,1.494130e-04,4,1,0,3.200000e+00,1
35,881,5,2.270000e+01,4,1,1,1,1.412630e-04,3,1,0,1.200000e+00,1
35,882,5,4.231000e+01,45,1,3,0,1.448859e-04,4,1,0,1.300000e+00,1
35,883,5,2.490000e+00,38,1,1,1,1.436770e-04,4,1,0,1.200000e+00,1
35,884,5,2.467000e+01,22,1,0,0,2.500105e+00,4,1,0,1.200000e+00,1
35,885,5,4.469000e+01,62,1,2,0,6.096974e-01,4,1,0,1.200000e+00,1
35,886,5,7.817000e+01,34,2,2,1,1.482051e-04,4,1,0,2.300000e+00,1
35,887,5,2.961000e+01,51,1,1,1,3.812636e-01,4,1,0,1.200000e+00,1
35,888,5,1.671000e+01,24,1,1,1,1.500165e-04,4,1,0,1.200000e+00,1
35,889,5,1.040300e+02,13,3,3,1,1.714481e-04,4,1,0,3.100000e+00,1
35,890,5,2.270000e+01,4,1,1,1,1.409613e-04,4,1,0,1.200000e+00,1
35,891,6,115,8,2,2,1,1.269176e+00,NaN,2,0,3,1
35,892,6,131,45,2,2,1,1.217448e+00,NaN,2,0,3,1
35,893,6,142,27,2,2,1,1.727144e+00,NaN,2,0,3,1
35,894,6,82,9,1,1,1,8.401569e-01,NaN,2,0,2,1
35,895,6,45,46,1,2,0,9.891137e-01,NaN,2,0,1,1
35,896,6,140,7,1,1,1,1.403366e+00,NaN,2,1,3,1
35,897,6,138,52,1,1,1,8.257433e-01,NaN,2,1,3,1
35,898,6,25,10,2,2,1,1.350923e+00,NaN,2,1,1,1
35,899,6,10,17,1,1,1,6.793443e-01,NaN,2,0,1,1
35,900,6,86,47,1,1,1,8.576796e-01,NaN,2,1,2,1
35,901,6,66,39,2,2,1,6.461297e-01,NaN,2,0,2,1
35,902,6,69,62,1,1,1,5.620990e-01,NaN,2,0,2,1
35,903,6,88,15,2,2,1,6.254229e-01,NaN,2,0,2,1
35,904,6,1,69,2,2,1,8.706151e-01,NaN,2,0,1,1
35,905,6,92,72,2,1,0,9.620826e-01,NaN,2,0,2,1
35,906,6,49,38,2,2,1,1.265169e+00,NaN,2,0,2,1
35,907,6,136,42,1,1,1,9.486328e-01,NaN,2,0,3,1
35,908,6,74,26,1,1,1,8.047376e-01,NaN,2,0,2,1
35,909,6,48,35,2,2,1,6.990427e-01,NaN,2,0,1,1
35,910,6,33,18,2,2,1,1.020726e+00,NaN,2,0,1,1
35,911,6,96,57,1,1,1,7.384164e-01,NaN,2,0,2,1
35,912,6,98,31,2,2,1,2.298562e+00,NaN,2,1,3,1
35,913,6,67,22,1,1,1,7.726785e-01,NaN,2,0,2,1
35,914,6,76,43,2,2,1,5.965053e-01,NaN,2,0,2,1
35,915,6,30,56,2,2,1,7.939011e-01,NaN,2,1,1,1
35,916,6,38,61,1,1,1,2.136905e+00,NaN,2,0,1,1
35,917,6,117,34,1,2,0,1.857445e+00,NaN,2,0,3,1
35,918,6,123,59,2,1,0,1.357512e+00,NaN,2,1,3,1
35,919,6,103,16,1,1,1,1.093656e+00,NaN,2,1,3,1
35,920,6,85,11,1,1,1,4.724105e-01,NaN,2,1,2,1
35,921,6,51,29,1,2,0,1.307368e+00,NaN,2,0,2,1
35,922,6,102,2,2,2,1,1.077850e+00,NaN,2,0,3,1
35,923,6,42,63,2,2,1,1.552835e+00,NaN,2,0,1,1
35,924,6,28,19,2,2,1,9.693287e-01,NaN,2,0,1,1
35,925,6,87,66,1,1,1,9.844580e-01,NaN,2,0,2,1
35,926,6,27,30,1,2,0,1.999494e+00,NaN,2,0,1,1
35,927,6,120,49,2,2,1,1.109365e+00,NaN,2,1,3,1
35,928,6,53,70,2,2,1,6.794726e-01,NaN,2,1,2,1
35,929,6,99,32,1,1,1,1.681720e+00,NaN,2,0,3,1
35,930,6,8,36,2,1,0,1.420526e+00,NaN,2,0,1,1
35,931,6,109,5,1,1,1,6.259095e-01,NaN,2,0,3,1
35,932,6,119,28,2,2,1,7.430790e-01,NaN,2,0,3,1
35,933,6,7,33,1,1,1,9.678962e-01,NaN,2,0,1,1
35,934,6,90,50,1,2,0,8.314855e-01,NaN,2,0,2,1
35,935,6,83,60,1,1,1,8.758074e-01,NaN,2,1,2,1
35,936,6,9,23,1,1,1,6.873495e-01,NaN,2,0,1,1
35,937,6,135,71,2,2,1,6.823516e-01,NaN,2,0,3,1
35,938,6,15,54,2,1,0,1.116721e+00,NaN,2,1,1,1
35,939,6,144,53,2,1,0,1.358336e+00,NaN,2,0,3,1
35,940,6,73,1,2,2,1,6.859203e-01,NaN,2,0,2,1
35,941,6,3,13,2,1,0,1.217136e+00,NaN,2,0,1,1
35,942,6,122,64,2,2,1,1.222440e+00,NaN,2,0,3,1
35,943,6,127,44,1,2,0,1.091621e+00,NaN,2,1,3,1
35,944,6,23,37,1,1,1,1.174020e+00,NaN,2,0,1,1
35,945,6,63,40,2,2,1,5.337404e-01,NaN,2,1,2,1
35,946,6,13,20,2,2,1,1.518421e+00,NaN,2,0,1,1
35,947,6,139,48,2,2,1,8.796707e-01,NaN,2,0,3,1
35,948,6,107,65,1,1,1,6.742755e-01,NaN,2,0,3,1
35,949,6,105,58,2,1,0,1.253762e+00,NaN,2,1,3,1
35,950,6,70,4,1,1,1,9.697377e-01,NaN,2,0,2,1
35,951,6,62,3,2,2,1,5.849890e-01,NaN,2,1,2,1
35,952,6,34,41,1,1,1,1.175524e+00,NaN,2,0,1,1
35,953,6,12,68,1,1,1,1.111240e+00,NaN,2,0,1,1
35,954,6,17,67,2,2,1,1.489356e+00,NaN,2,0,1,1
35,955,6,64,12,1,1,1,6.118221e-01,NaN,2,1,2,1
35,956,6,137,14,1,1,1,1.257480e+00,NaN,2,0,3,1
35,957,6,61,51,1,1,1,1.221136e+00,NaN,2,0,2,1
35,958,6,71,24,1,2,0,3.146762e+00,NaN,2,0,2,1
35,959,6,6,21,2,2,1,1.002600e+00,NaN,2,0,1,1
35,960,6,31,25,1,1,1,5.125009e-01,NaN,2,0,1,1
35,961,6,134,55,2,2,1,1.218164e+00,NaN,2,0,3,1
35,962,6,39,6,1,1,1,7.125780e-01,NaN,2,0,1,1
35,963,6,110,17,2,1,0,1.232702e+00,NaN,1,0,3,1
35,964,6,112,66,1,1,1,7.976561e-01,NaN,1,0,3,1
35,965,6,59,31,2,2,1,7.077189e-01,NaN,1,1,2,1
35,966,6,18,53,1,1,1,2.021450e+00,NaN,1,0,1,1
35,967,6,129,36,2,1,0,1.250899e+00,NaN,1,0,3,1
35,968,6,128,11,1,1,1,7.107581e-01,NaN,1,1,3,1
35,969,6,56,8,1,1,1,8.091790e-01,NaN,1,0,2,1
35,970,6,97,60,1,1,1,1.127203e+00,NaN,1,1,3,1
35,971,6,95,10,1,1,1,9.204547e-01,NaN,1,1,2,1
35,972,6,124,9,1,1,1,7.380624e-01,NaN,1,0,3,1
35,973,6,44,62,2,1,0,1.362466e+00,NaN,1,0,1,1
35,974,6,50,16,2,2,1,8.896216e-01,NaN,1,1,2,1
35,975,6,58,35,2,2,1,6.925515e-01,NaN,1,0,2,1
35,976,6,46,27,2,2,1,9.109976e-01,NaN,1,0,1,1
35,977,6,77,34,1,1,1,6.971966e-01,NaN,1,0,2,1
35,978,6,55,41,1,1,1,1.227208e+00,NaN,1,0,2,1
35,979,6,36,40,2,2,1,7.044556e-01,NaN,1,1,1,1
35,980,6,113,37,1,1,1,8.827972e-01,NaN,1,0,3,1
35,981,6,126,47,2,1,0,8.531676e-01,NaN,1,1,3,1
35,982,6,93,64,1,1,1,7.451409e-01,NaN,1,0,2,1
35,983,6,2,38,2,2,1,1.650112e+00,NaN,1,0,1,1
35,984,6,21,44,1,1,1,5.420424e-01,NaN,1,1,1,1
35,985,6,106,15,1,1,1,1.558827e+00,NaN,1,0,3,1
35,986,6,121,23,2,2,1,1.198582e+00,NaN,1,0,3,1
35,987,6,47,48,2,2,1,1.036876e+00,NaN,1,0,1,1
35,988,6,43,14,2,1,0,1.729664e+00,NaN,1,0,1,1
35,989,6,20,42,2,1,0,5.704749e-01,NaN,1,0,1,1
35,990,6,101,26,2,2,1,8.658224e-01,NaN,1,0,3,1
35,991,6,75,32,1,1,1,4.849389e-01,NaN,1,0,2,1
35,992,6,26,52,1,1,1,9.677304e-01,NaN,1,1,1,1
35,993,6,65,65,1,1,1,5.832713e-01,NaN,1,0,2,1
35,994,6,81,2,2,2,1,8.058366e-01,NaN,1,0,2,1
35,995,6,52,61,2,2,1,6.835644e-01,NaN,1,0,2,1
35,996,6,94,25,2,2,1,5.586296e-01,NaN,1,0,2,1
35,997,6,72,30,2,2,1,5.675168e-01,NaN,1,0,2,1
35,998,6,133,33,2,2,1,1.110016e+00,NaN,1,0,3,1
35,999,6,41,45,1,1,1,6.397131e-01,NaN,1,0,1,1
35,1000,6,104,13,2,2,1,1.412791e+00,NaN,1,0,3,1
35,1001,6,54,56,1,1,1,6.497844e-01,NaN,1,1,2,1
35,1002,6,4,7,2,2,1,1.893582e+00,NaN,1,1,1,1
35,1003,6,60,63,2,2,1,6.727448e-01,NaN,1,0,2,1
35,1004,6,57,18,1,1,1,5.561765e-01,NaN,1,0,2,1
35,1005,6,84,46,2,1,0,5.000887e-01,NaN,1,0,2,1
35,1006,6,24,22,2,2,1,9.099303e-01,NaN,1,0,1,1
35,1007,6,80,58,1,1,1,8.237393e-01,NaN,1,1,2,1
35,1008,6,116,69,2,2,1,1.093430e+00,NaN,1,0,3,1
35,1009,6,68,6,1,1,1,6.002548e-01,NaN,1,0,2,1
35,1010,6,125,54,1,1,1,1.293747e+00,NaN,1,1,3,1
35,1011,6,37,70,2,1,0,1.544632e+00,NaN,1,1,1,1
35,1012,6,14,3,2,1,0,2.145524e+00,NaN,1,1,1,1
35,1013,6,132,72,1,1,1,1.050729e+00,NaN,1,0,3,1
35,1014,6,114,1,2,1,0,2.717662e+00,NaN,1,0,3,1
35,1015,6,5,39,1,1,1,8.792002e-01,NaN,1,0,1,1
35,1016,6,35,12,2,2,1,1.833924e+00,NaN,1,1,1,1
35,1017,6,108,20,2,2,1,8.860258e-01,NaN,1,0,3,1
35,1018,6,32,59,2,1,0,6.250815e-01,NaN,1,1,1,1
35,1019,6,91,49,1,1,1,5.265113e-01,NaN,1,1,2,1
35,1020,6,16,24,2,2,1,1.175528e+00,NaN,1,0,1,1
35,1021,6,40,29,2,2,1,1.007325e+00,NaN,1,0,1,1
35,1022,6,118,50,1,1,1,8.610551e-01,NaN,1,0,3,1
35,1023,6,22,4,2,2,1,1.169105e+00,NaN,1,0,1,1
35,1024,6,29,51,2,2,1,8.165521e-01,NaN,1,0,1,1
35,1025,6,111,67,2,1,0,9.739780e-01,NaN,1,0,3,1
35,1026,6,89,5,2,2,1,6.049183e-01,NaN,1,0,2,1
35,1027,6,79,28,2,1,0,6.432640e-01,NaN,1,0,2,1
35,1028,6,143,43,2,2,1,5.118181e-01,NaN,1,0,3,1
35,1029,6,130,21,1,1,1,1.161916e+00,NaN,1,0,3,1
35,1030,6,100,57,1,1,1,8.254791e-01,NaN,1,0,3,1
35,1031,6,141,68,2,2,1,8.707654e-01,NaN,1,0,3,1
35,1032,6,78,19,2,2,1,6.421351e-01,NaN,1,0,2,1
35,1033,6,11,55,1,1,1,8.149354e-01,NaN,1,0,1,1
35,1034,6,19,71,2,2,1,1.476795e+00,NaN,1,0,1,1
