Subject,Trial,Cond,ImageNum,CueNum,Correct,Resp,Accuracy,RT,CueRep,ImageType,Baseline,Category,Block
7,1,1,90,NaN,NaN,1,NaN,6.673185e-02,NaN,0,0,2,1
7,2,1,79,NaN,NaN,1,NaN,8.617903e-04,NaN,0,0,2,1
7,3,1,110,NaN,NaN,2,NaN,6.843831e-01,NaN,2,0,3,1
7,4,1,10,NaN,NaN,2,NaN,8.256814e-01,NaN,0,0,1,1
7,5,1,142,NaN,NaN,2,NaN,1.467024e+00,NaN,2,1,3,1
7,6,1,96,NaN,NaN,1,NaN,1.055529e-01,NaN,0,0,2,1
7,7,1,39,NaN,NaN,2,NaN,1.078966e+00,NaN,0,0,1,1
7,8,1,24,NaN,NaN,2,NaN,6.050495e-01,NaN,1,0,1,1
7,9,1,98,NaN,NaN,2,NaN,6.383050e-01,NaN,0,1,3,1
7,10,1,97,NaN,NaN,1,NaN,1.790334e+00,NaN,2,1,3,1
7,11,1,54,NaN,NaN,1,NaN,1.032264e+00,NaN,0,0,2,1
7,12,1,10,NaN,NaN,2,NaN,8.083511e-01,NaN,1,0,1,1
7,13,1,25,NaN,NaN,1,NaN,1.553668e+00,NaN,1,0,1,1
7,14,1,56,NaN,NaN,1,NaN,6.132823e-01,NaN,1,0,2,1
7,15,1,140,NaN,NaN,1,NaN,7.017526e-01,NaN,2,0,3,1
7,16,1,83,NaN,NaN,1,NaN,5.793247e-01,NaN,2,0,2,1
7,17,1,70,NaN,NaN,1,NaN,1.267781e-04,NaN,2,1,2,1
7,18,1,95,NaN,NaN,1,NaN,9.025649e-01,NaN,1,0,2,1
7,19,1,46,NaN,NaN,2,NaN,1.626987e-04,NaN,0,1,1,1
7,20,1,110,NaN,NaN,2,NaN,5.411856e-01,NaN,0,0,3,1
7,21,1,16,NaN,NaN,1,NaN,8.142635e-02,NaN,0,0,1,1
7,22,1,97,NaN,NaN,1,NaN,3.915078e-01,NaN,0,1,3,1
7,23,1,41,NaN,NaN,2,NaN,4.894818e-01,NaN,1,0,1,1
7,24,1,47,NaN,NaN,1,NaN,5.353010e-01,NaN,2,1,1,1
7,25,1,123,NaN,NaN,1,NaN,7.477707e-01,NaN,0,0,3,1
7,26,1,140,NaN,NaN,1,NaN,5.661805e-01,NaN,0,0,3,1
7,27,1,12,NaN,NaN,2,NaN,6.572882e-01,NaN,0,0,1,1
7,28,1,31,NaN,NaN,1,NaN,1.008563e+00,NaN,2,0,1,1
7,29,1,9,NaN,NaN,1,NaN,8.339742e-01,NaN,2,0,1,1
7,30,1,126,NaN,NaN,2,NaN,1.801479e+00,NaN,0,1,3,1
7,31,1,102,NaN,NaN,2,NaN,7.712745e-01,NaN,0,0,3,1
7,32,1,108,NaN,NaN,2,NaN,4.462815e-01,NaN,1,0,3,1
7,33,1,16,NaN,NaN,1,NaN,4.291441e-01,NaN,2,0,1,1
7,34,1,51,NaN,NaN,1,NaN,7.813875e-01,NaN,1,0,2,1
7,35,1,14,NaN,NaN,2,NaN,5.590009e-01,NaN,1,1,1,1
7,36,1,138,NaN,NaN,1,NaN,6.823996e-01,NaN,0,0,3,1
7,37,1,142,NaN,NaN,2,NaN,9.646889e-02,NaN,0,1,3,1
7,38,1,64,NaN,NaN,1,NaN,4.461547e-01,NaN,0,0,2,1
7,39,1,35,NaN,NaN,2,NaN,1.005440e+00,NaN,0,1,1,1
7,40,1,132,NaN,NaN,2,NaN,6.071006e-01,NaN,2,1,3,1
7,41,1,56,NaN,NaN,1,NaN,4.163386e-01,NaN,0,0,2,1
7,42,1,25,NaN,NaN,1,NaN,1.000818e+00,NaN,0,0,1,1
7,43,1,84,NaN,NaN,1,NaN,5.624653e-01,NaN,0,0,2,1
7,44,1,5,NaN,NaN,1,NaN,6.532135e-01,NaN,1,0,1,1
7,45,1,40,NaN,NaN,2,NaN,8.042803e-01,NaN,0,1,1,1
7,46,1,86,NaN,NaN,1,NaN,7.417693e-01,NaN,1,0,2,1
7,47,1,45,NaN,NaN,2,NaN,2.394121e+00,NaN,0,0,1,1
7,48,1,118,NaN,NaN,1,NaN,9.717617e-01,NaN,0,0,3,1
7,49,1,48,NaN,NaN,1,NaN,5.978736e-01,NaN,1,1,1,1
7,50,1,64,NaN,NaN,1,NaN,1.023305e+00,NaN,1,0,2,1
7,51,1,39,NaN,NaN,2,NaN,1.279855e+00,NaN,2,0,1,1
7,52,1,51,NaN,NaN,1,NaN,8.939129e-01,NaN,0,0,2,1
7,53,1,77,NaN,NaN,1,NaN,7.640838e-01,NaN,0,0,2,1
7,54,1,2,NaN,NaN,2,NaN,5.752074e-01,NaN,1,0,1,1
7,55,1,141,NaN,NaN,1,NaN,5.933799e-01,NaN,1,1,3,1
7,56,1,60,NaN,NaN,1,NaN,4.599497e-01,NaN,0,0,2,1
7,57,1,84,NaN,NaN,1,NaN,5.311894e-01,NaN,1,0,2,1
7,58,1,53,NaN,NaN,1,NaN,3.110471e-01,NaN,0,0,2,1
7,59,1,94,NaN,NaN,1,NaN,6.509445e-01,NaN,1,1,2,1
7,60,1,58,NaN,NaN,1,NaN,6.502034e-01,NaN,1,1,2,1
7,61,1,8,NaN,NaN,1,NaN,4.021545e-01,NaN,0,0,1,1
7,62,1,20,NaN,NaN,2,NaN,5.629643e-01,NaN,1,0,1,1
7,63,1,121,NaN,NaN,2,NaN,6.936038e-01,NaN,0,1,3,1
7,64,1,15,NaN,NaN,2,NaN,6.999107e-01,NaN,2,1,1,1
7,65,1,129,NaN,NaN,2,NaN,5.775193e-01,NaN,1,0,3,1
7,66,1,122,NaN,NaN,2,NaN,4.995851e-01,NaN,0,0,3,1
7,67,1,92,NaN,NaN,1,NaN,9.283187e-01,NaN,0,1,2,1
7,68,1,49,NaN,NaN,1,NaN,1.220919e+00,NaN,2,1,2,1
7,69,1,42,NaN,NaN,1,NaN,9.891979e-01,NaN,2,0,1,1
7,70,1,27,NaN,NaN,1,NaN,6.634019e-01,NaN,1,0,1,1
7,71,1,66,NaN,NaN,1,NaN,4.061498e-01,NaN,0,0,2,1
7,72,1,143,NaN,NaN,2,NaN,7.833897e-01,NaN,2,0,3,1
7,73,1,103,NaN,NaN,1,NaN,6.818793e-01,NaN,1,1,3,1
7,74,1,92,NaN,NaN,1,NaN,6.156808e-01,NaN,2,1,2,1
7,75,1,22,NaN,NaN,2,NaN,8.322349e-01,NaN,0,0,1,1
7,76,1,26,NaN,NaN,2,NaN,7.842708e-01,NaN,0,0,1,1
7,77,1,86,NaN,NaN,1,NaN,7.704499e-01,NaN,0,0,2,1
7,78,1,54,NaN,NaN,1,NaN,3.253655e-01,NaN,1,0,2,1
7,79,1,58,NaN,NaN,1,NaN,5.765208e-01,NaN,0,1,2,1
7,80,1,134,NaN,NaN,2,NaN,4.433970e-01,NaN,1,0,3,1
7,81,1,59,NaN,NaN,1,NaN,8.354252e-01,NaN,0,1,2,1
7,82,1,42,NaN,NaN,1,NaN,2.235507e+00,NaN,0,0,1,1
7,83,1,3,NaN,NaN,2,NaN,7.473684e-01,NaN,0,0,1,1
7,84,1,5,NaN,NaN,1,NaN,6.548115e-01,NaN,0,0,1,1
7,85,1,79,NaN,NaN,1,NaN,6.143683e-01,NaN,2,0,2,1
7,86,1,81,NaN,NaN,1,NaN,4.071779e-01,NaN,0,0,2,1
7,87,1,34,NaN,NaN,1,NaN,1.232228e+00,NaN,1,0,1,1
7,88,1,99,NaN,NaN,2,NaN,1.231560e-04,NaN,2,0,3,1
7,89,1,23,NaN,NaN,1,NaN,4.977341e-01,NaN,1,0,1,1
7,90,1,14,NaN,NaN,1,NaN,5.509596e-01,NaN,0,1,1,1
7,91,1,144,NaN,NaN,1,NaN,3.624548e-01,NaN,2,0,3,1
7,92,1,83,NaN,NaN,1,NaN,6.929560e-01,NaN,0,0,2,1
7,93,1,74,NaN,NaN,1,NaN,1.387120e+00,NaN,0,1,2,1
7,94,1,3,NaN,NaN,2,NaN,7.252966e-01,NaN,2,0,1,1
7,95,1,100,NaN,NaN,2,NaN,1.234579e-04,NaN,0,1,3,1
7,96,1,62,NaN,NaN,1,NaN,4.909135e-01,NaN,0,0,2,1
7,97,1,40,NaN,NaN,1,NaN,6.256655e-01,NaN,1,1,1,1
7,98,1,135,NaN,NaN,1,NaN,4.900731e-01,NaN,1,0,3,1
7,99,1,114,NaN,NaN,1,NaN,5.519475e-01,NaN,1,0,3,1
7,100,1,139,NaN,NaN,1,NaN,5.711605e-01,NaN,1,0,3,1
7,101,1,7,NaN,NaN,1,NaN,4.620237e-01,NaN,1,0,1,1
7,102,1,81,NaN,NaN,1,NaN,1.452949e+00,NaN,1,0,2,1
7,103,1,23,NaN,NaN,1,NaN,1.492311e+00,NaN,0,0,1,1
7,104,1,29,NaN,NaN,1,NaN,6.343284e-01,NaN,2,0,1,1
7,105,1,65,NaN,NaN,1,NaN,2.984137e-01,NaN,2,0,2,1
7,106,1,96,NaN,NaN,1,NaN,7.116501e-01,NaN,1,0,2,1
7,107,1,12,NaN,NaN,1,NaN,2.927434e-01,NaN,2,0,1,1
7,108,1,4,NaN,NaN,1,NaN,4.586357e-01,NaN,1,1,1,1
7,109,1,130,NaN,NaN,2,NaN,4.337793e-01,NaN,2,0,3,1
7,110,1,103,NaN,NaN,1,NaN,4.660197e-01,NaN,0,1,3,1
7,111,1,120,NaN,NaN,1,NaN,1.040516e+00,NaN,0,0,3,1
7,112,1,2,NaN,NaN,1,NaN,1.904748e+00,NaN,0,0,1,1
7,113,1,137,NaN,NaN,1,NaN,7.903531e-01,NaN,0,0,3,1
7,114,1,18,NaN,NaN,1,NaN,8.562564e-01,NaN,0,0,1,1
7,115,1,143,NaN,NaN,1,NaN,4.877386e-01,NaN,0,0,3,1
7,116,1,60,NaN,NaN,1,NaN,3.016248e-01,NaN,2,0,2,1
7,117,1,132,NaN,NaN,1,NaN,1.442574e+00,NaN,0,1,3,1
7,118,1,28,NaN,NaN,1,NaN,6.268424e-01,NaN,2,0,1,1
7,119,1,29,NaN,NaN,1,NaN,6.918147e-01,NaN,0,0,1,1
7,120,1,128,NaN,NaN,1,NaN,7.530022e-01,NaN,1,1,3,1
7,121,1,22,NaN,NaN,2,NaN,5.805385e-01,NaN,1,0,1,1
7,122,1,73,NaN,NaN,1,NaN,1.854453e+00,NaN,0,0,2,1
7,123,1,43,NaN,NaN,1,NaN,8.617341e-01,NaN,2,0,1,1
7,124,1,109,NaN,NaN,1,NaN,5.483301e-01,NaN,0,0,3,1
7,125,1,121,NaN,NaN,2,NaN,7.198723e-01,NaN,1,1,3,1
7,126,1,18,NaN,NaN,1,NaN,2.060227e+00,NaN,2,0,1,1
7,127,1,44,NaN,NaN,1,NaN,5.721403e-01,NaN,0,0,1,1
7,128,1,32,NaN,NaN,1,NaN,5.585735e-01,NaN,0,0,1,1
7,129,1,122,NaN,NaN,2,NaN,3.379788e-01,NaN,1,0,3,1
7,130,1,4,NaN,NaN,1,NaN,1.504206e-01,NaN,0,1,1,1
7,131,1,119,NaN,NaN,2,NaN,9.377956e-01,NaN,1,0,3,1
7,132,1,90,NaN,NaN,1,NaN,6.135406e-01,NaN,2,0,2,1
7,133,1,69,NaN,NaN,1,NaN,6.937517e-01,NaN,0,1,2,1
7,134,1,98,NaN,NaN,1,NaN,4.276421e-01,NaN,2,1,3,1
7,135,1,136,NaN,NaN,1,NaN,3.796396e-01,NaN,1,1,3,1
7,136,1,75,NaN,NaN,1,NaN,5.254675e-01,NaN,0,1,2,1
7,137,1,104,NaN,NaN,2,NaN,9.387960e-01,NaN,2,1,3,1
7,138,1,57,NaN,NaN,1,NaN,3.903170e-01,NaN,0,0,2,1
7,139,1,38,NaN,NaN,1,NaN,6.081803e-01,NaN,0,0,1,1
7,140,1,88,NaN,NaN,1,NaN,4.569620e-01,NaN,0,0,2,1
7,141,1,108,NaN,NaN,1,NaN,3.607735e-01,NaN,0,0,3,1
7,142,1,112,NaN,NaN,1,NaN,1.234579e-04,NaN,0,0,3,1
7,143,1,91,NaN,NaN,1,NaN,5.293294e-03,NaN,2,0,2,1
7,144,1,85,NaN,NaN,1,NaN,3.423988e-01,NaN,0,0,2,1
7,145,1,67,NaN,NaN,1,NaN,3.145812e-01,NaN,2,0,2,1
7,146,1,127,NaN,NaN,1,NaN,5.515123e-01,NaN,1,0,3,1
7,147,1,11,NaN,NaN,1,NaN,3.944292e-01,NaN,2,1,1,1
7,148,1,89,NaN,NaN,1,NaN,3.959713e-01,NaN,1,1,2,1
7,149,1,50,NaN,NaN,1,NaN,5.174116e-01,NaN,0,0,2,1
7,150,1,6,NaN,NaN,1,NaN,3.220228e-01,NaN,1,0,1,1
7,151,1,131,NaN,NaN,1,NaN,6.549525e-01,NaN,2,0,3,1
7,152,1,45,NaN,NaN,2,NaN,4.700787e-01,NaN,1,0,1,1
7,153,1,44,NaN,NaN,1,NaN,4.766219e-01,NaN,1,0,1,1
7,154,1,87,NaN,NaN,1,NaN,4.197245e-01,NaN,2,1,2,1
7,155,1,72,NaN,NaN,1,NaN,5.323546e-01,NaN,0,0,2,1
7,156,1,52,NaN,NaN,1,NaN,1.112326e+00,NaN,2,0,2,1
7,157,1,55,NaN,NaN,1,NaN,4.449651e-01,NaN,0,0,2,1
7,158,1,113,NaN,NaN,1,NaN,1.900653e+00,NaN,2,0,3,1
7,159,1,24,NaN,NaN,1,NaN,5.301411e-01,NaN,0,0,1,1
7,160,1,101,NaN,NaN,2,NaN,1.477963e+00,NaN,0,0,3,1
7,161,1,131,NaN,NaN,1,NaN,1.644226e+00,NaN,0,0,3,1
7,162,1,80,NaN,NaN,1,NaN,5.721835e-01,NaN,0,1,2,1
7,163,1,93,NaN,NaN,1,NaN,5.905883e-01,NaN,2,0,2,1
7,164,1,133,NaN,NaN,2,NaN,3.941319e-01,NaN,2,0,3,1
7,165,1,111,NaN,NaN,1,NaN,5.388263e-01,NaN,0,0,3,1
7,166,1,144,NaN,NaN,1,NaN,4.548106e-01,NaN,0,0,3,1
7,167,1,6,NaN,NaN,1,NaN,1.234579e-04,NaN,0,0,1,1
7,168,1,106,NaN,NaN,1,NaN,6.395407e-01,NaN,0,0,3,1
7,169,1,111,NaN,NaN,1,NaN,1.243635e-04,NaN,2,0,3,1
7,170,1,9,NaN,NaN,1,NaN,4.322151e-01,NaN,0,0,1,1
7,171,1,34,NaN,NaN,1,NaN,2.191717e+00,NaN,0,0,1,1
7,172,1,93,NaN,NaN,1,NaN,4.176302e-01,NaN,0,0,2,1
7,173,1,135,NaN,NaN,1,NaN,3.362697e+00,NaN,0,0,3,1
7,174,1,66,NaN,NaN,1,NaN,8.052568e-01,NaN,2,0,2,1
7,175,1,48,NaN,NaN,1,NaN,3.264540e-01,NaN,0,1,1,1
7,176,1,68,NaN,NaN,1,NaN,9.076390e-01,NaN,1,0,2,1
7,177,1,134,NaN,NaN,2,NaN,1.744898e+00,NaN,0,0,3,1
7,178,1,76,NaN,NaN,1,NaN,1.320622e-01,NaN,2,0,2,1
7,179,1,124,NaN,NaN,1,NaN,4.400205e+00,NaN,2,0,3,1
7,180,1,114,NaN,NaN,1,NaN,6.492019e-01,NaN,0,0,3,1
7,181,1,139,NaN,NaN,1,NaN,6.489012e-01,NaN,0,0,3,1
7,182,1,117,NaN,NaN,2,NaN,9.684654e-01,NaN,2,0,3,1
7,183,1,95,NaN,NaN,1,NaN,7.390218e-01,NaN,0,0,2,1
7,184,1,130,NaN,NaN,2,NaN,6.872522e-01,NaN,0,0,3,1
7,185,1,43,NaN,NaN,1,NaN,6.047978e-01,NaN,0,0,1,1
7,186,1,76,NaN,NaN,1,NaN,6.703977e-01,NaN,0,0,2,1
7,187,1,30,NaN,NaN,2,NaN,8.454685e-01,NaN,1,0,1,1
7,188,1,8,NaN,NaN,1,NaN,7.088124e-01,NaN,2,0,1,1
7,189,1,82,NaN,NaN,1,NaN,9.644807e-03,NaN,2,0,2,1
7,190,1,126,NaN,NaN,2,NaN,5.794946e-01,NaN,2,1,3,1
7,191,1,28,NaN,NaN,1,NaN,1.225524e-04,NaN,0,0,1,1
7,192,1,105,NaN,NaN,1,NaN,3.427589e-01,NaN,1,0,3,1
7,193,1,46,NaN,NaN,1,NaN,5.069334e-01,NaN,2,1,1,1
7,194,1,49,NaN,NaN,1,NaN,4.717627e-01,NaN,0,1,2,1
7,195,1,75,NaN,NaN,1,NaN,5.042327e-01,NaN,1,1,2,1
7,196,1,129,NaN,NaN,2,NaN,1.556283e+00,NaN,0,0,3,1
7,197,1,128,NaN,NaN,1,NaN,8.315298e-01,NaN,0,1,3,1
7,198,1,21,NaN,NaN,1,NaN,8.477517e-01,NaN,2,0,1,1
7,199,1,89,NaN,NaN,1,NaN,4.792333e-01,NaN,0,1,2,1
7,200,1,68,NaN,NaN,1,NaN,4.768752e-01,NaN,0,0,2,1
7,201,1,137,NaN,NaN,1,NaN,5.479302e-01,NaN,1,0,3,1
7,202,1,87,NaN,NaN,1,NaN,3.918625e-02,NaN,0,1,2,1
7,203,1,7,NaN,NaN,1,NaN,3.110773e-01,NaN,0,0,1,1
7,204,1,82,NaN,NaN,1,NaN,4.998661e-01,NaN,0,0,2,1
7,205,1,72,NaN,NaN,1,NaN,4.809831e-01,NaN,1,0,2,1
7,206,1,26,NaN,NaN,1,NaN,1.399414e+00,NaN,2,0,1,1
7,207,1,115,NaN,NaN,2,NaN,4.649149e-01,NaN,0,0,3,1
7,208,1,116,NaN,NaN,1,NaN,3.996141e-01,NaN,1,0,3,1
7,209,1,21,NaN,NaN,1,NaN,1.444862e-01,NaN,0,0,1,1
7,210,1,138,NaN,NaN,1,NaN,6.437021e-01,NaN,1,0,3,1
7,211,1,70,NaN,NaN,1,NaN,6.042738e-01,NaN,0,1,2,1
7,212,1,101,NaN,NaN,1,NaN,1.197427e+00,NaN,2,0,3,1
7,213,1,102,NaN,NaN,1,NaN,7.266513e-01,NaN,2,0,3,1
7,214,1,100,NaN,NaN,2,NaN,3.557905e-01,NaN,1,1,3,1
7,215,1,116,NaN,NaN,1,NaN,3.511199e-01,NaN,0,0,3,1
7,216,1,20,NaN,NaN,1,NaN,9.303021e-01,NaN,0,0,1,1
7,217,1,71,NaN,NaN,1,NaN,2.854880e-01,NaN,1,0,2,1
7,218,1,65,NaN,NaN,1,NaN,6.669110e-01,NaN,0,0,2,1
7,219,1,32,NaN,NaN,1,NaN,5.297221e-01,NaN,2,0,1,1
7,220,1,136,NaN,NaN,1,NaN,3.339729e-01,NaN,0,1,3,1
7,221,1,1,NaN,NaN,1,NaN,3.302302e-01,NaN,0,0,1,1
7,222,1,141,NaN,NaN,1,NaN,4.290611e-01,NaN,0,1,3,1
7,223,1,73,NaN,NaN,1,NaN,4.693796e-01,NaN,2,0,2,1
7,224,1,120,NaN,NaN,1,NaN,5.240132e-01,NaN,2,0,3,1
7,225,1,19,NaN,NaN,2,NaN,5.288633e-01,NaN,2,0,1,1
7,226,1,17,NaN,NaN,1,NaN,3.246390e-01,NaN,0,0,1,1
7,227,1,119,NaN,NaN,1,NaN,3.354885e-02,NaN,0,0,3,1
7,228,1,88,NaN,NaN,1,NaN,5.053828e-01,NaN,1,0,2,1
7,229,1,124,NaN,NaN,1,NaN,4.387231e-01,NaN,0,0,3,1
7,230,1,41,NaN,NaN,1,NaN,4.229214e-01,NaN,0,0,1,1
7,231,1,123,NaN,NaN,1,NaN,4.155115e-01,NaN,1,0,3,1
7,232,1,13,NaN,NaN,1,NaN,1.184197e+00,NaN,2,1,1,1
7,233,1,105,NaN,NaN,1,NaN,4.264884e-01,NaN,0,0,3,1
7,234,1,47,NaN,NaN,1,NaN,5.931260e-02,NaN,0,1,1,1
7,235,1,63,NaN,NaN,1,NaN,3.381747e-01,NaN,2,0,2,1
7,236,1,11,NaN,NaN,1,NaN,1.086667e+00,NaN,0,1,1,1
7,237,1,15,NaN,NaN,1,NaN,2.948329e+00,NaN,0,1,1,1
7,238,1,30,NaN,NaN,1,NaN,8.230921e-01,NaN,0,0,1,1
7,239,1,37,NaN,NaN,2,NaN,1.023704e+00,NaN,0,0,1,1
7,240,1,91,NaN,NaN,1,NaN,4.408795e-01,NaN,0,0,2,1
7,241,1,50,NaN,NaN,1,NaN,5.447402e-01,NaN,2,0,2,1
7,242,1,61,NaN,NaN,1,NaN,5.234526e-01,NaN,0,0,2,1
7,243,1,127,NaN,NaN,1,NaN,4.003757e-01,NaN,0,0,3,1
7,244,1,109,NaN,NaN,1,NaN,4.589654e-01,NaN,1,0,3,1
7,245,1,55,NaN,NaN,1,NaN,3.053050e-01,NaN,2,0,2,1
7,246,1,1,NaN,NaN,1,NaN,4.866314e-01,NaN,1,0,1,1
7,247,1,133,NaN,NaN,2,NaN,3.801721e-01,NaN,0,0,3,1
7,248,1,36,NaN,NaN,1,NaN,6.224450e-01,NaN,1,0,1,1
7,249,1,71,NaN,NaN,1,NaN,3.914137e-01,NaN,0,0,2,1
7,250,1,38,NaN,NaN,1,NaN,6.973559e-01,NaN,2,0,1,1
7,251,1,36,NaN,NaN,1,NaN,6.143840e-01,NaN,0,0,1,1
7,252,1,53,NaN,NaN,1,NaN,5.913587e-01,NaN,2,0,2,1
7,253,1,106,NaN,NaN,1,NaN,6.252305e-01,NaN,1,0,3,1
7,254,1,112,NaN,NaN,1,NaN,5.217115e-01,NaN,2,0,3,1
7,255,1,107,NaN,NaN,1,NaN,5.429943e-02,NaN,2,1,3,1
7,256,1,78,NaN,NaN,1,NaN,1.820726e-01,NaN,1,0,2,1
7,257,1,57,NaN,NaN,1,NaN,2.001388e-01,NaN,1,0,2,1
7,258,1,62,NaN,NaN,1,NaN,1.089425e+00,NaN,1,0,2,1
7,259,1,118,NaN,NaN,1,NaN,7.959612e+00,NaN,1,0,3,1
7,260,1,33,NaN,NaN,1,NaN,2.171242e+00,NaN,2,1,1,1
7,261,1,33,NaN,NaN,1,NaN,2.297844e-01,NaN,0,1,1,1
7,262,1,113,NaN,NaN,1,NaN,6.459898e-01,NaN,0,0,3,1
7,263,1,35,NaN,NaN,2,NaN,3.170564e-01,NaN,1,1,1,1
7,264,1,13,NaN,NaN,1,NaN,8.177348e-02,NaN,0,1,1,1
7,265,1,63,NaN,NaN,1,NaN,1.276837e-04,NaN,0,0,2,1
7,266,1,125,NaN,NaN,1,NaN,2.969258e-01,NaN,2,0,3,1
7,267,1,115,NaN,NaN,1,NaN,6.143665e-01,NaN,1,0,3,1
7,268,1,37,NaN,NaN,1,NaN,4.873899e-01,NaN,2,0,1,1
7,269,1,78,NaN,NaN,1,NaN,7.971539e-01,NaN,0,0,2,1
7,270,1,77,NaN,NaN,1,NaN,5.424005e-01,NaN,1,0,2,1
7,271,1,59,NaN,NaN,1,NaN,4.670568e-01,NaN,1,1,2,1
7,272,1,117,NaN,NaN,1,NaN,5.216762e-01,NaN,0,0,3,1
7,273,1,19,NaN,NaN,1,NaN,2.702644e-01,NaN,0,0,1,1
7,274,1,107,NaN,NaN,1,NaN,9.312527e-02,NaN,0,1,3,1
7,275,1,67,NaN,NaN,1,NaN,1.282875e-04,NaN,0,0,2,1
7,276,1,17,NaN,NaN,1,NaN,7.655091e-01,NaN,1,0,1,1
7,277,1,80,NaN,NaN,1,NaN,1.188323e-01,NaN,1,1,2,1
7,278,1,61,NaN,NaN,1,NaN,1.243635e-04,NaN,2,0,2,1
7,279,1,74,NaN,NaN,1,NaN,3.971480e-01,NaN,2,1,2,1
7,280,1,27,NaN,NaN,1,NaN,1.425286e-01,NaN,0,0,1,1
7,281,1,94,NaN,NaN,1,NaN,4.826409e-01,NaN,0,1,2,1
7,282,1,52,NaN,NaN,1,NaN,1.044816e-01,NaN,0,0,2,1
7,283,1,99,NaN,NaN,1,NaN,9.368219e-02,NaN,0,0,3,1
7,284,1,104,NaN,NaN,1,NaN,9.796077e-01,NaN,0,1,3,1
7,285,1,69,NaN,NaN,1,NaN,5.978911e-01,NaN,1,1,2,1
7,286,1,31,NaN,NaN,1,NaN,2.103479e+00,NaN,0,0,1,1
7,287,1,125,NaN,NaN,1,NaN,1.288912e-04,NaN,0,0,3,1
7,288,1,85,NaN,NaN,1,NaN,1.419910e-01,NaN,2,0,2,1
7,369,2,136,47,1,1,1,2.318017e+00,NaN,1,1,3,1
7,370,2,72,66,2,2,1,6.799758e-01,NaN,1,0,2,1
7,371,2,80,65,1,1,1,6.736574e-01,NaN,1,1,2,1
7,372,2,137,51,2,1,0,2.644790e+00,NaN,1,0,3,1
7,373,2,57,5,1,1,1,7.522128e-01,NaN,1,0,2,1
7,374,2,122,9,2,2,1,1.527589e+00,NaN,1,0,3,1
7,375,2,116,18,1,1,1,1.040376e+00,NaN,1,0,3,1
7,376,2,4,20,2,1,0,9.726624e-01,NaN,1,1,1,1
7,377,2,59,64,2,2,1,1.163075e+00,NaN,1,1,2,1
7,378,2,103,7,2,2,1,1.257833e+00,NaN,1,1,3,1
7,379,2,134,59,1,1,1,2.437099e+00,NaN,1,0,3,1
7,380,2,24,37,1,1,1,1.649583e+00,NaN,1,0,1,1
7,381,2,86,57,1,1,1,1.236852e+00,NaN,1,0,2,1
7,382,2,7,56,2,2,1,9.291895e-01,NaN,1,0,1,1
7,383,2,14,44,1,1,1,1.048903e+00,NaN,1,1,1,1
7,384,2,95,25,1,1,1,1.212536e+00,NaN,1,0,2,1
7,385,2,58,72,2,2,1,1.121159e+00,NaN,1,1,2,1
7,386,2,62,4,2,2,1,1.169895e+00,NaN,1,0,2,1
7,387,2,34,34,1,1,1,1.056638e+00,NaN,1,0,1,1
7,388,2,6,3,2,2,1,1.452400e+00,NaN,1,0,1,1
7,389,2,138,62,1,1,1,1.991471e+00,NaN,1,0,3,1
7,390,2,64,54,2,2,1,2.629468e+00,NaN,1,0,2,1
7,391,2,81,8,1,2,0,1.361383e+00,NaN,1,0,2,1
7,392,2,54,45,1,1,1,2.248777e+00,NaN,1,0,2,1
7,393,3,86,57,2,2,1,1.562815e+00,NaN,1,0,2,1
7,394,3,80,65,1,1,1,8.338589e-01,NaN,1,1,2,1
7,395,3,103,7,2,1,0,1.109331e+00,NaN,1,1,3,1
7,396,3,122,9,2,2,1,2.182913e+00,NaN,1,0,3,1
7,397,3,14,44,1,1,1,1.261471e+00,NaN,1,1,1,1
7,398,3,64,54,1,1,1,7.687571e-01,NaN,1,0,2,1
7,399,3,24,37,2,2,1,1.247528e+00,NaN,1,0,1,1
7,400,3,6,3,2,2,1,1.018724e+00,NaN,1,0,1,1
7,401,3,7,56,2,2,1,1.735541e+00,NaN,1,0,1,1
7,402,3,62,4,1,1,1,1.599752e+00,NaN,1,0,2,1
7,403,3,137,51,1,1,1,1.501145e+00,NaN,1,0,3,1
7,404,3,81,8,2,2,1,1.558798e+00,NaN,1,0,2,1
7,405,3,72,66,2,2,1,1.037755e+00,NaN,1,0,2,1
7,406,3,134,59,2,2,1,1.306542e+00,NaN,1,0,3,1
7,407,3,57,5,1,1,1,8.916375e-01,NaN,1,0,2,1
7,408,3,136,47,1,1,1,9.979263e-01,NaN,1,1,3,1
7,409,3,4,20,2,1,0,2.722629e+00,NaN,1,1,1,1
7,410,3,138,62,2,2,1,1.147719e+00,NaN,1,0,3,1
7,411,3,95,25,2,1,0,1.427183e+00,NaN,1,0,2,1
7,412,3,116,18,2,2,1,1.183940e+00,NaN,1,0,3,1
7,413,3,34,34,1,1,1,2.133892e+00,NaN,1,0,1,1
7,414,3,59,64,2,2,1,8.541757e-01,NaN,1,1,2,1
7,415,3,54,45,1,1,1,1.417798e+00,NaN,1,0,2,1
7,416,3,58,72,2,2,1,7.343193e-01,NaN,1,1,2,1
7,441,2,71,14,1,1,1,7.465476e-01,NaN,1,0,2,2
7,442,2,36,60,2,2,1,1.338269e+00,NaN,1,0,1,2
7,443,2,56,27,2,2,1,1.466068e+00,NaN,1,0,2,2
7,444,2,109,67,2,2,1,1.013416e+00,NaN,1,0,3,2
7,445,2,20,28,2,2,1,1.049538e+00,NaN,1,0,1,2
7,446,2,119,52,1,1,1,1.093673e+00,NaN,1,0,3,2
7,447,2,45,41,1,1,1,8.309868e-01,NaN,1,0,1,2
7,448,2,88,17,1,1,1,1.635415e+00,NaN,1,0,2,2
7,449,2,127,55,1,1,1,2.063501e+00,NaN,1,0,3,2
7,450,2,78,71,2,2,1,2.074521e+00,NaN,1,0,2,2
7,451,2,17,63,2,1,0,2.229096e+00,NaN,1,0,1,2
7,452,2,100,1,1,1,1,1.129003e+00,NaN,1,1,3,2
7,453,2,35,32,1,1,1,1.241591e+00,NaN,1,1,1,2
7,454,2,106,40,1,1,1,9.331103e-01,NaN,1,0,3,2
7,455,2,129,33,2,2,1,1.213451e+00,NaN,1,0,3,2
7,456,2,30,36,1,1,1,1.258402e+00,NaN,1,0,1,2
7,457,2,44,58,2,2,1,3.333987e+00,NaN,1,0,1,2
7,458,2,22,50,1,1,1,3.317833e+00,NaN,1,0,1,2
7,459,2,115,22,1,1,1,2.718694e+00,NaN,1,0,3,2
7,460,2,139,61,2,2,1,1.559519e+00,NaN,1,0,3,2
7,461,2,123,16,2,1,0,9.667723e-01,NaN,1,0,3,2
7,462,2,2,21,1,1,1,1.439176e+00,NaN,1,0,1,2
7,463,2,89,12,1,1,1,1.057856e+00,NaN,1,1,2,2
7,464,2,40,15,1,1,1,2.366465e+00,NaN,1,1,1,2
7,465,3,22,50,2,2,1,1.899834e+00,NaN,1,0,1,2
7,466,3,36,60,2,2,1,1.245552e+00,NaN,1,0,1,2
7,467,3,40,15,2,2,1,1.448961e+00,NaN,1,1,1,2
7,468,3,127,55,2,2,1,1.372269e+00,NaN,1,0,3,2
7,469,3,100,1,2,2,1,1.050885e+00,NaN,1,1,3,2
7,470,3,89,12,1,1,1,7.105067e-01,NaN,1,1,2,2
7,471,3,115,22,2,1,0,1.735770e+00,NaN,1,0,3,2
7,472,3,35,32,2,2,1,1.039617e+00,NaN,1,1,1,2
7,473,3,106,40,1,1,1,7.082395e-01,NaN,1,0,3,2
7,474,3,45,41,2,2,1,7.173521e-01,NaN,1,0,1,2
7,475,3,56,27,1,1,1,8.940762e-01,NaN,1,0,2,2
7,476,3,78,71,2,2,1,1.576210e+00,NaN,1,0,2,2
7,477,3,119,52,1,1,1,1.151279e+00,NaN,1,0,3,2
7,478,3,123,16,2,1,0,9.585287e-01,NaN,1,0,3,2
7,479,3,17,63,1,1,1,2.054002e+00,NaN,1,0,1,2
7,480,3,44,58,1,2,0,1.937438e+00,NaN,1,0,1,2
7,481,3,88,17,2,2,1,8.897231e-01,NaN,1,0,2,2
7,482,3,109,67,2,2,1,1.107657e+00,NaN,1,0,3,2
7,483,3,20,28,2,2,1,1.021057e+00,NaN,1,0,1,2
7,484,3,2,21,1,1,1,1.225738e+00,NaN,1,0,1,2
7,485,3,129,33,1,1,1,1.166638e+00,NaN,1,0,3,2
7,486,3,30,36,2,2,1,9.730436e-01,NaN,1,0,1,2
7,487,3,71,14,1,1,1,1.036228e+00,NaN,1,0,2,2
7,488,3,139,61,2,1,0,1.600147e+00,NaN,1,0,3,2
7,513,2,1,48,2,1,0,3.417718e+00,NaN,1,0,1,3
7,514,2,77,46,1,1,1,1.014765e+00,NaN,1,0,2,3
7,515,2,121,53,2,2,1,1.179483e+00,NaN,1,1,3,3
7,516,2,5,29,2,2,1,2.257620e+00,NaN,1,0,1,3
7,517,2,27,13,2,2,1,2.420877e+00,NaN,1,0,1,3
7,518,2,25,69,1,1,1,2.489750e+00,NaN,1,0,1,3
7,519,2,48,10,2,2,1,2.467675e+00,NaN,1,1,1,3
7,520,2,135,26,1,1,1,1.902643e+00,NaN,1,0,3,3
7,521,2,128,43,2,2,1,1.392072e+00,NaN,1,1,3,3
7,522,2,94,19,1,1,1,1.461973e+00,NaN,1,1,2,3
7,523,2,68,30,2,2,1,1.272859e+00,NaN,1,0,2,3
7,524,2,75,49,1,1,1,9.877587e-01,NaN,1,1,2,3
7,525,2,10,2,2,2,1,2.249821e+00,NaN,1,0,1,3
7,526,2,118,68,2,2,1,2.573442e+00,NaN,1,0,3,3
7,527,2,108,24,2,2,1,1.092279e+00,NaN,1,0,3,3
7,528,2,141,23,1,1,1,1.333931e+00,NaN,1,1,3,3
7,529,2,69,11,2,2,1,9.901466e-01,NaN,1,1,2,3
7,530,2,84,38,1,1,1,1.036327e+00,NaN,1,0,2,3
7,531,2,105,35,1,1,1,2.896261e+00,NaN,1,0,3,3
7,532,2,41,39,1,1,1,2.329871e+00,NaN,1,0,1,3
7,533,2,114,31,1,2,0,3.410205e+00,NaN,1,0,3,3
7,534,2,96,6,1,1,1,1.231248e+00,NaN,1,0,2,3
7,535,2,23,70,2,2,1,1.139774e+00,NaN,1,0,1,3
7,536,2,51,42,1,1,1,2.115912e+00,NaN,1,0,2,3
7,537,3,1,48,1,1,1,6.597091e-01,NaN,1,0,1,3
7,538,3,114,31,1,1,1,3.254330e+00,NaN,1,0,3,3
7,539,3,128,43,2,2,1,1.849678e+00,NaN,1,1,3,3
7,540,3,77,46,2,2,1,6.053973e-01,NaN,1,0,2,3
7,541,3,96,6,2,2,1,6.028792e-01,NaN,1,0,2,3
7,542,3,94,19,1,1,1,1.128518e+00,NaN,1,1,2,3
7,543,3,25,69,2,2,1,2.408627e+00,NaN,1,0,1,3
7,544,3,48,10,1,1,1,7.741856e-01,NaN,1,1,1,3
7,545,3,10,2,1,1,1,8.207745e-01,NaN,1,0,1,3
7,546,3,23,70,2,2,1,9.854866e-01,NaN,1,0,1,3
7,547,3,118,68,2,2,1,2.791220e+00,NaN,1,0,3,3
7,548,3,5,29,2,2,1,1.213509e+00,NaN,1,0,1,3
7,549,3,141,23,1,2,0,2.082279e+00,NaN,1,1,3,3
7,550,3,69,11,1,1,1,5.323316e-01,NaN,1,1,2,3
7,551,3,27,13,1,1,1,2.908126e+00,NaN,1,0,1,3
7,552,3,41,39,1,2,0,2.102112e+00,NaN,1,0,1,3
7,553,3,135,26,2,2,1,7.433906e-01,NaN,1,0,3,3
7,554,3,68,30,2,2,1,1.047612e+00,NaN,1,0,2,3
7,555,3,51,42,2,2,1,1.458986e+00,NaN,1,0,2,3
7,556,3,108,24,2,2,1,1.118123e+00,NaN,1,0,3,3
7,557,3,75,49,2,2,1,1.151119e+00,NaN,1,1,2,3
7,558,3,84,38,2,2,1,7.822475e-01,NaN,1,0,2,3
7,559,3,121,53,2,2,1,2.508591e+00,NaN,1,1,3,3
7,560,3,105,35,2,2,1,1.446081e+00,NaN,1,0,3,3
7,585,4,142,15,1,1,1,1.071089e+00,NaN,2,1,3,1
7,586,4,124,3,2,2,1,2.633395e+00,NaN,2,0,3,1
7,587,4,140,36,2,2,1,1.069715e+00,NaN,2,0,3,1
7,588,4,66,39,2,2,1,9.923172e-01,NaN,2,0,2,1
7,589,4,93,18,1,1,1,8.221911e-01,NaN,2,0,2,1
7,590,4,11,49,1,1,1,2.739535e+00,NaN,2,1,1,1
7,591,4,98,11,2,2,1,1.011351e+00,NaN,2,1,3,1
7,592,4,21,38,2,2,1,1.064320e+00,NaN,2,0,1,1
7,593,4,90,35,1,2,0,3.091212e+00,NaN,2,0,2,1
7,594,4,83,52,1,1,1,1.653130e+00,NaN,2,0,2,1
7,595,4,112,27,1,1,1,1.088525e+00,NaN,2,0,3,1
7,596,4,47,47,2,2,1,2.290613e+00,NaN,2,1,1,1
7,597,4,53,29,2,1,0,1.316749e+00,NaN,2,0,2,1
7,598,4,33,7,2,1,0,1.349735e+00,NaN,2,1,1,1
7,599,4,125,34,2,2,1,1.180857e+00,NaN,2,0,3,1
7,600,4,18,4,1,1,1,1.155059e+00,NaN,2,0,1,1
7,601,4,99,54,2,2,1,1.066573e+00,NaN,2,0,3,1
7,602,4,61,28,1,1,1,8.368645e-01,NaN,2,0,2,1
7,603,4,101,45,1,1,1,1.473314e+00,NaN,2,0,3,1
7,604,4,133,70,2,2,1,1.092268e+00,NaN,2,0,3,1
7,605,4,120,13,2,2,1,1.710221e+00,NaN,2,0,3,1
7,606,4,73,24,1,2,0,8.552859e-01,NaN,2,0,2,1
7,607,4,74,1,2,1,0,1.339258e+00,NaN,2,1,2,1
7,608,4,79,31,2,1,0,2.699216e+00,NaN,2,0,2,1
7,633,4,117,5,1,1,1,2.424685e+00,NaN,2,0,3,2
7,634,4,130,48,1,1,1,8.456463e-01,NaN,2,0,3,2
7,635,4,29,59,1,1,1,1.465200e+00,NaN,2,0,1,2
7,636,4,87,43,2,2,1,1.483506e+00,NaN,2,1,2,2
7,637,4,42,67,2,2,1,1.021820e+00,NaN,2,0,1,2
7,638,4,92,23,1,1,1,2.211721e+00,NaN,2,1,2,2
7,639,4,132,20,2,2,1,2.047470e+00,NaN,2,1,3,2
7,640,4,9,57,1,1,1,2.042883e+00,NaN,2,0,1,2
7,641,4,26,6,1,2,0,1.630855e+00,NaN,2,0,1,2
7,642,4,111,71,1,1,1,8.831711e-01,NaN,2,0,3,2
7,643,4,67,63,1,1,1,1.861181e+00,NaN,2,0,2,2
7,644,4,3,30,1,1,1,1.048226e+00,NaN,2,0,1,2
7,645,4,55,37,2,1,0,2.100003e+00,NaN,2,0,2,2
7,646,4,131,41,1,1,1,1.229380e+00,NaN,2,0,3,2
7,647,4,70,44,1,2,0,1.865704e+00,NaN,2,1,2,2
7,648,4,16,8,2,2,1,1.156104e+00,NaN,2,0,1,2
7,649,4,37,33,1,1,1,9.793687e-01,NaN,2,0,1,2
7,650,4,12,17,2,2,1,2.106025e+00,NaN,2,0,1,2
7,651,4,39,22,2,2,1,2.723342e+00,NaN,2,0,1,2
7,652,4,102,42,1,1,1,1.403984e+00,NaN,2,0,3,2
7,653,4,13,65,1,1,1,1.265216e+00,NaN,2,1,1,2
7,654,4,110,25,2,2,1,9.723352e-01,NaN,2,0,3,2
7,655,4,32,68,2,1,0,2.051045e+00,NaN,2,0,1,2
7,656,4,43,55,2,2,1,2.118104e+00,NaN,2,0,1,2
7,681,4,38,62,2,1,0,1.887792e+00,NaN,2,0,1,3
7,682,4,107,64,1,1,1,8.500920e-01,NaN,2,1,3,3
7,683,4,143,50,1,1,1,1.517824e+00,NaN,2,0,3,3
7,684,4,91,16,1,1,1,5.660734e-01,NaN,2,0,2,3
7,685,4,60,2,1,1,1,9.808794e-01,NaN,2,0,2,3
7,686,4,19,46,1,1,1,2.114774e+00,NaN,2,0,1,3
7,687,4,65,58,1,1,1,1.131628e+00,NaN,2,0,2,3
7,688,4,82,40,2,0,0,3.499696e+00,NaN,2,0,2,3
7,689,4,15,72,2,2,1,1.629406e+00,NaN,2,1,1,3
7,690,4,8,14,2,2,1,8.180358e-01,NaN,2,0,1,3
7,691,4,28,9,1,1,1,8.384736e-01,NaN,2,0,1,3
7,692,4,85,26,1,0,0,3.499926e+00,NaN,2,0,2,3
7,693,4,49,10,1,1,1,1.499904e+00,NaN,2,1,2,3
7,694,4,113,66,2,2,1,1.117249e+00,NaN,2,0,3,3
7,695,4,52,21,1,2,0,8.862763e-01,NaN,2,0,2,3
7,696,4,31,51,2,2,1,1.712324e+00,NaN,2,0,1,3
7,697,4,144,69,1,1,1,8.329102e-01,NaN,2,0,3,3
7,698,4,76,61,2,2,1,1.172871e+00,NaN,2,0,2,3
7,699,4,46,53,1,1,1,1.299614e+00,NaN,2,1,1,3
7,700,4,104,19,1,0,0,3.499872e+00,NaN,2,1,3,3
7,701,4,97,12,1,1,1,1.654389e+00,NaN,2,1,3,3
7,702,4,126,32,2,2,1,1.178240e+00,NaN,2,1,3,3
7,703,4,50,60,1,1,1,9.526797e-01,NaN,2,0,2,3
7,704,4,63,56,2,1,0,1.391890e+00,NaN,2,0,2,3
7,705,5,2.455000e+01,37,1,0,0,2.500015e+00,1,1,0,1.200000e+00,1
7,706,5,1.293700e+02,33,3,0,0,2.500625e+00,1,1,0,3.100000e+00,1
7,707,5,1.358500e+02,26,3,1,0,5.039058e-01,1,1,0,3.200000e+00,1
7,708,5,5.530000e+00,29,1,1,1,4.087473e-01,1,1,0,1.200000e+00,1
7,709,5,5.530000e+00,29,1,1,1,3.632737e-01,2,1,0,1.200000e+00,1
7,710,5,1.068200e+02,40,3,0,0,2.500585e+00,1,1,0,3.200000e+00,1
7,711,5,1.274300e+02,55,3,3,1,1.270288e+00,1,1,0,3.100000e+00,1
7,712,5,2.061000e+01,28,1,1,1,3.283982e-01,1,1,0,1.200000e+00,1
7,713,5,1.397600e+02,61,3,1,0,4.257410e-01,1,1,0,3.200000e+00,1
7,714,5,1.767000e+01,63,1,1,1,4.752376e-01,1,1,0,1.200000e+00,1
7,715,5,2.343000e+01,50,1,4,0,6.617097e-01,1,1,0,1.300000e+00,1
7,716,5,7.313000e+01,66,2,2,1,1.014826e+00,1,1,0,2.300000e+00,1
7,717,5,7.240000e+00,3,1,1,1,3.364227e-01,1,1,0,1.300000e+00,1
7,718,5,8.812000e+01,17,2,2,1,3.780518e-01,1,1,0,2.100000e+00,1
7,719,5,4.465000e+01,58,1,1,1,4.754640e-01,1,1,0,1.200000e+00,1
7,720,5,3.140000e+01,36,1,1,1,5.012598e-01,1,1,0,1.300000e+00,1
7,721,5,7.630000e+00,56,1,1,1,1.046635e+00,1,1,0,1.200000e+00,1
7,722,5,5.501000e+01,45,2,2,1,3.279533e-01,1,1,0,2.300000e+00,1
7,723,5,8.116000e+01,8,2,2,1,8.178894e-01,1,1,0,2.100000e+00,1
7,724,5,4.166000e+01,39,1,4,0,4.827867e-01,1,1,0,1.200000e+00,1
7,725,5,2.343000e+01,50,1,1,1,3.567220e-01,2,1,0,1.300000e+00,1
7,726,5,1.397600e+02,61,3,2,0,5.502789e-01,2,1,0,3.200000e+00,1
7,727,5,1.373100e+02,51,3,2,0,5.112421e-01,1,1,0,3.100000e+00,1
7,728,5,7.240000e+00,3,1,1,1,3.621222e-01,2,1,0,1.300000e+00,1
7,729,5,6.803000e+01,30,2,1,0,4.502503e-01,1,1,0,2.100000e+00,1
7,730,5,1.222800e+02,9,3,1,0,3.715647e-01,1,1,0,3.100000e+00,1
7,731,5,9.610000e+01,25,2,2,1,4.529038e-01,1,1,0,2.300000e+00,1
7,732,5,2.644000e+01,69,1,1,1,3.505102e-01,1,1,0,1.300000e+00,1
7,733,5,7.313000e+01,66,2,2,1,4.479115e-01,2,1,0,2.300000e+00,1
7,734,5,9.626000e+01,6,2,2,1,6.576353e-01,1,1,0,2.100000e+00,1
7,735,5,4.631000e+01,41,1,1,1,5.064501e-01,1,1,0,1.300000e+00,1
7,736,5,1.198300e+02,52,3,3,1,4.123463e-01,1,1,0,3.200000e+00,1
7,737,5,1.293700e+02,33,3,3,1,1.069408e+00,2,1,0,3.100000e+00,1
7,738,5,1.153900e+02,22,3,3,1,5.273900e-01,1,1,0,3.100000e+00,1
7,739,5,1.274300e+02,55,3,3,1,3.452984e-01,2,1,0,3.100000e+00,1
7,740,5,7.719000e+01,46,2,1,0,3.863887e-01,1,1,0,2.100000e+00,1
7,741,5,1.274300e+02,55,3,3,1,4.121431e-01,3,1,0,3.100000e+00,1
7,742,5,4.631000e+01,41,1,1,1,4.777038e-01,2,1,0,1.300000e+00,1
7,743,5,7.630000e+00,56,1,1,1,2.949315e-01,2,1,0,1.200000e+00,1
7,744,5,7.108000e+01,14,2,2,1,4.565155e-01,1,1,0,2.100000e+00,1
7,745,5,5.530000e+00,29,1,1,1,3.380587e-01,3,1,0,1.200000e+00,1
7,746,5,1.383800e+02,62,3,1,0,3.873857e-01,1,1,0,3.100000e+00,1
7,747,5,1.239100e+02,16,3,3,1,7.007113e-01,1,1,0,3.200000e+00,1
7,748,5,1.397600e+02,61,3,3,1,4.939380e-01,3,1,0,3.200000e+00,1
7,749,5,2.433000e+01,70,1,1,1,3.996606e-01,1,1,0,1.300000e+00,1
7,750,5,7.911000e+01,71,2,0,0,2.500489e+00,1,1,0,2.300000e+00,1
7,751,5,5.712000e+01,27,2,2,1,4.036632e-01,1,1,0,2.300000e+00,1
7,752,5,3.525000e+01,34,1,3,0,7.171547e-01,1,1,0,1.300000e+00,1
7,753,5,1.342900e+02,59,3,1,0,5.106015e-01,1,1,0,3.100000e+00,1
7,754,5,7.108000e+01,14,2,2,1,4.562867e-01,2,1,0,2.100000e+00,1
7,755,5,8.609000e+01,57,2,2,1,4.660954e-01,1,1,0,2.100000e+00,1
7,756,5,2.061000e+01,28,1,1,1,4.835226e-01,2,1,0,1.200000e+00,1
7,757,5,2.061000e+01,28,1,1,1,5.644793e-01,3,1,0,1.200000e+00,1
7,758,5,1.059000e+02,35,3,2,0,4.699108e-01,1,1,0,3.200000e+00,1
7,759,5,1.239100e+02,16,3,3,1,3.356548e-01,2,1,0,3.200000e+00,1
7,760,5,1.147900e+02,31,3,3,1,3.448794e-01,1,1,0,3.200000e+00,1
7,761,5,1.274300e+02,55,3,3,1,3.784696e-01,4,1,0,3.100000e+00,1
7,762,5,6.218000e+01,4,2,2,1,5.076600e-01,1,1,0,2.100000e+00,1
7,763,5,8.609000e+01,57,2,2,1,3.889693e-01,2,1,0,2.100000e+00,1
7,764,5,2.520000e+00,21,1,1,1,1.454621e+00,1,1,0,1.200000e+00,1
7,765,5,1.169300e+02,18,3,3,1,3.361743e-01,1,1,0,3.200000e+00,1
7,766,5,7.719000e+01,46,2,2,1,4.014823e-01,2,1,0,2.100000e+00,1
7,767,5,5.501000e+01,45,2,2,1,4.590315e-01,2,1,0,2.300000e+00,1
7,768,5,1.059000e+02,35,3,3,1,3.088970e-01,2,1,0,3.200000e+00,1
7,769,5,2.820000e+01,13,1,1,1,6.152730e-01,1,1,0,1.300000e+00,1
7,770,5,1.767000e+01,63,1,1,1,3.442999e-01,2,1,0,1.200000e+00,1
7,771,5,7.911000e+01,71,2,3,0,4.340284e-01,2,1,0,2.300000e+00,1
7,772,5,2.455000e+01,37,1,1,1,3.471216e-01,2,1,0,1.200000e+00,1
7,773,5,1.397600e+02,61,3,2,0,7.966878e-01,4,1,0,3.200000e+00,1
7,774,5,1.293700e+02,33,3,1,0,1.158314e+00,3,1,0,3.100000e+00,1
7,775,5,5.817000e+01,5,2,2,1,3.755127e-01,1,1,0,2.300000e+00,1
7,776,5,4.166000e+01,39,1,2,0,4.255421e-01,2,1,0,1.200000e+00,1
7,777,5,3.525000e+01,34,1,1,1,3.397195e-01,2,1,0,1.300000e+00,1
7,778,5,3.525000e+01,34,1,1,1,4.051127e-01,3,1,0,1.300000e+00,1
7,779,5,5.712000e+01,27,2,2,1,6.387107e-01,2,1,0,2.300000e+00,1
7,780,5,1.383800e+02,62,3,1,0,1.080081e+00,2,1,0,3.100000e+00,1
7,781,5,2.820000e+01,13,1,1,1,5.054238e-01,2,1,0,1.300000e+00,1
7,782,5,5.712000e+01,27,2,2,1,5.070348e-01,3,1,0,2.300000e+00,1
7,783,5,1.358500e+02,26,3,3,1,5.482046e-01,2,1,0,3.200000e+00,1
7,784,5,5.530000e+00,29,1,1,1,8.854368e-01,4,1,0,1.200000e+00,1
7,785,5,2.433000e+01,70,1,1,1,5.989346e-01,2,1,0,1.300000e+00,1
7,786,5,3.650000e+01,60,1,1,1,1.360573e+00,1,1,0,1.200000e+00,1
7,787,5,6.218000e+01,4,2,2,1,4.739487e-01,2,1,0,2.100000e+00,1
7,788,5,1.342900e+02,59,3,3,1,7.474650e-01,2,1,0,3.100000e+00,1
7,789,5,1.342900e+02,59,3,3,1,5.086428e-01,3,1,0,3.100000e+00,1
7,790,5,8.421000e+01,38,2,2,1,4.481995e-01,1,1,0,2.100000e+00,1
7,791,5,1.342900e+02,59,3,3,1,4.161704e-01,4,1,0,3.100000e+00,1
7,792,5,1.767000e+01,63,1,1,1,3.779233e-01,3,1,0,1.200000e+00,1
7,793,5,2.644000e+01,69,1,1,1,3.952916e-01,2,1,0,1.300000e+00,1
7,794,5,1.373100e+02,51,3,3,1,5.963951e-01,2,1,0,3.100000e+00,1
7,795,5,1.222800e+02,9,3,1,0,6.139252e-01,2,1,0,3.100000e+00,1
7,796,5,1.060000e+01,2,1,1,1,6.876003e-01,1,1,0,1.200000e+00,1
7,797,5,1.222800e+02,9,3,3,1,9.366269e-01,3,1,0,3.100000e+00,1
7,798,5,2.300000e+00,48,1,1,1,3.307216e-01,1,1,0,1.300000e+00,1
7,799,5,8.421000e+01,38,2,2,1,4.280782e-01,2,1,0,2.100000e+00,1
7,800,5,2.061000e+01,28,1,1,1,4.288824e-01,4,1,0,1.200000e+00,1
7,801,5,1.169300e+02,18,3,3,1,3.827109e-01,2,1,0,3.200000e+00,1
7,802,5,3.650000e+01,60,1,1,1,5.679904e-01,2,1,0,1.200000e+00,1
7,803,5,2.820000e+01,13,1,1,1,6.496127e-01,3,1,0,1.300000e+00,1
7,804,5,7.313000e+01,66,2,2,1,4.984972e-01,3,1,0,2.300000e+00,1
7,805,5,9.626000e+01,6,2,2,1,4.763255e-01,2,1,0,2.100000e+00,1
7,806,5,1.222800e+02,9,3,3,1,4.223153e-01,4,1,0,3.100000e+00,1
7,807,5,6.803000e+01,30,2,1,0,3.997626e-01,2,1,0,2.100000e+00,1
7,808,5,1.147900e+02,31,3,3,1,6.492538e-01,2,1,0,3.200000e+00,1
7,809,5,3.140000e+01,36,1,1,1,6.268786e-01,2,1,0,1.300000e+00,1
7,810,5,8.609000e+01,57,2,2,1,9.327342e-01,3,1,0,2.100000e+00,1
7,811,5,1.060000e+01,2,1,2,0,5.259517e-01,2,1,0,1.200000e+00,1
7,812,5,1.147900e+02,31,3,3,1,4.643625e-01,3,1,0,3.200000e+00,1
7,813,5,9.610000e+01,25,2,1,0,4.428645e-01,2,1,0,2.300000e+00,1
7,814,5,1.094200e+02,67,3,3,1,1.371889e+00,1,1,0,3.100000e+00,1
7,815,5,2.644000e+01,69,1,1,1,3.252949e-01,3,1,0,1.300000e+00,1
7,816,5,1.087300e+02,24,3,3,1,3.190818e-01,1,1,0,3.200000e+00,1
7,817,5,8.421000e+01,38,2,2,1,5.684043e-01,3,1,0,2.100000e+00,1
7,818,5,2.433000e+01,70,1,1,1,7.379663e-01,3,1,0,1.300000e+00,1
7,819,5,6.218000e+01,4,2,1,0,5.074943e-01,3,1,0,2.100000e+00,1
7,820,5,1.767000e+01,63,1,1,1,3.086957e-01,4,1,0,1.200000e+00,1
7,821,5,1.060000e+01,2,1,2,0,3.861002e-02,3,1,0,1.200000e+00,1
7,822,5,2.300000e+00,48,1,2,0,3.113822e-01,2,1,0,1.300000e+00,1
7,823,5,1.087300e+02,24,3,3,1,3.372588e-01,2,1,0,3.200000e+00,1
7,824,5,1.383800e+02,62,3,3,1,5.307372e-01,3,1,0,3.100000e+00,1
7,825,5,1.068200e+02,40,3,3,1,4.520900e-01,2,1,0,3.200000e+00,1
7,826,5,2.343000e+01,50,1,3,0,4.452676e-01,3,1,0,1.300000e+00,1
7,827,5,7.911000e+01,71,2,3,0,1.623026e+00,3,1,0,2.300000e+00,1
7,828,5,6.803000e+01,30,2,1,0,4.010325e-01,3,1,0,2.100000e+00,1
7,829,5,1.068200e+02,40,3,3,1,3.941898e-01,3,1,0,3.200000e+00,1
7,830,5,7.108000e+01,14,2,2,1,1.156099e+00,3,1,0,2.100000e+00,1
7,831,5,1.293700e+02,33,3,3,1,1.310220e+00,4,1,0,3.100000e+00,1
7,832,5,1.183200e+02,68,3,3,1,5.432336e-01,1,1,0,3.100000e+00,1
7,833,5,6.218000e+01,4,2,2,1,8.094082e-01,4,1,0,2.100000e+00,1
7,834,5,9.626000e+01,6,2,3,0,3.477368e-01,3,1,0,2.100000e+00,1
7,835,5,1.358500e+02,26,3,3,1,4.207604e-01,3,1,0,3.200000e+00,1
7,836,5,6.499000e+01,54,2,3,0,1.246547e+00,1,1,0,2.300000e+00,1
7,837,5,4.631000e+01,41,1,2,0,5.115533e-01,3,1,0,1.300000e+00,1
7,838,5,8.812000e+01,17,2,2,1,3.133011e-01,2,1,0,2.100000e+00,1
7,839,5,4.465000e+01,58,1,3,0,1.454931e-04,2,1,0,1.200000e+00,1
7,840,5,9.610000e+01,25,2,2,1,1.155861e-01,3,1,0,2.300000e+00,1
7,841,5,1.239100e+02,16,3,3,1,4.612573e-01,3,1,0,3.200000e+00,1
7,842,5,2.644000e+01,69,1,1,1,5.825660e-01,4,1,0,1.300000e+00,1
7,843,5,5.712000e+01,27,2,2,1,5.440493e-01,4,1,0,2.300000e+00,1
7,844,5,2.820000e+01,13,1,1,1,4.661582e-01,4,1,0,1.300000e+00,1
7,845,5,1.373100e+02,51,3,3,1,5.316428e-01,3,1,0,3.100000e+00,1
7,846,5,2.300000e+00,48,1,1,1,3.168798e-01,3,1,0,1.300000e+00,1
7,847,5,8.116000e+01,8,2,2,1,4.065585e-01,2,1,0,2.100000e+00,1
7,848,5,5.501000e+01,45,2,2,1,3.201507e-01,3,1,0,2.300000e+00,1
7,849,5,8.812000e+01,17,2,2,1,3.611602e-01,3,1,0,2.100000e+00,1
7,850,5,3.140000e+01,36,1,1,1,1.946128e-01,3,1,0,1.300000e+00,1
7,851,5,1.169300e+02,18,3,3,1,4.206397e-01,3,1,0,3.200000e+00,1
7,852,5,1.169300e+02,18,3,3,1,3.576514e-01,4,1,0,3.200000e+00,1
7,853,5,1.383800e+02,62,3,3,1,5.594305e-01,4,1,0,3.100000e+00,1
7,854,5,4.465000e+01,58,1,1,1,4.571219e-01,3,1,0,1.200000e+00,1
7,855,5,3.140000e+01,36,1,1,1,4.662415e-01,4,1,0,1.300000e+00,1
7,856,5,5.202000e+01,42,2,2,1,2.677653e-01,1,1,0,2.300000e+00,1
7,857,5,8.421000e+01,38,2,2,1,5.015139e-01,4,1,0,2.100000e+00,1
7,858,5,2.343000e+01,50,1,1,1,3.586364e-01,4,1,0,1.300000e+00,1
7,859,5,2.455000e+01,37,1,3,0,3.684052e-01,3,1,0,1.200000e+00,1
7,860,5,5.817000e+01,5,2,2,1,3.139368e-01,2,1,0,2.300000e+00,1
7,861,5,8.609000e+01,57,2,2,1,3.873003e-01,4,1,0,2.100000e+00,1
7,862,5,9.626000e+01,6,2,2,1,4.285407e-01,4,1,0,2.100000e+00,1
7,863,5,1.094200e+02,67,3,1,0,3.417066e-01,2,1,0,3.100000e+00,1
7,864,5,8.812000e+01,17,2,2,1,4.154840e-01,4,1,0,2.100000e+00,1
7,865,5,2.433000e+01,70,1,1,1,4.251002e-01,4,1,0,1.300000e+00,1
7,866,5,5.501000e+01,45,2,2,1,3.388158e-01,4,1,0,2.300000e+00,1
7,867,5,2.520000e+00,21,1,3,0,3.884803e-01,2,1,0,1.200000e+00,1
7,868,5,2.455000e+01,37,1,2,0,8.696732e-01,4,1,0,1.200000e+00,1
7,869,5,1.198300e+02,52,3,3,1,1.591924e-01,2,1,0,3.200000e+00,1
7,870,5,1.068200e+02,40,3,2,0,4.332366e-01,4,1,0,3.200000e+00,1
7,871,5,1.153900e+02,22,3,3,1,5.546552e-01,2,1,0,3.100000e+00,1
7,872,5,4.166000e+01,39,1,1,1,7.242332e-01,3,1,0,1.200000e+00,1
7,873,5,6.499000e+01,54,2,3,0,6.616137e-01,2,1,0,2.300000e+00,1
7,874,5,7.719000e+01,46,2,2,1,1.119179e+00,3,1,0,2.100000e+00,1
7,875,5,1.239100e+02,16,3,3,1,6.561212e-01,4,1,0,3.200000e+00,1
7,876,5,1.094200e+02,67,3,3,1,2.191727e-01,3,1,0,3.100000e+00,1
7,877,5,1.059000e+02,35,3,2,0,7.871251e-01,3,1,0,3.200000e+00,1
7,878,5,7.108000e+01,14,2,2,1,4.282588e-01,4,1,0,2.100000e+00,1
7,879,5,1.094200e+02,67,3,3,1,3.736877e-01,4,1,0,3.100000e+00,1
7,880,5,8.116000e+01,8,2,2,1,1.631552e+00,3,1,0,2.100000e+00,1
7,881,5,1.087300e+02,24,3,3,1,3.854379e-01,3,1,0,3.200000e+00,1
7,882,5,1.153900e+02,22,3,3,1,4.993530e-01,3,1,0,3.100000e+00,1
7,883,5,1.059000e+02,35,3,2,0,5.003769e-01,4,1,0,3.200000e+00,1
7,884,5,7.630000e+00,56,1,1,1,3.816294e-01,3,1,0,1.200000e+00,1
7,885,5,8.116000e+01,8,2,2,1,3.670946e-01,4,1,0,2.100000e+00,1
7,886,5,4.465000e+01,58,1,1,1,8.806120e-01,4,1,0,1.200000e+00,1
7,887,5,6.499000e+01,54,2,2,1,5.220158e-01,3,1,0,2.300000e+00,1
7,888,5,3.525000e+01,34,1,1,1,3.156872e-01,4,1,0,1.300000e+00,1
7,889,5,1.183200e+02,68,3,0,0,2.500013e+00,2,1,0,3.100000e+00,1
7,890,5,5.817000e+01,5,2,2,1,3.350420e-01,3,1,0,2.300000e+00,1
7,891,5,1.153900e+02,22,3,3,1,4.004113e-01,4,1,0,3.100000e+00,1
7,892,5,3.650000e+01,60,1,0,0,2.500119e+00,3,1,0,1.200000e+00,1
7,893,5,6.499000e+01,54,2,2,1,4.372552e-02,4,1,0,2.300000e+00,1
7,894,5,7.240000e+00,3,1,1,1,1.457949e-04,3,1,0,1.300000e+00,1
7,895,5,7.630000e+00,56,1,1,1,7.212173e-03,4,1,0,1.200000e+00,1
7,896,5,5.202000e+01,42,2,2,1,7.311121e-02,2,1,0,2.300000e+00,1
7,897,5,3.650000e+01,60,1,1,1,8.216348e-02,4,1,0,1.200000e+00,1
7,898,5,1.373100e+02,51,3,3,1,1.744711e-04,4,1,0,3.100000e+00,1
7,899,5,7.240000e+00,3,1,1,1,1.463987e-04,4,1,0,1.300000e+00,1
7,900,5,1.358500e+02,26,3,3,1,2.218469e-02,4,1,0,3.200000e+00,1
7,901,5,9.610000e+01,25,2,2,1,1.278233e-01,4,1,0,2.300000e+00,1
7,902,5,2.300000e+00,48,1,1,1,1.296567e-01,4,1,0,1.300000e+00,1
7,903,5,1.087300e+02,24,3,3,1,9.892085e-02,4,1,0,3.200000e+00,1
7,904,5,5.202000e+01,42,2,2,1,1.003323e-01,3,1,0,2.300000e+00,1
7,905,5,1.183200e+02,68,3,3,1,6.455162e-01,3,1,0,3.100000e+00,1
7,906,5,1.198300e+02,52,3,3,1,3.352932e-01,3,1,0,3.200000e+00,1
7,907,5,5.817000e+01,5,2,2,1,3.126346e-01,4,1,0,2.300000e+00,1
7,908,5,2.520000e+00,21,1,2,0,1.025524e+00,3,1,0,1.200000e+00,1
7,909,5,5.202000e+01,42,2,2,1,3.239722e-01,4,1,0,2.300000e+00,1
7,910,5,7.719000e+01,46,2,2,1,4.294514e-01,4,1,0,2.100000e+00,1
7,911,5,4.166000e+01,39,1,0,0,2.500414e+00,4,1,0,1.200000e+00,1
7,912,5,1.147900e+02,31,3,3,1,4.246142e-01,4,1,0,3.200000e+00,1
7,913,5,7.313000e+01,66,2,2,1,4.101071e-01,4,1,0,2.300000e+00,1
7,914,5,4.631000e+01,41,1,1,1,7.084058e-01,4,1,0,1.300000e+00,1
7,915,5,7.911000e+01,71,2,3,0,3.657390e-01,4,1,0,2.300000e+00,1
7,916,5,2.520000e+00,21,1,3,0,4.793205e-01,4,1,0,1.200000e+00,1
7,917,5,1.060000e+01,2,1,1,1,2.648081e-01,4,1,0,1.200000e+00,1
7,918,5,1.183200e+02,68,3,3,1,2.900967e-01,4,1,0,3.100000e+00,1
7,919,5,6.803000e+01,30,2,1,0,3.793459e-01,4,1,0,2.100000e+00,1
7,920,5,1.198300e+02,52,3,3,1,3.007817e-01,4,1,0,3.200000e+00,1
7,921,6,28,9,1,1,1,8.466074e-01,NaN,2,0,1,1
7,922,6,39,22,2,2,1,1.035153e+00,NaN,2,0,1,1
7,923,6,42,67,1,1,1,1.031731e+00,NaN,2,0,1,1
7,924,6,29,59,2,1,0,1.252515e+00,NaN,2,0,1,1
7,925,6,38,62,2,2,1,1.136520e+00,NaN,2,0,1,1
7,926,6,117,5,2,2,1,1.817205e+00,NaN,2,0,3,1
7,927,6,16,8,1,1,1,1.054440e+00,NaN,2,0,1,1
7,928,6,11,49,1,1,1,9.466478e-01,NaN,2,1,1,1
7,929,6,37,33,1,1,1,1.458767e+00,NaN,2,0,1,1
7,930,6,142,15,2,2,1,1.742765e+00,NaN,2,1,3,1
7,931,6,61,28,2,2,1,7.756571e-01,NaN,2,0,2,1
7,932,6,66,39,2,2,1,7.506875e-01,NaN,2,0,2,1
7,933,6,133,70,1,1,1,1.198708e+00,NaN,2,0,3,1
7,934,6,126,32,1,1,1,1.580872e+00,NaN,2,1,3,1
7,935,6,26,6,1,2,0,1.411595e+00,NaN,2,0,1,1
7,936,6,19,46,1,1,1,1.273317e+00,NaN,2,0,1,1
7,937,6,82,40,2,2,1,1.308990e+00,NaN,2,0,2,1
7,938,6,112,27,2,2,1,1.015060e+00,NaN,2,0,3,1
7,939,6,110,25,1,1,1,1.804374e+00,NaN,2,0,3,1
7,940,6,124,3,2,2,1,1.122403e+00,NaN,2,0,3,1
7,941,6,91,16,2,2,1,9.321806e-01,NaN,2,0,2,1
7,942,6,50,60,1,1,1,1.044597e+00,NaN,2,0,2,1
7,943,6,8,14,2,2,1,2.041194e+00,NaN,2,0,1,1
7,944,6,53,29,1,1,1,1.493569e+00,NaN,2,0,2,1
7,945,6,113,66,1,1,1,1.096924e+00,NaN,2,0,3,1
7,946,6,67,63,2,2,1,1.466610e+00,NaN,2,0,2,1
7,947,6,104,19,2,2,1,2.326185e+00,NaN,2,1,3,1
7,948,6,125,34,2,2,1,1.775368e+00,NaN,2,0,3,1
7,949,6,70,44,1,1,1,8.708715e-01,NaN,2,1,2,1
7,950,6,143,50,1,1,1,1.482402e+00,NaN,2,0,3,1
7,951,6,90,35,1,1,1,2.140889e+00,NaN,2,0,2,1
7,952,6,12,17,2,2,1,1.373442e+00,NaN,2,0,1,1
7,953,6,144,69,2,1,0,2.236924e+00,NaN,2,0,3,1
7,954,6,74,1,1,2,0,1.945705e+00,NaN,2,1,2,1
7,955,6,49,10,2,2,1,1.273776e+00,NaN,2,1,2,1
7,956,6,93,18,1,1,1,7.808801e-01,NaN,2,0,2,1
7,957,6,3,30,2,2,1,2.331817e+00,NaN,2,0,1,1
7,958,6,46,53,1,1,1,1.140222e+00,NaN,2,1,1,1
7,959,6,98,11,2,2,1,2.093138e+00,NaN,2,1,3,1
7,960,6,83,52,2,2,1,1.487859e+00,NaN,2,0,2,1
7,961,6,15,72,1,1,1,1.610495e+00,NaN,2,1,1,1
7,962,6,79,31,1,1,1,1.096676e+00,NaN,2,0,2,1
7,963,6,120,13,1,2,0,2.098775e+00,NaN,2,0,3,1
7,964,6,60,2,2,2,1,1.036695e+00,NaN,2,0,2,1
7,965,6,47,47,2,2,1,2.721193e+00,NaN,2,1,1,1
7,966,6,63,56,2,1,0,9.710843e-01,NaN,2,0,2,1
7,967,6,97,12,1,1,1,1.426246e+00,NaN,2,1,3,1
7,968,6,65,58,1,1,1,7.595819e-01,NaN,2,0,2,1
7,969,6,87,43,2,2,1,9.591886e-01,NaN,2,1,2,1
7,970,6,85,26,1,1,1,6.158091e-01,NaN,2,0,2,1
7,971,6,132,20,2,2,1,2.644772e+00,NaN,2,1,3,1
7,972,6,9,57,2,2,1,1.641075e+00,NaN,2,0,1,1
7,973,6,130,48,1,1,1,1.109628e+00,NaN,2,0,3,1
7,974,6,55,37,2,2,1,1.599820e+00,NaN,2,0,2,1
7,975,6,21,38,1,1,1,1.509458e+00,NaN,2,0,1,1
7,976,6,107,64,1,1,1,9.838937e-01,NaN,2,1,3,1
7,977,6,31,51,1,1,1,1.142742e+00,NaN,2,0,1,1
7,978,6,140,36,2,2,1,1.695093e+00,NaN,2,0,3,1
7,979,6,99,54,1,1,1,1.465096e+00,NaN,2,0,3,1
7,980,6,33,7,2,2,1,1.100158e+00,NaN,2,1,1,1
7,981,6,52,21,1,2,0,1.070248e+00,NaN,2,0,2,1
7,982,6,43,55,2,2,1,1.786076e+00,NaN,2,0,1,1
7,983,6,13,65,1,1,1,1.024241e+00,NaN,2,1,1,1
7,984,6,131,41,2,2,1,8.700345e-01,NaN,2,0,3,1
7,985,6,73,24,1,1,1,1.201311e+00,NaN,2,0,2,1
7,986,6,76,61,2,2,1,8.313605e-01,NaN,2,0,2,1
7,987,6,102,42,1,1,1,1.539825e+00,NaN,2,0,3,1
7,988,6,32,68,1,2,0,1.404825e+00,NaN,2,0,1,1
7,989,6,18,4,2,2,1,1.098872e+00,NaN,2,0,1,1
7,990,6,101,45,1,1,1,1.948683e+00,NaN,2,0,3,1
7,991,6,92,23,1,1,1,1.428974e+00,NaN,2,1,2,1
7,992,6,111,71,1,1,1,1.001566e+00,NaN,2,0,3,1
7,993,6,6,3,2,2,1,1.271609e+00,NaN,1,0,1,1
7,994,6,45,41,2,1,0,1.106784e+00,NaN,1,0,1,1
7,995,6,51,42,1,1,1,1.420728e+00,NaN,1,0,2,1
7,996,6,109,67,1,1,1,1.978111e+00,NaN,1,0,3,1
7,997,6,20,28,2,2,1,1.330029e+00,NaN,1,0,1,1
7,998,6,10,2,2,2,1,1.394167e+00,NaN,1,0,1,1
7,999,6,96,6,2,2,1,8.011399e-01,NaN,1,0,2,1
7,1000,6,34,34,1,1,1,1.286736e+00,NaN,1,0,1,1
7,1001,6,108,24,2,2,1,1.049727e+00,NaN,1,0,3,1
7,1002,6,1,48,1,1,1,9.818206e-01,NaN,1,0,1,1
7,1003,6,54,45,1,1,1,1.116747e+00,NaN,1,0,2,1
7,1004,6,127,55,1,1,1,1.742110e+00,NaN,1,0,3,1
7,1005,6,114,31,2,2,1,1.494766e+00,NaN,1,0,3,1
7,1006,6,86,57,1,1,1,1.601347e+00,NaN,1,0,2,1
7,1007,6,17,63,2,1,0,1.599148e+00,NaN,1,0,1,1
7,1008,6,24,37,2,2,1,1.149726e+00,NaN,1,0,1,1
7,1009,6,81,8,1,1,1,1.021632e+00,NaN,1,0,2,1
7,1010,6,128,43,1,1,1,1.802372e+00,NaN,1,1,3,1
7,1011,6,135,26,1,1,1,6.966169e-01,NaN,1,0,3,1
7,1012,6,7,56,2,2,1,1.194905e+00,NaN,1,0,1,1
7,1013,6,75,49,2,2,1,8.732797e-01,NaN,1,1,2,1
7,1014,6,88,17,2,2,1,1.844459e+00,NaN,1,0,2,1
7,1015,6,103,7,2,1,0,2.624757e+00,NaN,1,1,3,1
7,1016,6,136,47,2,2,1,1.270343e+00,NaN,1,1,3,1
7,1017,6,58,72,2,2,1,1.049957e+00,NaN,1,1,2,1
7,1018,6,30,36,1,1,1,1.813659e+00,NaN,1,0,1,1
7,1019,6,77,46,1,1,1,9.628778e-01,NaN,1,0,2,1
7,1020,6,78,71,1,1,1,8.903504e-01,NaN,1,0,2,1
7,1021,6,14,44,1,1,1,1.869091e+00,NaN,1,1,1,1
7,1022,6,2,21,1,1,1,1.040639e+00,NaN,1,0,1,1
7,1023,6,122,9,1,1,1,1.197006e+00,NaN,1,0,3,1
7,1024,6,134,59,2,1,0,1.619609e+00,NaN,1,0,3,1
7,1025,6,119,52,2,2,1,1.056910e+00,NaN,1,0,3,1
7,1026,6,123,16,2,1,0,1.892474e+00,NaN,1,0,3,1
7,1027,6,80,65,1,1,1,9.911889e-01,NaN,1,1,2,1
7,1028,6,35,32,1,2,0,1.558255e+00,NaN,1,1,1,1
7,1029,6,94,19,2,2,1,1.037899e+00,NaN,1,1,2,1
7,1030,6,64,54,1,2,0,7.791142e-01,NaN,1,0,2,1
7,1031,6,56,27,2,2,1,7.776273e-01,NaN,1,0,2,1
7,1032,6,137,51,1,2,0,1.120559e+00,NaN,1,0,3,1
7,1033,6,118,68,2,2,1,1.274294e+00,NaN,1,0,3,1
7,1034,6,36,60,1,2,0,1.909452e+00,NaN,1,0,1,1
7,1035,6,129,33,2,2,1,1.543749e+00,NaN,1,0,3,1
7,1036,6,95,25,1,2,0,1.296362e+00,NaN,1,0,2,1
7,1037,6,62,4,1,1,1,1.050033e+00,NaN,1,0,2,1
7,1038,6,141,23,1,2,0,8.064012e-01,NaN,1,1,3,1
7,1039,6,48,10,2,2,1,9.326578e-01,NaN,1,1,1,1
7,1040,6,22,50,1,1,1,1.204851e+00,NaN,1,0,1,1
7,1041,6,5,29,1,1,1,1.275296e+00,NaN,1,0,1,1
7,1042,6,115,22,1,2,0,1.550984e+00,NaN,1,0,3,1
7,1043,6,89,12,2,0,0,3.499573e+00,NaN,1,1,2,1
7,1044,6,106,40,2,2,1,2.848626e+00,NaN,1,0,3,1
7,1045,6,27,13,1,0,0,3.499687e+00,NaN,1,0,1,1
7,1046,6,116,18,2,1,0,1.166597e+00,NaN,1,0,3,1
7,1047,6,69,11,1,1,1,8.059520e-01,NaN,1,1,2,1
7,1048,6,84,38,2,2,1,1.028028e+00,NaN,1,0,2,1
7,1049,6,121,53,2,2,1,1.129767e+00,NaN,1,1,3,1
7,1050,6,138,62,2,2,1,9.142276e-01,NaN,1,0,3,1
7,1051,6,4,20,1,2,0,2.803622e+00,NaN,1,1,1,1
7,1052,6,68,30,1,1,1,6.254832e-01,NaN,1,0,2,1
7,1053,6,57,5,1,1,1,7.028257e-01,NaN,1,0,2,1
7,1054,6,105,35,1,1,1,1.032904e+00,NaN,1,0,3,1
7,1055,6,72,66,1,1,1,7.013240e-01,NaN,1,0,2,1
7,1056,6,41,39,2,1,0,1.383487e+00,NaN,1,0,1,1
7,1057,6,40,15,1,1,1,2.534277e+00,NaN,1,1,1,1
7,1058,6,23,70,2,2,1,1.135354e+00,NaN,1,0,1,1
7,1059,6,139,61,2,1,0,1.783620e+00,NaN,1,0,3,1
7,1060,6,59,64,2,2,1,1.230279e+00,NaN,1,1,2,1
7,1061,6,100,1,2,2,1,1.259255e+00,NaN,1,1,3,1
7,1062,6,44,58,1,1,1,1.503130e+00,NaN,1,0,1,1
7,1063,6,25,69,1,1,1,1.400938e+00,NaN,1,0,1,1
7,1064,6,71,14,2,2,1,8.390665e-01,NaN,1,0,2,1
