Subject,Trial,Cond,ImageNum,CueNum,Correct,Resp,Accuracy,RT,CueRep,ImageType,Baseline,Category,Block
25,1,1,139,NaN,NaN,1,NaN,1.568528e+00,NaN,2,0,3,1
25,2,1,136,NaN,NaN,1,NaN,1.036964e-01,NaN,1,0,3,1
25,3,1,112,NaN,NaN,1,NaN,1.445869e+00,NaN,2,0,3,1
25,4,1,10,NaN,NaN,1,NaN,9.497173e-01,NaN,1,0,1,1
25,5,1,122,NaN,NaN,2,NaN,5.458967e-01,NaN,0,0,3,1
25,6,1,5,NaN,NaN,1,NaN,7.018532e-01,NaN,0,0,1,1
25,7,1,68,NaN,NaN,1,NaN,1.361324e-04,NaN,0,0,2,1
25,8,1,92,NaN,NaN,1,NaN,6.786642e-01,NaN,2,0,2,1
25,9,1,122,NaN,NaN,2,NaN,1.733510e+00,NaN,1,0,3,1
25,10,1,22,NaN,NaN,1,NaN,2.018392e-01,NaN,0,0,1,1
25,11,1,119,NaN,NaN,1,NaN,3.560831e-01,NaN,0,0,3,1
25,12,1,54,NaN,NaN,1,NaN,1.522082e-01,NaN,0,0,2,1
25,13,1,138,NaN,NaN,1,NaN,9.001738e-01,NaN,2,0,3,1
25,14,1,66,NaN,NaN,1,NaN,9.621841e-01,NaN,0,0,2,1
25,15,1,79,NaN,NaN,1,NaN,4.620439e-01,NaN,0,1,2,1
25,16,1,136,NaN,NaN,1,NaN,1.191159e-01,NaN,0,0,3,1
25,17,1,116,NaN,NaN,1,NaN,5.312992e-01,NaN,0,0,3,1
25,18,1,39,NaN,NaN,2,NaN,8.800627e-01,NaN,1,0,1,1
25,19,1,19,NaN,NaN,1,NaN,1.303975e-04,NaN,0,0,1,1
25,20,1,78,NaN,NaN,1,NaN,5.931712e-01,NaN,0,0,2,1
25,21,1,73,NaN,NaN,1,NaN,5.075086e-01,NaN,0,0,2,1
25,22,1,82,NaN,NaN,1,NaN,1.693005e-01,NaN,0,0,2,1
25,23,1,101,NaN,NaN,1,NaN,2.052347e+00,NaN,0,0,3,1
25,24,1,128,NaN,NaN,1,NaN,9.884333e-01,NaN,0,0,3,1
25,25,1,8,NaN,NaN,1,NaN,5.482940e-02,NaN,1,1,1,1
25,26,1,130,NaN,NaN,2,NaN,5.432725e-01,NaN,1,0,3,1
25,27,1,8,NaN,NaN,1,NaN,4.355120e-01,NaN,0,1,1,1
25,28,1,114,NaN,NaN,1,NaN,5.803005e-01,NaN,0,1,3,1
25,29,1,108,NaN,NaN,2,NaN,5.595151e-01,NaN,1,0,3,1
25,30,1,9,NaN,NaN,1,NaN,5.148338e-01,NaN,1,0,1,1
25,31,1,142,NaN,NaN,1,NaN,7.841968e-01,NaN,2,1,3,1
25,32,1,96,NaN,NaN,1,NaN,3.555464e-01,NaN,0,0,2,1
25,33,1,13,NaN,NaN,1,NaN,5.272016e-01,NaN,2,0,1,1
25,34,1,41,NaN,NaN,1,NaN,5.566301e-01,NaN,1,0,1,1
25,35,1,18,NaN,NaN,1,NaN,5.520124e-01,NaN,1,0,1,1
25,36,1,35,NaN,NaN,2,NaN,6.686043e-01,NaN,0,0,1,1
25,37,1,44,NaN,NaN,1,NaN,6.360840e-01,NaN,0,0,1,1
25,38,1,128,NaN,NaN,1,NaN,6.289922e-01,NaN,1,0,3,1
25,39,1,18,NaN,NaN,1,NaN,4.458937e-01,NaN,0,0,1,1
25,40,1,1,NaN,NaN,1,NaN,5.179180e-01,NaN,1,1,1,1
25,41,1,139,NaN,NaN,1,NaN,7.156352e-01,NaN,0,0,3,1
25,42,1,108,NaN,NaN,1,NaN,5.286680e-01,NaN,0,0,3,1
25,43,1,40,NaN,NaN,1,NaN,6.456852e-01,NaN,0,1,1,1
25,44,1,106,NaN,NaN,1,NaN,6.460993e-01,NaN,2,0,3,1
25,45,1,21,NaN,NaN,1,NaN,6.382344e-01,NaN,0,0,1,1
25,46,1,131,NaN,NaN,1,NaN,7.902766e-01,NaN,1,0,3,1
25,47,1,16,NaN,NaN,1,NaN,5.366805e-01,NaN,0,0,1,1
25,48,1,84,NaN,NaN,1,NaN,4.133342e-01,NaN,2,0,2,1
25,49,1,134,NaN,NaN,1,NaN,5.591526e-01,NaN,0,1,3,1
25,50,1,3,NaN,NaN,2,NaN,6.829408e-01,NaN,2,0,1,1
25,51,1,51,NaN,NaN,1,NaN,1.049943e+00,NaN,0,0,2,1
25,52,1,65,NaN,NaN,1,NaN,5.057150e-01,NaN,1,0,2,1
25,53,1,69,NaN,NaN,1,NaN,7.437540e-01,NaN,0,0,2,1
25,54,1,116,NaN,NaN,1,NaN,6.679659e-01,NaN,1,0,3,1
25,55,1,67,NaN,NaN,1,NaN,5.554999e-01,NaN,0,1,2,1
25,56,1,49,NaN,NaN,1,NaN,4.955205e-01,NaN,0,0,2,1
25,57,1,69,NaN,NaN,1,NaN,5.735512e-01,NaN,1,0,2,1
25,58,1,10,NaN,NaN,1,NaN,6.251186e-01,NaN,0,0,1,1
25,59,1,105,NaN,NaN,1,NaN,1.897864e+00,NaN,0,0,3,1
25,60,1,124,NaN,NaN,1,NaN,7.681899e-01,NaN,0,0,3,1
25,61,1,59,NaN,NaN,1,NaN,1.123708e+00,NaN,2,1,2,1
25,62,1,111,NaN,NaN,1,NaN,8.406055e-01,NaN,0,0,3,1
25,63,1,125,NaN,NaN,1,NaN,1.303975e-04,NaN,2,0,3,1
25,64,1,92,NaN,NaN,1,NaN,1.300955e-04,NaN,0,0,2,1
25,65,1,49,NaN,NaN,1,NaN,1.342097e-02,NaN,1,0,2,1
25,66,1,62,NaN,NaN,1,NaN,1.328122e-04,NaN,0,1,2,1
25,67,1,63,NaN,NaN,1,NaN,1.853747e-01,NaN,0,0,2,1
25,68,1,95,NaN,NaN,1,NaN,4.121814e-01,NaN,1,1,2,1
25,69,1,79,NaN,NaN,1,NaN,5.255393e-01,NaN,1,1,2,1
25,70,1,93,NaN,NaN,1,NaN,6.589670e-01,NaN,1,0,2,1
25,71,1,65,NaN,NaN,1,NaN,5.228743e-01,NaN,0,0,2,1
25,72,1,2,NaN,NaN,1,NaN,4.242272e-01,NaN,0,0,1,1
25,73,1,37,NaN,NaN,1,NaN,5.061140e-02,NaN,2,1,1,1
25,74,1,51,NaN,NaN,1,NaN,7.456894e-01,NaN,2,0,2,1
25,75,1,72,NaN,NaN,1,NaN,3.413937e-01,NaN,1,0,2,1
25,76,1,63,NaN,NaN,1,NaN,2.823098e-01,NaN,1,0,2,1
25,77,1,112,NaN,NaN,1,NaN,4.092611e-01,NaN,0,0,3,1
25,78,1,110,NaN,NaN,1,NaN,6.029356e-01,NaN,0,0,3,1
25,79,1,31,NaN,NaN,1,NaN,3.726804e-01,NaN,0,1,1,1
25,80,1,30,NaN,NaN,1,NaN,5.837645e-01,NaN,1,0,1,1
25,81,1,109,NaN,NaN,1,NaN,2.430478e-01,NaN,2,0,3,1
25,82,1,43,NaN,NaN,1,NaN,2.513308e-01,NaN,2,0,1,1
25,83,1,42,NaN,NaN,1,NaN,2.595636e-01,NaN,0,0,1,1
25,84,1,48,NaN,NaN,1,NaN,2.353046e-01,NaN,2,0,1,1
25,85,1,81,NaN,NaN,1,NaN,9.805448e-01,NaN,1,1,2,1
25,86,1,119,NaN,NaN,1,NaN,2.790562e-01,NaN,2,0,3,1
25,87,1,13,NaN,NaN,1,NaN,3.017746e-01,NaN,0,0,1,1
25,88,1,45,NaN,NaN,2,NaN,1.291900e-04,NaN,2,0,1,1
25,89,1,88,NaN,NaN,1,NaN,3.501789e-01,NaN,2,0,2,1
25,90,1,27,NaN,NaN,1,NaN,3.228356e-01,NaN,0,0,1,1
25,91,1,132,NaN,NaN,2,NaN,6.320755e-01,NaN,0,0,3,1
25,92,1,11,NaN,NaN,1,NaN,3.923504e-01,NaN,1,1,1,1
25,93,1,115,NaN,NaN,1,NaN,5.466347e-01,NaN,0,1,3,1
25,94,1,58,NaN,NaN,1,NaN,2.869205e-01,NaN,0,0,2,1
25,95,1,86,NaN,NaN,1,NaN,7.577620e-01,NaN,1,0,2,1
25,96,1,48,NaN,NaN,1,NaN,2.891176e-01,NaN,0,0,1,1
25,97,1,123,NaN,NaN,1,NaN,3.118101e-01,NaN,1,1,3,1
25,98,1,120,NaN,NaN,1,NaN,5.171863e-01,NaN,2,0,3,1
25,99,1,5,NaN,NaN,1,NaN,2.430852e-01,NaN,2,0,1,1
25,100,1,97,NaN,NaN,1,NaN,5.957589e-01,NaN,0,0,3,1
25,101,1,66,NaN,NaN,1,NaN,2.137494e-01,NaN,1,0,2,1
25,102,1,15,NaN,NaN,1,NaN,3.674747e-01,NaN,0,1,1,1
25,103,1,131,NaN,NaN,1,NaN,4.110380e-01,NaN,0,0,3,1
25,104,1,6,NaN,NaN,1,NaN,2.605304e-01,NaN,0,0,1,1
25,105,1,23,NaN,NaN,1,NaN,6.286432e-01,NaN,0,0,1,1
25,106,1,113,NaN,NaN,1,NaN,3.896851e-01,NaN,0,0,3,1
25,107,1,137,NaN,NaN,1,NaN,3.197589e-01,NaN,1,0,3,1
25,108,1,80,NaN,NaN,1,NaN,3.011658e-01,NaN,0,1,2,1
25,109,1,47,NaN,NaN,1,NaN,2.994993e-01,NaN,2,1,1,1
25,110,1,1,NaN,NaN,1,NaN,2.335970e-01,NaN,0,1,1,1
25,111,1,76,NaN,NaN,1,NaN,3.303184e-01,NaN,0,1,2,1
25,112,1,133,NaN,NaN,1,NaN,1.537180e-02,NaN,0,1,3,1
25,113,1,71,NaN,NaN,1,NaN,2.890585e-01,NaN,2,0,2,1
25,114,1,50,NaN,NaN,1,NaN,3.196970e-01,NaN,0,0,2,1
25,115,1,42,NaN,NaN,1,NaN,2.768748e-01,NaN,1,0,1,1
25,116,1,57,NaN,NaN,1,NaN,3.642281e-01,NaN,2,0,2,1
25,117,1,44,NaN,NaN,1,NaN,3.194335e-01,NaN,2,0,1,1
25,118,1,55,NaN,NaN,1,NaN,3.090534e-01,NaN,0,0,2,1
25,119,1,56,NaN,NaN,1,NaN,2.744730e-01,NaN,0,0,2,1
25,120,1,4,NaN,NaN,1,NaN,4.417511e-01,NaN,0,1,1,1
25,121,1,94,NaN,NaN,1,NaN,8.182821e-01,NaN,2,1,2,1
25,122,1,57,NaN,NaN,1,NaN,3.414055e-01,NaN,0,0,2,1
25,123,1,127,NaN,NaN,1,NaN,4.002507e-01,NaN,1,0,3,1
25,124,1,11,NaN,NaN,1,NaN,5.789944e-01,NaN,0,1,1,1
25,125,1,75,NaN,NaN,1,NaN,8.455364e-01,NaN,0,1,2,1
25,126,1,133,NaN,NaN,1,NaN,6.457410e-01,NaN,1,1,3,1
25,127,1,142,NaN,NaN,1,NaN,2.856992e-01,NaN,0,1,3,1
25,128,1,24,NaN,NaN,1,NaN,3.248127e-01,NaN,0,0,1,1
25,129,1,37,NaN,NaN,1,NaN,3.541531e-01,NaN,0,1,1,1
25,130,1,81,NaN,NaN,1,NaN,6.056145e-01,NaN,0,1,2,1
25,131,1,46,NaN,NaN,1,NaN,3.673374e-01,NaN,1,0,1,1
25,132,1,32,NaN,NaN,1,NaN,3.151968e-01,NaN,1,0,1,1
25,133,1,89,NaN,NaN,1,NaN,4.704682e+00,NaN,1,0,2,1
25,134,1,56,NaN,NaN,1,NaN,7.581179e-01,NaN,1,0,2,1
25,135,1,30,NaN,NaN,1,NaN,4.654521e-01,NaN,0,0,1,1
25,136,1,33,NaN,NaN,1,NaN,8.494335e-01,NaN,0,1,1,1
25,137,1,15,NaN,NaN,1,NaN,9.134466e-01,NaN,2,1,1,1
25,138,1,50,NaN,NaN,1,NaN,9.345939e-01,NaN,2,0,2,1
25,139,1,143,NaN,NaN,1,NaN,6.998701e-01,NaN,0,0,3,1
25,140,1,19,NaN,NaN,1,NaN,5.538356e-01,NaN,1,0,1,1
25,141,1,76,NaN,NaN,1,NaN,3.175150e-01,NaN,2,1,2,1
25,142,1,83,NaN,NaN,1,NaN,4.188290e-01,NaN,0,0,2,1
25,143,1,90,NaN,NaN,1,NaN,3.805063e-01,NaN,1,0,2,1
25,144,1,29,NaN,NaN,1,NaN,6.790790e-01,NaN,1,0,1,1
25,145,1,118,NaN,NaN,1,NaN,2.783082e-01,NaN,0,1,3,1
25,146,1,105,NaN,NaN,1,NaN,7.329953e-01,NaN,1,0,3,1
25,147,1,140,NaN,NaN,1,NaN,3.055613e-01,NaN,2,0,3,1
25,148,1,71,NaN,NaN,1,NaN,2.552363e-01,NaN,0,0,2,1
25,149,1,126,NaN,NaN,1,NaN,1.837315e-01,NaN,0,1,3,1
25,150,1,124,NaN,NaN,1,NaN,3.468016e-01,NaN,1,0,3,1
25,151,1,17,NaN,NaN,1,NaN,3.277476e-01,NaN,0,0,1,1
25,152,1,21,NaN,NaN,1,NaN,3.797149e-01,NaN,2,0,1,1
25,153,1,86,NaN,NaN,1,NaN,3.985769e-01,NaN,0,0,2,1
25,154,1,89,NaN,NaN,1,NaN,6.969754e-01,NaN,0,0,2,1
25,155,1,107,NaN,NaN,1,NaN,4.468840e-01,NaN,2,0,3,1
25,156,1,121,NaN,NaN,1,NaN,3.674786e-01,NaN,0,0,3,1
25,157,1,34,NaN,NaN,1,NaN,1.002729e+00,NaN,0,1,1,1
25,158,1,72,NaN,NaN,1,NaN,4.207907e-01,NaN,0,0,2,1
25,159,1,39,NaN,NaN,2,NaN,1.093708e+00,NaN,0,0,1,1
25,160,1,93,NaN,NaN,1,NaN,5.320806e-01,NaN,0,0,2,1
25,161,1,127,NaN,NaN,1,NaN,4.092737e-01,NaN,0,0,3,1
25,162,1,73,NaN,NaN,1,NaN,3.951163e-01,NaN,2,0,2,1
25,163,1,144,NaN,NaN,1,NaN,4.054853e-01,NaN,1,0,3,1
25,164,1,88,NaN,NaN,1,NaN,7.512881e-01,NaN,0,0,2,1
25,165,1,27,NaN,NaN,1,NaN,3.791272e-01,NaN,2,0,1,1
25,166,1,135,NaN,NaN,1,NaN,3.738995e-01,NaN,2,1,3,1
25,167,1,97,NaN,NaN,1,NaN,4.729708e-01,NaN,2,0,3,1
25,168,1,91,NaN,NaN,1,NaN,2.713574e+00,NaN,0,0,2,1
25,169,1,64,NaN,NaN,1,NaN,6.149147e-01,NaN,0,0,2,1
25,170,1,140,NaN,NaN,1,NaN,3.511645e-01,NaN,0,0,3,1
25,171,1,9,NaN,NaN,1,NaN,3.314853e-01,NaN,0,0,1,1
25,172,1,126,NaN,NaN,1,NaN,8.960902e-01,NaN,2,1,3,1
25,173,1,54,NaN,NaN,1,NaN,3.423524e-01,NaN,1,0,2,1
25,174,1,104,NaN,NaN,1,NaN,5.858889e-02,NaN,1,0,3,1
25,175,1,45,NaN,NaN,2,NaN,3.706284e-01,NaN,0,0,1,1
25,176,1,87,NaN,NaN,1,NaN,3.263573e-01,NaN,0,0,2,1
25,177,1,123,NaN,NaN,1,NaN,3.794671e-01,NaN,0,1,3,1
25,178,1,3,NaN,NaN,1,NaN,1.158059e+00,NaN,0,0,1,1
25,179,1,100,NaN,NaN,1,NaN,8.181834e-02,NaN,1,1,3,1
25,180,1,137,NaN,NaN,1,NaN,3.368404e-01,NaN,0,0,3,1
25,181,1,77,NaN,NaN,1,NaN,6.936189e-01,NaN,2,0,2,1
25,182,1,60,NaN,NaN,1,NaN,4.598918e-01,NaN,0,0,2,1
25,183,1,96,NaN,NaN,1,NaN,2.918880e-01,NaN,2,0,2,1
25,184,1,23,NaN,NaN,1,NaN,3.061137e-01,NaN,1,0,1,1
25,185,1,102,NaN,NaN,1,NaN,6.491938e-01,NaN,2,1,3,1
25,186,1,22,NaN,NaN,1,NaN,3.442833e-01,NaN,1,0,1,1
25,187,1,78,NaN,NaN,1,NaN,3.809980e-01,NaN,1,0,2,1
25,188,1,70,NaN,NaN,1,NaN,3.116586e-01,NaN,1,0,2,1
25,189,1,141,NaN,NaN,1,NaN,3.093265e-01,NaN,0,1,3,1
25,190,1,68,NaN,NaN,1,NaN,3.711098e-01,NaN,2,0,2,1
25,191,1,26,NaN,NaN,1,NaN,6.948024e-01,NaN,0,0,1,1
25,192,1,55,NaN,NaN,1,NaN,3.722131e-01,NaN,2,0,2,1
25,193,1,129,NaN,NaN,1,NaN,1.111811e+00,NaN,0,0,3,1
25,194,1,138,NaN,NaN,1,NaN,3.732098e-01,NaN,0,0,3,1
25,195,1,38,NaN,NaN,1,NaN,4.083975e-01,NaN,2,0,1,1
25,196,1,41,NaN,NaN,1,NaN,3.384248e-01,NaN,0,0,1,1
25,197,1,61,NaN,NaN,2,NaN,8.067546e-01,NaN,0,0,2,1
25,198,1,87,NaN,NaN,1,NaN,5.366038e-01,NaN,2,0,2,1
25,199,1,129,NaN,NaN,1,NaN,3.572790e-01,NaN,1,0,3,1
25,200,1,64,NaN,NaN,1,NaN,4.812691e-01,NaN,1,0,2,1
25,201,1,36,NaN,NaN,1,NaN,4.880981e-01,NaN,0,0,1,1
25,202,1,102,NaN,NaN,1,NaN,3.424441e-01,NaN,0,1,3,1
25,203,1,33,NaN,NaN,1,NaN,3.072052e-01,NaN,2,1,1,1
25,204,1,109,NaN,NaN,1,NaN,5.924658e-01,NaN,0,0,3,1
25,205,1,35,NaN,NaN,1,NaN,3.075016e-01,NaN,2,0,1,1
25,206,1,103,NaN,NaN,1,NaN,2.893658e-01,NaN,2,0,3,1
25,207,1,85,NaN,NaN,1,NaN,2.479751e-01,NaN,1,0,2,1
25,208,1,61,NaN,NaN,1,NaN,3.448055e+00,NaN,2,0,2,1
25,209,1,113,NaN,NaN,1,NaN,1.007843e+00,NaN,1,0,3,1
25,210,1,14,NaN,NaN,1,NaN,4.973478e-01,NaN,0,0,1,1
25,211,1,46,NaN,NaN,1,NaN,6.717586e-01,NaN,0,0,1,1
25,212,1,84,NaN,NaN,1,NaN,3.746725e-01,NaN,0,0,2,1
25,213,1,135,NaN,NaN,1,NaN,6.580415e-01,NaN,0,1,3,1
25,214,1,134,NaN,NaN,1,NaN,1.569540e+00,NaN,2,1,3,1
25,215,1,12,NaN,NaN,1,NaN,3.087923e-01,NaN,0,0,1,1
25,216,1,52,NaN,NaN,1,NaN,3.067397e-01,NaN,1,0,2,1
25,217,1,94,NaN,NaN,1,NaN,3.048876e-01,NaN,0,1,2,1
25,218,1,29,NaN,NaN,1,NaN,5.425610e-01,NaN,0,0,1,1
25,219,1,110,NaN,NaN,1,NaN,3.594683e-03,NaN,2,0,3,1
25,220,1,58,NaN,NaN,1,NaN,1.288883e-04,NaN,2,0,2,1
25,221,1,141,NaN,NaN,1,NaN,9.272165e-01,NaN,1,1,3,1
25,222,1,107,NaN,NaN,1,NaN,4.362334e-01,NaN,0,0,3,1
25,223,1,34,NaN,NaN,1,NaN,2.129016e-01,NaN,2,1,1,1
25,224,1,117,NaN,NaN,1,NaN,6.068053e-01,NaN,2,0,3,1
25,225,1,80,NaN,NaN,1,NaN,2.882785e-01,NaN,1,1,2,1
25,226,1,25,NaN,NaN,1,NaN,5.828979e-01,NaN,1,0,1,1
25,227,1,14,NaN,NaN,1,NaN,6.017424e-01,NaN,2,0,1,1
25,228,1,62,NaN,NaN,1,NaN,3.001232e-01,NaN,1,1,2,1
25,229,1,32,NaN,NaN,1,NaN,4.343088e-01,NaN,0,0,1,1
25,230,1,24,NaN,NaN,1,NaN,7.629043e-01,NaN,1,0,1,1
25,231,1,132,NaN,NaN,1,NaN,9.504653e-01,NaN,1,0,3,1
25,232,1,130,NaN,NaN,1,NaN,1.786845e+00,NaN,0,0,3,1
25,233,1,38,NaN,NaN,1,NaN,7.171212e-01,NaN,0,0,1,1
25,234,1,74,NaN,NaN,1,NaN,3.222425e-01,NaN,0,0,2,1
25,235,1,6,NaN,NaN,1,NaN,3.917392e-01,NaN,1,0,1,1
25,236,1,53,NaN,NaN,1,NaN,4.899511e-01,NaN,2,1,2,1
25,237,1,20,NaN,NaN,1,NaN,4.968347e-01,NaN,1,1,1,1
25,238,1,143,NaN,NaN,1,NaN,1.711036e+00,NaN,2,0,3,1
25,239,1,98,NaN,NaN,1,NaN,5.563581e-01,NaN,0,0,3,1
25,240,1,120,NaN,NaN,1,NaN,7.281365e-01,NaN,0,0,3,1
25,241,1,118,NaN,NaN,1,NaN,4.690102e-01,NaN,2,1,3,1
25,242,1,4,NaN,NaN,1,NaN,5.402006e-01,NaN,2,1,1,1
25,243,1,70,NaN,NaN,1,NaN,2.889703e-01,NaN,0,0,2,1
25,244,1,99,NaN,NaN,1,NaN,3.036401e-01,NaN,1,0,3,1
25,245,1,20,NaN,NaN,1,NaN,6.535932e-01,NaN,0,1,1,1
25,246,1,7,NaN,NaN,1,NaN,2.210777e-01,NaN,0,0,1,1
25,247,1,99,NaN,NaN,1,NaN,8.226176e-01,NaN,0,0,3,1
25,248,1,74,NaN,NaN,1,NaN,7.191599e-01,NaN,2,0,2,1
25,249,1,67,NaN,NaN,1,NaN,2.925910e-01,NaN,2,1,2,1
25,250,1,25,NaN,NaN,1,NaN,3.151751e-01,NaN,0,0,1,1
25,251,1,77,NaN,NaN,1,NaN,3.211091e-01,NaN,0,0,2,1
25,252,1,95,NaN,NaN,1,NaN,2.859549e-01,NaN,0,1,2,1
25,253,1,36,NaN,NaN,1,NaN,3.491415e-01,NaN,2,0,1,1
25,254,1,75,NaN,NaN,1,NaN,5.689641e-01,NaN,1,1,2,1
25,255,1,60,NaN,NaN,1,NaN,2.687446e-01,NaN,2,0,2,1
25,256,1,82,NaN,NaN,1,NaN,2.840599e-01,NaN,2,0,2,1
25,257,1,28,NaN,NaN,1,NaN,2.594423e-01,NaN,1,1,1,1
25,258,1,47,NaN,NaN,1,NaN,7.151662e-01,NaN,0,1,1,1
25,259,1,85,NaN,NaN,1,NaN,5.602413e-01,NaN,0,0,2,1
25,260,1,16,NaN,NaN,1,NaN,5.160472e-01,NaN,2,0,1,1
25,261,1,100,NaN,NaN,1,NaN,1.465763e+00,NaN,0,1,3,1
25,262,1,104,NaN,NaN,1,NaN,4.733620e-01,NaN,0,0,3,1
25,263,1,52,NaN,NaN,1,NaN,7.759458e-01,NaN,0,0,2,1
25,264,1,26,NaN,NaN,1,NaN,1.411717e+00,NaN,2,0,1,1
25,265,1,103,NaN,NaN,1,NaN,3.650135e-01,NaN,0,0,3,1
25,266,1,31,NaN,NaN,1,NaN,4.801170e-01,NaN,1,1,1,1
25,267,1,28,NaN,NaN,1,NaN,4.632000e-01,NaN,0,1,1,1
25,268,1,98,NaN,NaN,1,NaN,1.827719e-01,NaN,2,0,3,1
25,269,1,106,NaN,NaN,1,NaN,5.215670e-01,NaN,0,0,3,1
25,270,1,90,NaN,NaN,1,NaN,3.271943e-01,NaN,0,0,2,1
25,271,1,101,NaN,NaN,1,NaN,2.356885e-01,NaN,1,0,3,1
25,272,1,43,NaN,NaN,1,NaN,3.729792e-01,NaN,0,0,1,1
25,273,1,125,NaN,NaN,1,NaN,5.118724e-01,NaN,0,0,3,1
25,274,1,53,NaN,NaN,1,NaN,2.135463e-01,NaN,0,1,2,1
25,275,1,2,NaN,NaN,1,NaN,4.870271e-01,NaN,2,0,1,1
25,276,1,83,NaN,NaN,1,NaN,4.055209e-01,NaN,2,0,2,1
25,277,1,7,NaN,NaN,1,NaN,6.715793e-01,NaN,1,0,1,1
25,278,1,114,NaN,NaN,1,NaN,9.345568e-01,NaN,2,1,3,1
25,279,1,111,NaN,NaN,1,NaN,1.002998e+00,NaN,2,0,3,1
25,280,1,121,NaN,NaN,1,NaN,1.341094e+00,NaN,1,0,3,1
25,281,1,115,NaN,NaN,1,NaN,2.257416e+00,NaN,1,1,3,1
25,282,1,40,NaN,NaN,1,NaN,9.850891e-01,NaN,1,1,1,1
25,283,1,117,NaN,NaN,1,NaN,5.237440e-01,NaN,0,0,3,1
25,284,1,17,NaN,NaN,1,NaN,4.252891e-01,NaN,2,0,1,1
25,285,1,59,NaN,NaN,1,NaN,4.658366e-01,NaN,0,1,2,1
25,286,1,144,NaN,NaN,1,NaN,5.615864e-01,NaN,0,0,3,1
25,287,1,12,NaN,NaN,1,NaN,1.597901e+00,NaN,2,0,1,1
25,288,1,91,NaN,NaN,1,NaN,4.823070e+00,NaN,1,0,2,1
25,325,2,69,39,1,0,0,3.499632e+00,NaN,1,0,2,1
25,326,2,32,24,1,1,1,1.229677e+00,NaN,1,0,1,1
25,327,2,121,23,2,2,1,1.163150e+00,NaN,1,0,3,1
25,328,2,105,34,1,1,1,1.648366e+00,NaN,1,0,3,1
25,329,2,22,30,2,2,1,1.282958e+00,NaN,1,0,1,1
25,330,2,46,10,1,1,1,1.413392e+00,NaN,1,0,1,1
25,331,2,128,25,2,2,1,1.337973e+00,NaN,1,0,3,1
25,332,2,80,14,1,1,1,1.193268e+00,NaN,1,1,2,1
25,333,2,95,61,2,2,1,2.150733e+00,NaN,1,1,2,1
25,334,2,42,31,1,1,1,2.565908e+00,NaN,1,0,1,1
25,335,2,131,26,1,1,1,1.189286e+00,NaN,1,0,3,1
25,336,2,52,9,2,2,1,2.033480e+00,NaN,1,0,2,1
25,337,2,124,50,1,1,1,1.709517e+00,NaN,1,0,3,1
25,338,2,49,63,2,2,1,1.005843e+00,NaN,1,0,2,1
25,339,2,89,47,1,1,1,1.251147e+00,NaN,1,0,2,1
25,340,2,11,42,2,2,1,2.127346e+00,NaN,1,1,1,1
25,341,2,28,18,2,2,1,1.350021e+00,NaN,1,1,1,1
25,342,2,70,5,1,1,1,1.549615e+00,NaN,1,0,2,1
25,343,2,62,19,2,2,1,1.132322e+00,NaN,1,1,2,1
25,344,2,133,44,1,1,1,1.276405e+00,NaN,1,1,3,1
25,345,2,65,48,1,1,1,1.126597e+00,NaN,1,0,2,1
25,346,2,81,64,1,1,1,2.278938e+00,NaN,1,1,2,1
25,347,2,29,11,1,1,1,2.448344e+00,NaN,1,0,1,1
25,348,2,39,22,1,1,1,1.803526e+00,NaN,1,0,1,1
25,349,3,69,39,1,1,1,1.149381e+00,NaN,1,0,2,1
25,350,3,95,61,1,1,1,1.475702e+00,NaN,1,1,2,1
25,351,3,42,31,1,1,1,1.829592e+00,NaN,1,0,1,1
25,352,3,22,30,2,2,1,1.961375e+00,NaN,1,0,1,1
25,353,3,133,44,1,1,1,1.143590e+00,NaN,1,1,3,1
25,354,3,28,18,2,2,1,1.559160e+00,NaN,1,1,1,1
25,355,3,11,42,1,1,1,1.501835e+00,NaN,1,1,1,1
25,356,3,105,34,1,1,1,1.239034e+00,NaN,1,0,3,1
25,357,3,121,23,2,2,1,1.202545e+00,NaN,1,0,3,1
25,358,3,62,19,1,1,1,1.031488e+00,NaN,1,1,2,1
25,359,3,89,47,2,2,1,1.179480e+00,NaN,1,0,2,1
25,360,3,81,64,1,1,1,1.321489e+00,NaN,1,1,2,1
25,361,3,49,63,1,1,1,8.893572e-01,NaN,1,0,2,1
25,362,3,32,24,2,2,1,2.106864e+00,NaN,1,0,1,1
25,363,3,131,26,2,2,1,2.067887e+00,NaN,1,0,3,1
25,364,3,29,11,1,1,1,1.262410e+00,NaN,1,0,1,1
25,365,3,65,48,2,2,1,1.096684e+00,NaN,1,0,2,1
25,366,3,128,25,1,1,1,1.433983e+00,NaN,1,0,3,1
25,367,3,46,10,2,1,0,1.325462e+00,NaN,1,0,1,1
25,368,3,70,5,2,2,1,7.584762e-01,NaN,1,0,2,1
25,369,3,80,14,1,1,1,6.766582e-01,NaN,1,1,2,1
25,370,3,39,22,2,2,1,1.063222e+00,NaN,1,0,1,1
25,371,3,124,50,2,2,1,2.377826e+00,NaN,1,0,3,1
25,372,3,52,9,1,1,1,2.463271e+00,NaN,1,0,2,1
25,397,2,41,49,2,2,1,9.587887e-01,NaN,1,0,1,2
25,398,2,63,32,2,1,0,2.701363e+00,NaN,1,0,2,2
25,399,2,129,66,2,2,1,1.454568e+00,NaN,1,0,3,2
25,400,2,141,4,1,1,1,1.609216e+00,NaN,1,1,3,2
25,401,2,136,60,2,2,1,1.102378e+00,NaN,1,0,3,2
25,402,2,122,29,1,1,1,8.793287e-01,NaN,1,0,3,2
25,403,2,123,62,1,1,1,1.625474e+00,NaN,1,1,3,2
25,404,2,144,70,1,1,1,9.817658e-01,NaN,1,0,3,2
25,405,2,101,12,1,1,1,1.291029e+00,NaN,1,0,3,2
25,406,2,93,8,2,1,0,1.204677e+00,NaN,1,0,2,2
25,407,2,19,38,1,1,1,1.153592e+00,NaN,1,0,1,2
25,408,2,115,55,1,1,1,1.688671e+00,NaN,1,1,3,2
25,409,2,20,69,1,1,1,1.514324e+00,NaN,1,1,1,2
25,410,2,30,67,2,2,1,1.674455e+00,NaN,1,0,1,2
25,411,2,24,41,2,2,1,2.413063e+00,NaN,1,0,1,2
25,412,2,64,13,1,1,1,1.721227e+00,NaN,1,0,2,2
25,413,2,108,54,2,2,1,1.769302e+00,NaN,1,0,3,2
25,414,2,23,45,2,2,1,1.967716e+00,NaN,1,0,1,2
25,415,2,54,65,1,1,1,1.245697e+00,NaN,1,0,2,2
25,416,2,113,36,1,1,1,2.121400e+00,NaN,1,0,3,2
25,417,2,66,56,2,2,1,1.281296e+00,NaN,1,0,2,2
25,418,2,78,7,2,2,1,1.698716e+00,NaN,1,0,2,2
25,419,2,132,58,2,2,1,1.459891e+00,NaN,1,0,3,2
25,420,2,8,72,1,1,1,1.767154e+00,NaN,1,1,1,2
25,421,3,23,45,1,1,1,1.438730e+00,NaN,1,0,1,2
25,422,3,41,49,2,2,1,1.194506e+00,NaN,1,0,1,2
25,423,3,122,29,2,2,1,1.071308e+00,NaN,1,0,3,2
25,424,3,20,69,1,1,1,8.818053e-01,NaN,1,1,1,2
25,425,3,132,58,2,2,1,1.075422e+00,NaN,1,0,3,2
25,426,3,64,13,1,1,1,9.737192e-01,NaN,1,0,2,2
25,427,3,136,60,2,2,1,1.491888e+00,NaN,1,0,3,2
25,428,3,141,4,2,2,1,1.349851e+00,NaN,1,1,3,2
25,429,3,54,65,2,2,1,2.556744e+00,NaN,1,0,2,2
25,430,3,144,70,1,1,1,9.952016e-01,NaN,1,0,3,2
25,431,3,93,8,2,2,1,7.768037e-01,NaN,1,0,2,2
25,432,3,30,67,2,2,1,8.948127e-01,NaN,1,0,1,2
25,433,3,129,66,1,1,1,1.632027e+00,NaN,1,0,3,2
25,434,3,108,54,2,2,1,1.324185e+00,NaN,1,0,3,2
25,435,3,24,41,2,2,1,1.028123e+00,NaN,1,0,1,2
25,436,3,123,62,1,1,1,2.423801e+00,NaN,1,1,3,2
25,437,3,113,36,1,1,1,1.948060e+00,NaN,1,0,3,2
25,438,3,63,32,1,0,0,3.500007e+00,NaN,1,0,2,2
25,439,3,8,72,2,2,1,6.835762e-01,NaN,1,1,1,2
25,440,3,115,55,2,2,1,1.981689e+00,NaN,1,1,3,2
25,441,3,19,38,2,2,1,1.139453e+00,NaN,1,0,1,2
25,442,3,78,7,1,1,1,9.561113e-01,NaN,1,0,2,2
25,443,3,101,12,1,1,1,8.099907e-01,NaN,1,0,3,2
25,444,3,66,56,1,1,1,1.639064e+00,NaN,1,0,2,2
25,469,2,25,68,2,2,1,1.335622e+00,NaN,1,0,1,3
25,470,2,31,17,2,2,1,1.199592e+00,NaN,1,1,1,3
25,471,2,116,71,2,2,1,2.244487e+00,NaN,1,0,3,3
25,472,2,56,40,2,2,1,9.036257e-01,NaN,1,0,2,3
25,473,2,91,16,1,1,1,8.644697e-01,NaN,1,0,2,3
25,474,2,86,59,1,1,1,1.362907e+00,NaN,1,0,2,3
25,475,2,40,33,2,2,1,1.337601e+00,NaN,1,1,1,3
25,476,2,1,1,1,1,1,1.730408e+00,NaN,1,1,1,3
25,477,2,10,6,1,1,1,1.104961e+00,NaN,1,0,1,3
25,478,2,90,53,1,1,1,1.657785e+00,NaN,1,0,2,3
25,479,2,75,21,2,2,1,9.002855e-01,NaN,1,1,2,3
25,480,2,85,52,2,2,1,9.494583e-01,NaN,1,0,2,3
25,481,2,7,43,2,2,1,9.251042e-01,NaN,1,0,1,3
25,482,2,127,15,2,2,1,9.971835e-01,NaN,1,0,3,3
25,483,2,6,37,2,2,1,1.178279e+00,NaN,1,0,1,3
25,484,2,72,35,2,2,1,1.352055e+00,NaN,1,0,2,3
25,485,2,9,57,2,2,1,1.927348e+00,NaN,1,0,1,3
25,486,2,99,27,2,2,1,1.463089e+00,NaN,1,0,3,3
25,487,2,79,20,1,1,1,8.257945e-01,NaN,1,1,2,3
25,488,2,130,46,1,1,1,1.725565e+00,NaN,1,0,3,3
25,489,2,137,3,2,2,1,1.405779e+00,NaN,1,0,3,3
25,490,2,100,51,2,2,1,1.410927e+00,NaN,1,1,3,3
25,491,2,18,2,1,1,1,9.836955e-01,NaN,1,0,1,3
25,492,2,104,28,2,2,1,1.173360e+00,NaN,1,0,3,3
25,493,3,99,27,1,1,1,1.446412e+00,NaN,1,0,3,3
25,494,3,18,2,2,2,1,1.025996e+00,NaN,1,0,1,3
25,495,3,6,37,1,1,1,1.182159e+00,NaN,1,0,1,3
25,496,3,90,53,1,1,1,7.084003e-01,NaN,1,0,2,3
25,497,3,75,21,2,2,1,8.928390e-01,NaN,1,1,2,3
25,498,3,40,33,1,1,1,1.806519e+00,NaN,1,1,1,3
25,499,3,85,52,1,1,1,9.643979e-01,NaN,1,0,2,3
25,500,3,100,51,1,1,1,1.330001e+00,NaN,1,1,3,3
25,501,3,31,17,2,2,1,1.065567e+00,NaN,1,1,1,3
25,502,3,72,35,1,1,1,9.174186e-01,NaN,1,0,2,3
25,503,3,25,68,2,2,1,1.468418e+00,NaN,1,0,1,3
25,504,3,79,20,2,2,1,9.350008e-01,NaN,1,1,2,3
25,505,3,127,15,2,2,1,1.447443e+00,NaN,1,0,3,3
25,506,3,86,59,1,1,1,1.242655e+00,NaN,1,0,2,3
25,507,3,130,46,1,1,1,1.206081e+00,NaN,1,0,3,3
25,508,3,104,28,2,2,1,1.114756e+00,NaN,1,0,3,3
25,509,3,10,6,2,2,1,1.259293e+00,NaN,1,0,1,3
25,510,3,116,71,2,2,1,1.550246e+00,NaN,1,0,3,3
25,511,3,7,43,1,1,1,1.269103e+00,NaN,1,0,1,3
25,512,3,9,57,1,1,1,1.999255e+00,NaN,1,0,1,3
25,513,3,137,3,1,1,1,1.380386e+00,NaN,1,0,3,3
25,514,3,56,40,2,2,1,8.036803e-01,NaN,1,0,2,3
25,515,3,91,16,1,1,1,1.063530e+00,NaN,1,0,2,3
25,516,3,1,1,1,1,1,7.620181e-01,NaN,1,1,1,3
25,541,4,97,56,2,2,1,2.917873e+00,NaN,2,0,3,1
25,542,4,83,37,2,2,1,1.174292e+00,NaN,2,0,2,1
25,543,4,5,34,1,1,1,2.564322e+00,NaN,2,0,1,1
25,544,4,26,36,2,2,1,2.131231e+00,NaN,2,0,1,1
25,545,4,51,58,2,2,1,1.410363e+00,NaN,2,0,2,1
25,546,4,112,32,2,2,1,2.071297e+00,NaN,2,0,3,1
25,547,4,111,5,1,1,1,1.369192e+00,NaN,2,0,3,1
25,548,4,73,30,1,1,1,1.719310e+00,NaN,2,0,2,1
25,549,4,4,51,2,2,1,1.047390e+00,NaN,2,1,1,1
25,550,4,3,70,1,1,1,1.642588e+00,NaN,2,0,1,1
25,551,4,110,16,1,1,1,9.101009e-01,NaN,2,0,3,1
25,552,4,38,65,2,2,1,2.623221e+00,NaN,2,0,1,1
25,553,4,59,62,1,1,1,2.210781e+00,NaN,2,1,2,1
25,554,4,109,13,1,1,1,1.160069e+00,NaN,2,0,3,1
25,555,4,21,71,2,2,1,1.838219e+00,NaN,2,0,1,1
25,556,4,68,29,2,2,1,1.131320e+00,NaN,2,0,2,1
25,557,4,117,9,2,2,1,1.985897e+00,NaN,2,0,3,1
25,558,4,143,22,2,2,1,2.087407e+00,NaN,2,0,3,1
25,559,4,53,55,2,2,1,1.025141e+00,NaN,2,1,2,1
25,560,4,103,59,2,2,1,1.069426e+00,NaN,2,0,3,1
25,561,4,16,50,2,1,0,1.383107e+00,NaN,2,0,1,1
25,562,4,71,66,1,1,1,1.029329e+00,NaN,2,0,2,1
25,563,4,61,12,2,2,1,9.529784e-01,NaN,2,0,2,1
25,564,4,76,72,2,2,1,1.016255e+00,NaN,2,1,2,1
25,589,4,37,21,1,1,1,1.734236e+00,NaN,2,1,1,2
25,590,4,82,6,2,2,1,8.716808e-01,NaN,2,0,2,2
25,591,4,17,15,2,1,0,1.880775e+00,NaN,2,0,1,2
25,592,4,107,7,2,1,0,1.978028e+00,NaN,2,0,3,2
25,593,4,33,14,1,1,1,1.256181e+00,NaN,2,1,1,2
25,594,4,118,18,2,2,1,1.818762e+00,NaN,2,1,3,2
25,595,4,125,10,1,1,1,1.399651e+00,NaN,2,0,3,2
25,596,4,98,40,1,1,1,1.428542e+00,NaN,2,0,3,2
25,597,4,120,67,1,1,1,2.672233e+00,NaN,2,0,3,2
25,598,4,36,39,1,1,1,1.570070e+00,NaN,2,0,1,2
25,599,4,142,69,2,2,1,1.624244e+00,NaN,2,1,3,2
25,600,4,114,64,2,2,1,1.620364e+00,NaN,2,1,3,2
25,601,4,14,27,1,1,1,1.640572e+00,NaN,2,0,1,2
25,602,4,13,28,1,1,1,1.220222e+00,NaN,2,0,1,2
25,603,4,57,25,2,2,1,1.032121e+00,NaN,2,0,2,2
25,604,4,74,49,1,1,1,9.960138e-01,NaN,2,0,2,2
25,605,4,84,11,1,1,1,1.289365e+00,NaN,2,0,2,2
25,606,4,60,23,1,2,0,1.546910e+00,NaN,2,0,2,2
25,607,4,35,53,1,1,1,1.729798e+00,NaN,2,0,1,2
25,608,4,34,19,1,1,1,1.553829e+00,NaN,2,1,1,2
25,609,4,2,46,2,2,1,1.264827e+00,NaN,2,0,1,2
25,610,4,58,3,2,2,1,1.227262e+00,NaN,2,0,2,2
25,611,4,106,8,1,1,1,1.319131e+00,NaN,2,0,3,2
25,612,4,27,35,2,2,1,1.527348e+00,NaN,2,0,1,2
25,637,4,15,44,2,2,1,1.827434e+00,NaN,2,1,1,3
25,638,4,77,31,2,2,1,1.175846e+00,NaN,2,0,2,3
25,639,4,92,41,2,2,1,1.237695e+00,NaN,2,0,2,3
25,640,4,134,1,1,1,1,1.585690e+00,NaN,2,1,3,3
25,641,4,55,60,1,1,1,1.311308e+00,NaN,2,0,2,3
25,642,4,44,63,1,1,1,1.143510e+00,NaN,2,0,1,3
25,643,4,135,42,1,1,1,1.183130e+00,NaN,2,1,3,3
25,644,4,139,2,2,2,1,2.141159e+00,NaN,2,0,3,3
25,645,4,87,45,2,2,1,2.012440e+00,NaN,2,0,2,3
25,646,4,126,33,1,1,1,1.802085e+00,NaN,2,1,3,3
25,647,4,48,48,2,2,1,1.749588e+00,NaN,2,0,1,3
25,648,4,102,20,2,2,1,1.301216e+00,NaN,2,1,3,3
25,649,4,43,52,2,2,1,1.533855e+00,NaN,2,0,1,3
25,650,4,119,68,1,1,1,1.438145e+00,NaN,2,0,3,3
25,651,4,140,24,2,2,1,9.853822e-01,NaN,2,0,3,3
25,652,4,94,17,1,1,1,1.175125e+00,NaN,2,1,2,3
25,653,4,67,4,1,1,1,1.093716e+00,NaN,2,1,2,3
25,654,4,12,54,1,1,1,1.918885e+00,NaN,2,0,1,3
25,655,4,138,38,2,2,1,1.447556e+00,NaN,2,0,3,3
25,656,4,50,26,2,2,1,8.025958e-01,NaN,2,0,2,3
25,657,4,45,47,1,1,1,2.039567e+00,NaN,2,0,1,3
25,658,4,47,61,1,1,1,2.427185e+00,NaN,2,1,1,3
25,659,4,96,57,2,2,1,9.274685e-01,NaN,2,0,2,3
25,660,4,88,43,1,1,1,1.127010e+00,NaN,2,0,2,3
25,661,5,9.914000e+01,27,3,0,0,2.500237e+00,1,1,0,3.100000e+00,1
25,662,5,1.285700e+02,25,3,0,0,2.500598e+00,1,1,0,3.200000e+00,1
25,663,5,1.241600e+02,50,3,0,0,2.500555e+00,1,1,0,3.100000e+00,1
25,664,5,7.907000e+01,7,2,0,0,2.500571e+00,1,1,0,2.300000e+00,1
25,665,5,6.697000e+01,56,2,0,0,2.500022e+00,1,1,0,2.300000e+00,1
25,666,5,3.120000e+01,67,1,0,0,2.500152e+00,1,1,0,1.300000e+00,1
25,667,5,1.365500e+02,60,3,0,0,2.500142e+00,1,1,0,3.200000e+00,1
25,668,5,6.830000e+00,37,1,0,0,2.500136e+00,1,1,0,1.200000e+00,1
25,669,5,3.340000e+01,24,1,0,0,2.500562e+00,1,1,0,1.300000e+00,1
25,670,5,9.960000e+00,57,1,0,0,2.500351e+00,1,1,0,1.200000e+00,1
25,671,5,4.725000e+01,10,1,0,0,2.500027e+00,1,1,0,1.300000e+00,1
25,672,5,1.162100e+02,71,3,0,0,2.500110e+00,1,1,0,3.100000e+00,1
25,673,5,2.492000e+01,41,1,0,0,2.500124e+00,1,1,0,1.200000e+00,1
25,674,5,1.271700e+02,15,3,0,0,2.500519e+00,1,1,0,3.100000e+00,1
25,675,5,8.945000e+01,47,2,0,0,2.500053e+00,1,1,0,2.100000e+00,1
25,676,5,6.509000e+01,13,2,0,0,2.500386e+00,1,1,0,2.300000e+00,1
25,677,5,5.698000e+01,40,2,0,0,2.500406e+00,1,1,0,2.300000e+00,1
25,678,5,1.325100e+02,58,3,0,0,2.500205e+00,1,1,0,3.200000e+00,1
25,679,5,1.216000e+02,23,3,0,0,2.500381e+00,1,1,0,3.200000e+00,1
25,680,5,1.285700e+02,25,3,0,0,2.500617e+00,2,1,0,3.200000e+00,1
25,681,5,6.548000e+01,48,2,0,0,2.500550e+00,1,1,0,2.100000e+00,1
25,682,5,3.120000e+01,67,1,0,0,2.500427e+00,2,1,0,1.300000e+00,1
25,683,5,1.271700e+02,15,3,0,0,2.500003e+00,2,1,0,3.100000e+00,1
25,684,5,2.387000e+01,45,1,0,0,2.500396e+00,1,1,0,1.200000e+00,1
25,685,5,2.273000e+01,30,1,0,0,2.500458e+00,1,1,0,1.200000e+00,1
25,686,5,7.907000e+01,7,2,0,0,2.500021e+00,2,1,0,2.300000e+00,1
25,687,5,1.297100e+02,66,3,0,0,2.500147e+00,1,1,0,3.200000e+00,1
25,688,5,9.035000e+01,53,2,0,0,2.500054e+00,1,1,0,2.100000e+00,1
25,689,5,1.132600e+02,36,3,0,0,2.500316e+00,1,1,0,3.100000e+00,1
25,690,5,1.016100e+02,12,3,0,0,2.500032e+00,1,1,0,3.200000e+00,1
25,691,5,6.412000e+01,32,2,0,0,2.500219e+00,1,1,0,2.300000e+00,1
25,692,5,1.081200e+02,54,3,0,0,2.500414e+00,1,1,0,3.100000e+00,1
25,693,5,1.939000e+01,2,1,0,0,2.500133e+00,1,1,0,1.300000e+00,1
25,694,5,3.340000e+01,24,1,0,0,2.500509e+00,2,1,0,1.300000e+00,1
25,695,5,5.438000e+01,65,2,0,0,2.500125e+00,1,1,0,2.100000e+00,1
25,696,5,9.210000e+01,16,2,0,0,2.500227e+00,1,1,0,2.300000e+00,1
25,697,5,1.297100e+02,66,3,0,0,2.500464e+00,2,1,0,3.200000e+00,1
25,698,5,2.273000e+01,30,1,0,0,2.500048e+00,2,1,0,1.200000e+00,1
25,699,5,1.016100e+02,12,3,0,0,2.500354e+00,2,1,0,3.200000e+00,1
25,700,5,9.406000e+01,8,2,0,0,2.500087e+00,1,1,0,2.300000e+00,1
25,701,5,1.241600e+02,50,3,0,0,2.500186e+00,2,1,0,3.100000e+00,1
25,702,5,9.210000e+01,16,2,0,0,2.500442e+00,2,1,0,2.300000e+00,1
25,703,5,6.830000e+00,37,1,0,0,2.500453e+00,2,1,0,1.200000e+00,1
25,704,5,1.132600e+02,36,3,0,0,2.500358e+00,2,1,0,3.100000e+00,1
25,705,5,6.936000e+01,39,2,0,0,2.500236e+00,1,1,0,2.100000e+00,1
25,706,5,7.880000e+00,43,1,0,0,2.500053e+00,1,1,0,1.200000e+00,1
25,707,5,1.016100e+02,12,3,0,0,2.500067e+00,3,1,0,3.200000e+00,1
25,708,5,1.285700e+02,25,3,0,0,2.500201e+00,3,1,0,3.200000e+00,1
25,709,5,9.035000e+01,53,2,0,0,2.500480e+00,2,1,0,2.100000e+00,1
25,710,5,7.111000e+01,5,2,0,0,2.500141e+00,1,1,0,2.300000e+00,1
25,711,5,6.509000e+01,13,2,0,0,2.500039e+00,2,1,0,2.300000e+00,1
25,712,5,1.300200e+02,46,3,0,0,2.500357e+00,1,1,0,3.100000e+00,1
25,713,5,6.936000e+01,39,2,0,0,2.500378e+00,2,1,0,2.100000e+00,1
25,714,5,7.111000e+01,5,2,0,0,2.500159e+00,2,1,0,2.300000e+00,1
25,715,5,8.543000e+01,52,2,0,0,2.500277e+00,1,1,0,2.100000e+00,1
25,716,5,2.619000e+01,68,1,0,0,2.500375e+00,1,1,0,1.300000e+00,1
25,717,5,1.365500e+02,60,3,0,0,2.500324e+00,2,1,0,3.200000e+00,1
25,718,5,5.438000e+01,65,2,0,0,2.500025e+00,2,1,0,2.100000e+00,1
25,719,5,4.725000e+01,10,1,0,0,2.500355e+00,2,1,0,1.300000e+00,1
25,720,5,5.698000e+01,40,2,0,0,2.500160e+00,2,1,0,2.300000e+00,1
25,721,5,2.492000e+01,41,1,0,0,2.500325e+00,2,1,0,1.200000e+00,1
25,722,5,1.041300e+02,28,3,0,0,2.500092e+00,1,1,0,3.100000e+00,1
25,723,5,2.038000e+01,38,1,0,0,2.500105e+00,1,1,0,1.300000e+00,1
25,724,5,9.210000e+01,16,2,0,0,2.500381e+00,3,1,0,2.300000e+00,1
25,725,5,8.945000e+01,47,2,0,0,2.500137e+00,2,1,0,2.100000e+00,1
25,726,5,6.412000e+01,32,2,0,0,2.500463e+00,2,1,0,2.300000e+00,1
25,727,5,4.277000e+01,31,1,0,0,2.500081e+00,1,1,0,1.200000e+00,1
25,728,5,2.387000e+01,45,1,0,0,2.500303e+00,2,1,0,1.200000e+00,1
25,729,5,8.945000e+01,47,2,0,0,2.500410e+00,3,1,0,2.100000e+00,1
25,730,5,2.387000e+01,45,1,0,0,2.500088e+00,3,1,0,1.200000e+00,1
25,731,5,2.273000e+01,30,1,0,0,2.500019e+00,3,1,0,1.200000e+00,1
25,732,5,4.043000e+01,22,1,0,0,2.500058e+00,1,1,0,1.300000e+00,1
25,733,5,4.174000e+01,49,1,0,0,2.500149e+00,1,1,0,1.200000e+00,1
25,734,5,1.285700e+02,25,3,0,0,2.500089e+00,4,1,0,3.200000e+00,1
25,735,5,1.271700e+02,15,3,0,0,2.500121e+00,3,1,0,3.100000e+00,1
25,736,5,2.038000e+01,38,1,0,0,2.500157e+00,2,1,0,1.300000e+00,1
25,737,5,1.315000e+02,26,3,0,0,2.500128e+00,1,1,0,3.200000e+00,1
25,738,5,1.216000e+02,23,3,0,0,2.500216e+00,2,1,0,3.200000e+00,1
25,739,5,9.406000e+01,8,2,0,0,2.500502e+00,2,1,0,2.300000e+00,1
25,740,5,1.271700e+02,15,3,0,0,2.500657e+00,4,1,0,3.100000e+00,1
25,741,5,1.300200e+02,46,3,0,0,2.500542e+00,2,1,0,3.100000e+00,1
25,742,5,1.315000e+02,26,3,0,0,2.500347e+00,2,1,0,3.200000e+00,1
25,743,5,2.273000e+01,30,1,0,0,2.500095e+00,4,1,0,1.200000e+00,1
25,744,5,1.082000e+01,6,1,0,0,2.500375e+00,1,1,0,1.200000e+00,1
25,745,5,4.174000e+01,49,1,0,0,2.500066e+00,2,1,0,1.200000e+00,1
25,746,5,7.111000e+01,5,2,0,0,2.500503e+00,3,1,0,2.300000e+00,1
25,747,5,1.300200e+02,46,3,0,0,2.500269e+00,3,1,0,3.100000e+00,1
25,748,5,1.226800e+02,29,3,0,0,2.500101e+00,1,1,0,3.200000e+00,1
25,749,5,9.914000e+01,27,3,0,0,2.500553e+00,2,1,0,3.100000e+00,1
25,750,5,4.725000e+01,10,1,0,0,2.500279e+00,3,1,0,1.300000e+00,1
25,751,5,1.016100e+02,12,3,0,0,2.500244e+00,4,1,0,3.200000e+00,1
25,752,5,6.412000e+01,32,2,0,0,2.500174e+00,3,1,0,2.300000e+00,1
25,753,5,6.412000e+01,32,2,0,0,2.500612e+00,4,1,0,2.300000e+00,1
25,754,5,1.041300e+02,28,3,0,0,2.500298e+00,2,1,0,3.100000e+00,1
25,755,5,1.050500e+02,34,3,0,0,2.500236e+00,1,1,0,3.100000e+00,1
25,756,5,3.120000e+01,67,1,0,0,2.500135e+00,3,1,0,1.300000e+00,1
25,757,5,9.210000e+01,16,2,0,0,2.500251e+00,4,1,0,2.300000e+00,1
25,758,5,8.703000e+01,59,2,0,0,2.500615e+00,1,1,0,2.300000e+00,1
25,759,5,8.703000e+01,59,2,0,0,2.500316e+00,2,1,0,2.300000e+00,1
25,760,5,1.050500e+02,34,3,0,0,2.500582e+00,2,1,0,3.100000e+00,1
25,761,5,9.960000e+00,57,1,0,0,2.500015e+00,2,1,0,1.200000e+00,1
25,762,5,8.543000e+01,52,2,0,0,2.500115e+00,2,1,0,2.100000e+00,1
25,763,5,6.697000e+01,56,2,0,0,2.500643e+00,2,1,0,2.300000e+00,1
25,764,5,1.375800e+02,3,3,0,0,2.500291e+00,1,1,0,3.200000e+00,1
25,765,5,2.038000e+01,38,1,0,0,2.500207e+00,3,1,0,1.300000e+00,1
25,766,5,1.132600e+02,36,3,0,0,2.500344e+00,3,1,0,3.100000e+00,1
25,767,5,1.375800e+02,3,3,0,0,2.500224e+00,2,1,0,3.200000e+00,1
25,768,5,4.043000e+01,22,1,0,0,2.500025e+00,2,1,0,1.300000e+00,1
25,769,5,8.945000e+01,47,2,0,0,2.500268e+00,4,1,0,2.100000e+00,1
25,770,5,1.939000e+01,2,1,0,0,2.500079e+00,2,1,0,1.300000e+00,1
25,771,5,7.227000e+01,35,2,0,0,2.500021e+00,1,1,0,2.100000e+00,1
25,772,5,2.984000e+01,11,1,0,0,2.500426e+00,1,1,0,1.200000e+00,1
25,773,5,1.375800e+02,3,3,0,0,2.500566e+00,3,1,0,3.200000e+00,1
25,774,5,1.365500e+02,60,3,0,0,2.500448e+00,3,1,0,3.200000e+00,1
25,775,5,1.216000e+02,23,3,0,0,2.500489e+00,3,1,0,3.200000e+00,1
25,776,5,1.041300e+02,28,3,0,0,2.500267e+00,3,1,0,3.100000e+00,1
25,777,5,2.492000e+01,41,1,0,0,2.500387e+00,3,1,0,1.200000e+00,1
25,778,5,1.081200e+02,54,3,0,0,2.500526e+00,2,1,0,3.100000e+00,1
25,779,5,1.440300e+02,70,3,0,0,2.500609e+00,1,1,0,3.100000e+00,1
25,780,5,1.050500e+02,34,3,0,0,2.500256e+00,3,1,0,3.100000e+00,1
25,781,5,1.081200e+02,54,3,0,0,2.500301e+00,3,1,0,3.100000e+00,1
25,782,5,1.440300e+02,70,3,0,0,2.500484e+00,2,1,0,3.100000e+00,1
25,783,5,7.111000e+01,5,2,0,0,2.500452e+00,4,1,0,2.300000e+00,1
25,784,5,8.543000e+01,52,2,0,0,2.500613e+00,3,1,0,2.100000e+00,1
25,785,5,6.548000e+01,48,2,0,0,2.500145e+00,2,1,0,2.100000e+00,1
25,786,5,6.830000e+00,37,1,0,0,2.500261e+00,3,1,0,1.200000e+00,1
25,787,5,1.132600e+02,36,3,0,0,2.500471e+00,4,1,0,3.100000e+00,1
25,788,5,5.317000e+01,9,2,0,0,2.500295e+00,1,1,0,2.300000e+00,1
25,789,5,4.174000e+01,49,1,0,0,2.500159e+00,3,1,0,1.200000e+00,1
25,790,5,1.325100e+02,58,3,0,0,2.500553e+00,2,1,0,3.200000e+00,1
25,791,5,1.050500e+02,34,3,0,0,2.500272e+00,4,1,0,3.100000e+00,1
25,792,5,1.226800e+02,29,3,0,0,2.500333e+00,2,1,0,3.200000e+00,1
25,793,5,1.375800e+02,3,3,0,0,2.500501e+00,4,1,0,3.200000e+00,1
25,794,5,4.725000e+01,10,1,0,0,2.500520e+00,4,1,0,1.300000e+00,1
25,795,5,1.315000e+02,26,3,0,0,2.500053e+00,3,1,0,3.200000e+00,1
25,796,5,3.120000e+01,67,1,0,0,2.500519e+00,4,1,0,1.300000e+00,1
25,797,5,5.317000e+01,9,2,0,0,2.500328e+00,2,1,0,2.300000e+00,1
25,798,5,1.082000e+01,6,1,0,0,2.500258e+00,2,1,0,1.200000e+00,1
25,799,5,1.325100e+02,58,3,0,0,2.500360e+00,3,1,0,3.200000e+00,1
25,800,5,1.162100e+02,71,3,0,0,2.500367e+00,2,1,0,3.100000e+00,1
25,801,5,9.406000e+01,8,2,0,0,2.500238e+00,3,1,0,2.300000e+00,1
25,802,5,5.698000e+01,40,2,0,0,2.500505e+00,3,1,0,2.300000e+00,1
25,803,5,9.960000e+00,57,1,0,0,2.500433e+00,3,1,0,1.200000e+00,1
25,804,5,2.619000e+01,68,1,0,0,2.500623e+00,2,1,0,1.300000e+00,1
25,805,5,3.340000e+01,24,1,0,0,2.500006e+00,3,1,0,1.300000e+00,1
25,806,5,9.035000e+01,53,2,0,0,2.500010e+00,3,1,0,2.100000e+00,1
25,807,5,5.317000e+01,9,2,0,0,2.500596e+00,3,1,0,2.300000e+00,1
25,808,5,1.216000e+02,23,3,0,0,2.500049e+00,4,1,0,3.200000e+00,1
25,809,5,4.944000e+01,63,2,0,0,2.500178e+00,1,1,0,2.100000e+00,1
25,810,5,2.984000e+01,11,1,0,0,2.500186e+00,2,1,0,1.200000e+00,1
25,811,5,5.698000e+01,40,2,0,0,2.500115e+00,4,1,0,2.300000e+00,1
25,812,5,6.509000e+01,13,2,0,0,2.500583e+00,3,1,0,2.300000e+00,1
25,813,5,1.440300e+02,70,3,0,0,2.500113e+00,3,1,0,3.100000e+00,1
25,814,5,7.880000e+00,43,1,0,0,2.500300e+00,2,1,0,1.200000e+00,1
25,815,5,8.543000e+01,52,2,0,0,2.500449e+00,4,1,0,2.100000e+00,1
25,816,5,2.492000e+01,41,1,0,0,2.500621e+00,4,1,0,1.200000e+00,1
25,817,5,2.387000e+01,45,1,0,0,2.500536e+00,4,1,0,1.200000e+00,1
25,818,5,1.162100e+02,71,3,0,0,2.500234e+00,3,1,0,3.100000e+00,1
25,819,5,2.619000e+01,68,1,0,0,2.500071e+00,3,1,0,1.300000e+00,1
25,820,5,4.043000e+01,22,1,0,0,2.500327e+00,3,1,0,1.300000e+00,1
25,821,5,7.227000e+01,35,2,0,0,2.500613e+00,2,1,0,2.100000e+00,1
25,822,5,4.944000e+01,63,2,0,0,2.500062e+00,2,1,0,2.100000e+00,1
25,823,5,5.438000e+01,65,2,0,0,2.500422e+00,3,1,0,2.100000e+00,1
25,824,5,2.984000e+01,11,1,0,0,2.500278e+00,3,1,0,1.200000e+00,1
25,825,5,2.038000e+01,38,1,0,0,2.500598e+00,4,1,0,1.300000e+00,1
25,826,5,1.440300e+02,70,3,0,0,2.500554e+00,4,1,0,3.100000e+00,1
25,827,5,1.081200e+02,54,3,0,0,2.500416e+00,4,1,0,3.100000e+00,1
25,828,5,4.277000e+01,31,1,0,0,2.500262e+00,2,1,0,1.200000e+00,1
25,829,5,4.174000e+01,49,1,0,0,2.500369e+00,4,1,0,1.200000e+00,1
25,830,5,8.703000e+01,59,2,0,0,2.500098e+00,3,1,0,2.300000e+00,1
25,831,5,4.944000e+01,63,2,0,0,2.500318e+00,3,1,0,2.100000e+00,1
25,832,5,9.960000e+00,57,1,0,0,2.500186e+00,4,1,0,1.200000e+00,1
25,833,5,1.297100e+02,66,3,0,0,2.500580e+00,3,1,0,3.200000e+00,1
25,834,5,6.936000e+01,39,2,0,0,2.500533e+00,3,1,0,2.100000e+00,1
25,835,5,6.509000e+01,13,2,0,0,2.500155e+00,4,1,0,2.300000e+00,1
25,836,5,1.241600e+02,50,3,0,0,2.500169e+00,3,1,0,3.100000e+00,1
25,837,5,1.939000e+01,2,1,0,0,2.500483e+00,3,1,0,1.300000e+00,1
25,838,5,9.035000e+01,53,2,0,0,2.500448e+00,4,1,0,2.100000e+00,1
25,839,5,7.227000e+01,35,2,0,0,2.500508e+00,3,1,0,2.100000e+00,1
25,840,5,1.300200e+02,46,3,0,0,2.500173e+00,4,1,0,3.100000e+00,1
25,841,5,7.880000e+00,43,1,0,0,2.500454e+00,3,1,0,1.200000e+00,1
25,842,5,2.984000e+01,11,1,0,0,2.500284e+00,4,1,0,1.200000e+00,1
25,843,5,1.082000e+01,6,1,0,0,2.500283e+00,3,1,0,1.200000e+00,1
25,844,5,1.297100e+02,66,3,0,0,2.500435e+00,4,1,0,3.200000e+00,1
25,845,5,1.082000e+01,6,1,0,0,2.500419e+00,4,1,0,1.200000e+00,1
25,846,5,6.697000e+01,56,2,0,0,2.500154e+00,3,1,0,2.300000e+00,1
25,847,5,2.619000e+01,68,1,0,0,2.500177e+00,4,1,0,1.300000e+00,1
25,848,5,9.406000e+01,8,2,0,0,2.500037e+00,4,1,0,2.300000e+00,1
25,849,5,1.041300e+02,28,3,0,0,2.500179e+00,4,1,0,3.100000e+00,1
25,850,5,1.939000e+01,2,1,0,0,2.500041e+00,4,1,0,1.300000e+00,1
25,851,5,1.162100e+02,71,3,0,0,2.500346e+00,4,1,0,3.100000e+00,1
25,852,5,1.226800e+02,29,3,0,0,2.500193e+00,3,1,0,3.200000e+00,1
25,853,5,6.830000e+00,37,1,0,0,2.500591e+00,4,1,0,1.200000e+00,1
25,854,5,4.043000e+01,22,1,0,0,2.500280e+00,4,1,0,1.300000e+00,1
25,855,5,7.227000e+01,35,2,0,0,2.500070e+00,4,1,0,2.100000e+00,1
25,856,5,4.277000e+01,31,1,0,0,2.500089e+00,3,1,0,1.200000e+00,1
25,857,5,4.277000e+01,31,1,0,0,2.500268e+00,4,1,0,1.200000e+00,1
25,858,5,1.365500e+02,60,3,0,0,2.500177e+00,4,1,0,3.200000e+00,1
25,859,5,9.914000e+01,27,3,0,0,2.500449e+00,3,1,0,3.100000e+00,1
25,860,5,5.438000e+01,65,2,0,0,2.500516e+00,4,1,0,2.100000e+00,1
25,861,5,6.548000e+01,48,2,0,0,2.500504e+00,3,1,0,2.100000e+00,1
25,862,5,7.907000e+01,7,2,0,0,2.500150e+00,3,1,0,2.300000e+00,1
25,863,5,7.880000e+00,43,1,0,0,2.500289e+00,4,1,0,1.200000e+00,1
25,864,5,1.315000e+02,26,3,0,0,2.500498e+00,4,1,0,3.200000e+00,1
25,865,5,6.548000e+01,48,2,0,0,2.500470e+00,4,1,0,2.100000e+00,1
25,866,5,1.241600e+02,50,3,0,0,2.500608e+00,4,1,0,3.100000e+00,1
25,867,5,3.340000e+01,24,1,0,0,2.500031e+00,4,1,0,1.300000e+00,1
25,868,5,1.325100e+02,58,3,0,0,2.500161e+00,4,1,0,3.200000e+00,1
25,869,5,5.317000e+01,9,2,0,0,2.500436e+00,4,1,0,2.300000e+00,1
25,870,5,6.697000e+01,56,2,0,0,2.500003e+00,4,1,0,2.300000e+00,1
25,871,5,4.944000e+01,63,2,0,0,2.500236e+00,4,1,0,2.100000e+00,1
25,872,5,9.914000e+01,27,3,0,0,2.500077e+00,4,1,0,3.100000e+00,1
25,873,5,8.703000e+01,59,2,0,0,2.500470e+00,4,1,0,2.300000e+00,1
25,874,5,7.907000e+01,7,2,0,0,2.500256e+00,4,1,0,2.300000e+00,1
25,875,5,1.226800e+02,29,3,0,0,2.500288e+00,4,1,0,3.200000e+00,1
25,876,5,6.936000e+01,39,2,0,0,2.500338e+00,4,1,0,2.100000e+00,1
25,877,6,126,33,1,1,1,2.714788e+00,NaN,2,1,3,1
25,878,6,140,24,2,2,1,1.469586e+00,NaN,2,0,3,1
25,879,6,71,66,2,2,1,1.048934e+00,NaN,2,0,2,1
25,880,6,33,14,2,1,0,1.269384e+00,NaN,2,1,1,1
25,881,6,53,55,1,1,1,1.033248e+00,NaN,2,1,2,1
25,882,6,106,8,2,2,1,1.085862e+00,NaN,2,0,3,1
25,883,6,87,45,2,2,1,1.240883e+00,NaN,2,0,2,1
25,884,6,110,16,1,1,1,1.133686e+00,NaN,2,0,3,1
25,885,6,4,51,2,2,1,2.127006e+00,NaN,2,1,1,1
25,886,6,138,38,1,1,1,1.423526e+00,NaN,2,0,3,1
25,887,6,3,70,1,1,1,1.253311e+00,NaN,2,0,1,1
25,888,6,120,67,2,2,1,2.353179e+00,NaN,2,0,3,1
25,889,6,96,57,2,2,1,8.736286e-01,NaN,2,0,2,1
25,890,6,84,11,1,1,1,7.969253e-01,NaN,2,0,2,1
25,891,6,117,9,2,2,1,1.194910e+00,NaN,2,0,3,1
25,892,6,37,21,2,1,0,1.505442e+00,NaN,2,1,1,1
25,893,6,107,7,2,1,0,3.227486e+00,NaN,2,0,3,1
25,894,6,112,32,1,1,1,1.001691e+00,NaN,2,0,3,1
25,895,6,13,28,1,1,1,7.749908e-01,NaN,2,0,1,1
25,896,6,17,15,2,1,0,2.750437e+00,NaN,2,0,1,1
25,897,6,58,3,2,2,1,7.664842e-01,NaN,2,0,2,1
25,898,6,2,46,2,2,1,1.086255e+00,NaN,2,0,1,1
25,899,6,47,61,1,1,1,7.128709e-01,NaN,2,1,1,1
25,900,6,103,59,2,2,1,1.203045e+00,NaN,2,0,3,1
25,901,6,143,22,1,1,1,1.240843e+00,NaN,2,0,3,1
25,902,6,27,35,1,1,1,1.797425e+00,NaN,2,0,1,1
25,903,6,55,60,2,2,1,1.539447e+00,NaN,2,0,2,1
25,904,6,61,12,2,2,1,8.684719e-01,NaN,2,0,2,1
25,905,6,12,54,1,1,1,9.998144e-01,NaN,2,0,1,1
25,906,6,15,44,1,2,0,2.262263e+00,NaN,2,1,1,1
25,907,6,68,29,2,2,1,6.820147e-01,NaN,2,0,2,1
25,908,6,114,64,1,0,0,3.499538e+00,NaN,2,1,3,1
25,909,6,34,19,1,1,1,8.629831e-01,NaN,2,1,1,1
25,910,6,135,42,1,1,1,8.584337e-01,NaN,2,1,3,1
25,911,6,48,48,2,2,1,9.344170e-01,NaN,2,0,1,1
25,912,6,142,69,2,2,1,1.519866e+00,NaN,2,1,3,1
25,913,6,35,53,1,1,1,1.305132e+00,NaN,2,0,1,1
25,914,6,50,26,2,2,1,7.791442e-01,NaN,2,0,2,1
25,915,6,83,37,1,1,1,1.018072e+00,NaN,2,0,2,1
25,916,6,109,13,1,1,1,9.596815e-01,NaN,2,0,3,1
25,917,6,82,6,2,2,1,8.078443e-01,NaN,2,0,2,1
25,918,6,21,71,1,1,1,9.817628e-01,NaN,2,0,1,1
25,919,6,92,41,2,2,1,7.486505e-01,NaN,2,0,2,1
25,920,6,125,10,1,1,1,1.629541e+00,NaN,2,0,3,1
25,921,6,36,39,2,2,1,1.274459e+00,NaN,2,0,1,1
25,922,6,134,1,2,2,1,1.445565e+00,NaN,2,1,3,1
25,923,6,59,62,2,2,1,1.961542e+00,NaN,2,1,2,1
25,924,6,44,63,1,1,1,1.113365e+00,NaN,2,0,1,1
25,925,6,60,23,1,1,1,1.042863e+00,NaN,2,0,2,1
25,926,6,97,56,1,1,1,1.879634e+00,NaN,2,0,3,1
25,927,6,118,18,2,2,1,1.899854e+00,NaN,2,1,3,1
25,928,6,102,20,2,2,1,1.044748e+00,NaN,2,1,3,1
25,929,6,16,50,1,1,1,1.137573e+00,NaN,2,0,1,1
25,930,6,94,17,2,2,1,1.458293e+00,NaN,2,1,2,1
25,931,6,51,58,2,2,1,9.097469e-01,NaN,2,0,2,1
25,932,6,76,72,1,1,1,9.521499e-01,NaN,2,1,2,1
25,933,6,74,49,1,1,1,8.565345e-01,NaN,2,0,2,1
25,934,6,77,31,1,1,1,9.882663e-01,NaN,2,0,2,1
25,935,6,73,30,1,2,0,1.563099e+00,NaN,2,0,2,1
25,936,6,43,52,1,1,1,1.346856e+00,NaN,2,0,1,1
25,937,6,119,68,2,2,1,1.307010e+00,NaN,2,0,3,1
25,938,6,57,25,1,1,1,7.810018e-01,NaN,2,0,2,1
25,939,6,45,47,2,0,0,3.499984e+00,NaN,2,0,1,1
25,940,6,67,4,1,1,1,7.579444e-01,NaN,2,1,2,1
25,941,6,111,5,2,2,1,1.293720e+00,NaN,2,0,3,1
25,942,6,38,65,2,2,1,1.136640e+00,NaN,2,0,1,1
25,943,6,98,40,2,2,1,1.745639e+00,NaN,2,0,3,1
25,944,6,14,27,1,1,1,1.018191e+00,NaN,2,0,1,1
25,945,6,88,43,1,1,1,7.512591e-01,NaN,2,0,2,1
25,946,6,5,34,2,2,1,1.135792e+00,NaN,2,0,1,1
25,947,6,26,36,2,2,1,1.744547e+00,NaN,2,0,1,1
25,948,6,139,2,1,1,1,1.497480e+00,NaN,2,0,3,1
25,949,6,30,67,2,2,1,8.920288e-01,NaN,1,0,1,1
25,950,6,75,21,1,1,1,6.785692e-01,NaN,1,1,2,1
25,951,6,100,51,1,1,1,1.297291e+00,NaN,1,1,3,1
25,952,6,113,36,2,2,1,1.707601e+00,NaN,1,0,3,1
25,953,6,136,60,1,1,1,1.581680e+00,NaN,1,0,3,1
25,954,6,42,31,1,1,1,2.900676e+00,NaN,1,0,1,1
25,955,6,90,53,2,2,1,9.503874e-01,NaN,1,0,2,1
25,956,6,1,1,2,2,1,1.175089e+00,NaN,1,1,1,1
25,957,6,8,72,2,2,1,1.470390e+00,NaN,1,1,1,1
25,958,6,32,24,1,1,1,1.505573e+00,NaN,1,0,1,1
25,959,6,23,45,1,1,1,1.171533e+00,NaN,1,0,1,1
25,960,6,64,13,2,2,1,7.947493e-01,NaN,1,0,2,1
25,961,6,123,62,2,2,1,1.417270e+00,NaN,1,1,3,1
25,962,6,108,54,1,1,1,1.359253e+00,NaN,1,0,3,1
25,963,6,144,70,1,1,1,9.589791e-01,NaN,1,0,3,1
25,964,6,127,15,2,2,1,1.614979e+00,NaN,1,0,3,1
25,965,6,115,55,1,2,0,2.484799e+00,NaN,1,1,3,1
25,966,6,63,32,1,1,1,2.343131e+00,NaN,1,0,2,1
25,967,6,129,66,2,2,1,1.927811e+00,NaN,1,0,3,1
25,968,6,131,26,2,1,0,1.273438e+00,NaN,1,0,3,1
25,969,6,130,46,2,2,1,2.924517e+00,NaN,1,0,3,1
25,970,6,41,49,1,1,1,1.261543e+00,NaN,1,0,1,1
25,971,6,20,69,2,2,1,9.771880e-01,NaN,1,1,1,1
25,972,6,25,68,2,2,1,1.184796e+00,NaN,1,0,1,1
25,973,6,99,27,1,1,1,1.831737e+00,NaN,1,0,3,1
25,974,6,19,38,1,1,1,1.204697e+00,NaN,1,0,1,1
25,975,6,121,23,1,1,1,1.514876e+00,NaN,1,0,3,1
25,976,6,101,12,1,1,1,1.388861e+00,NaN,1,0,3,1
25,977,6,39,22,2,2,1,1.723030e+00,NaN,1,0,1,1
25,978,6,62,19,1,1,1,8.040721e-01,NaN,1,1,2,1
25,979,6,124,50,2,1,0,2.194180e+00,NaN,1,0,3,1
25,980,6,10,6,2,2,1,1.368868e+00,NaN,1,0,1,1
25,981,6,40,33,1,1,1,1.208205e+00,NaN,1,1,1,1
25,982,6,91,16,2,2,1,1.014263e+00,NaN,1,0,2,1
25,983,6,9,57,1,1,1,1.323879e+00,NaN,1,0,1,1
25,984,6,31,17,2,2,1,1.357449e+00,NaN,1,1,1,1
25,985,6,24,41,1,1,1,1.565476e+00,NaN,1,0,1,1
25,986,6,93,8,2,2,1,8.930949e-01,NaN,1,0,2,1
25,987,6,70,5,2,2,1,1.079466e+00,NaN,1,0,2,1
25,988,6,46,10,2,2,1,1.370629e+00,NaN,1,0,1,1
25,989,6,89,47,1,1,1,8.097822e-01,NaN,1,0,2,1
25,990,6,28,18,1,1,1,1.447540e+00,NaN,1,1,1,1
25,991,6,80,14,1,1,1,1.412411e+00,NaN,1,1,2,1
25,992,6,79,20,2,2,1,7.538027e-01,NaN,1,1,2,1
25,993,6,81,64,1,1,1,6.894845e-01,NaN,1,1,2,1
25,994,6,22,30,1,1,1,8.605412e-01,NaN,1,0,1,1
25,995,6,18,2,2,2,1,1.120554e+00,NaN,1,0,1,1
25,996,6,6,37,2,2,1,1.185787e+00,NaN,1,0,1,1
25,997,6,116,71,1,1,1,1.457189e+00,NaN,1,0,3,1
25,998,6,133,44,2,2,1,1.516997e+00,NaN,1,1,3,1
25,999,6,137,3,1,1,1,9.824555e-01,NaN,1,0,3,1
25,1000,6,104,28,1,1,1,8.535269e-01,NaN,1,0,3,1
25,1001,6,132,58,2,2,1,1.505794e+00,NaN,1,0,3,1
25,1002,6,85,52,1,1,1,7.318537e-01,NaN,1,0,2,1
25,1003,6,11,42,2,2,1,1.108927e+00,NaN,1,1,1,1
25,1004,6,29,11,2,2,1,1.055151e+00,NaN,1,0,1,1
25,1005,6,95,61,1,1,1,1.563477e+00,NaN,1,1,2,1
25,1006,6,56,40,2,2,1,8.348139e-01,NaN,1,0,2,1
25,1007,6,66,56,1,1,1,8.889778e-01,NaN,1,0,2,1
25,1008,6,72,35,2,2,1,8.585599e-01,NaN,1,0,2,1
25,1009,6,105,34,1,0,0,3.499836e+00,NaN,1,0,3,1
25,1010,6,52,9,2,2,1,1.784548e+00,NaN,1,0,2,1
25,1011,6,69,39,1,1,1,1.095258e+00,NaN,1,0,2,1
25,1012,6,128,25,2,2,1,2.209502e+00,NaN,1,0,3,1
25,1013,6,54,65,1,1,1,2.583688e+00,NaN,1,0,2,1
25,1014,6,65,48,2,2,1,9.340735e-01,NaN,1,0,2,1
25,1015,6,86,59,2,2,1,9.191107e-01,NaN,1,0,2,1
25,1016,6,122,29,1,1,1,9.209463e-01,NaN,1,0,3,1
25,1017,6,78,7,2,2,1,8.021651e-01,NaN,1,0,2,1
25,1018,6,49,63,2,2,1,6.728748e-01,NaN,1,0,2,1
25,1019,6,141,4,1,1,1,3.251608e+00,NaN,1,1,3,1
25,1020,6,7,43,1,1,1,8.079391e-01,NaN,1,0,1,1
