Subject,Trial,Cond,ImageNum,CueNum,Correct,Resp,Accuracy,RT,CueRep,ImageType,Baseline,Category,Block
27,1,1,143,NaN,NaN,2,NaN,1.364445e+00,NaN,0,1,3,1
27,2,1,106,NaN,NaN,1,NaN,5.702481e-01,NaN,0,0,3,1
27,3,1,60,NaN,NaN,1,NaN,5.009602e-01,NaN,2,0,2,1
27,4,1,144,NaN,NaN,1,NaN,4.582634e-01,NaN,1,1,3,1
27,5,1,25,NaN,NaN,1,NaN,6.656973e-01,NaN,0,1,1,1
27,6,1,77,NaN,NaN,1,NaN,3.683162e-01,NaN,0,0,2,1
27,7,1,7,NaN,NaN,1,NaN,5.799411e-01,NaN,0,1,1,1
27,8,1,30,NaN,NaN,1,NaN,2.430570e+00,NaN,0,0,1,1
27,9,1,59,NaN,NaN,1,NaN,4.149577e-01,NaN,0,1,2,1
27,10,1,64,NaN,NaN,1,NaN,5.039031e-01,NaN,2,0,2,1
27,11,1,12,NaN,NaN,2,NaN,6.374774e-01,NaN,0,0,1,1
27,12,1,53,NaN,NaN,1,NaN,6.532396e-01,NaN,0,1,2,1
27,13,1,103,NaN,NaN,1,NaN,6.126092e-01,NaN,2,0,3,1
27,14,1,2,NaN,NaN,2,NaN,1.292945e+00,NaN,1,0,1,1
27,15,1,93,NaN,NaN,1,NaN,3.553979e-01,NaN,2,0,2,1
27,16,1,124,NaN,NaN,1,NaN,1.039283e+00,NaN,0,0,3,1
27,17,1,92,NaN,NaN,1,NaN,6.395016e-01,NaN,1,1,2,1
27,18,1,56,NaN,NaN,1,NaN,4.400028e-01,NaN,0,0,2,1
27,19,1,53,NaN,NaN,1,NaN,3.597813e-01,NaN,1,1,2,1
27,20,1,141,NaN,NaN,2,NaN,6.831205e-01,NaN,0,0,3,1
27,21,1,8,NaN,NaN,2,NaN,5.135231e-01,NaN,1,1,1,1
27,22,1,88,NaN,NaN,1,NaN,4.627566e-01,NaN,1,0,2,1
27,23,1,16,NaN,NaN,1,NaN,5.009378e-01,NaN,0,0,1,1
27,24,1,68,NaN,NaN,1,NaN,3.548965e-01,NaN,0,0,2,1
27,25,1,36,NaN,NaN,1,NaN,1.590247e+00,NaN,0,0,1,1
27,26,1,102,NaN,NaN,1,NaN,1.255966e+00,NaN,0,0,3,1
27,27,1,21,NaN,NaN,1,NaN,3.752483e-01,NaN,2,0,1,1
27,28,1,137,NaN,NaN,1,NaN,4.746299e-01,NaN,0,0,3,1
27,29,1,22,NaN,NaN,2,NaN,6.177076e-01,NaN,1,1,1,1
27,30,1,91,NaN,NaN,1,NaN,1.211339e+00,NaN,0,0,2,1
27,31,1,133,NaN,NaN,2,NaN,1.140334e+00,NaN,0,0,3,1
27,32,1,104,NaN,NaN,2,NaN,7.920916e-01,NaN,1,1,3,1
27,33,1,138,NaN,NaN,1,NaN,4.021587e-01,NaN,0,0,3,1
27,34,1,100,NaN,NaN,2,NaN,5.399959e-01,NaN,2,0,3,1
27,35,1,81,NaN,NaN,1,NaN,4.243647e-01,NaN,0,0,2,1
27,36,1,107,NaN,NaN,1,NaN,4.970908e-01,NaN,2,1,3,1
27,37,1,128,NaN,NaN,1,NaN,9.427873e-01,NaN,2,1,3,1
27,38,1,105,NaN,NaN,1,NaN,5.388592e-01,NaN,0,1,3,1
27,39,1,98,NaN,NaN,2,NaN,2.494781e+00,NaN,0,0,3,1
27,40,1,12,NaN,NaN,1,NaN,4.123706e-01,NaN,1,0,1,1
27,41,1,20,NaN,NaN,2,NaN,4.618025e-01,NaN,0,0,1,1
27,42,1,29,NaN,NaN,1,NaN,4.370629e-01,NaN,1,0,1,1
27,43,1,98,NaN,NaN,1,NaN,7.327962e-01,NaN,2,0,3,1
27,44,1,4,NaN,NaN,1,NaN,2.973467e-01,NaN,0,0,1,1
27,45,1,103,NaN,NaN,1,NaN,3.506056e-01,NaN,0,0,3,1
27,46,1,115,NaN,NaN,2,NaN,1.130646e+00,NaN,1,0,3,1
27,47,1,48,NaN,NaN,1,NaN,6.631425e-01,NaN,0,0,1,1
27,48,1,108,NaN,NaN,1,NaN,6.701983e-01,NaN,1,0,3,1
27,49,1,40,NaN,NaN,2,NaN,6.364128e-01,NaN,2,0,1,1
27,50,1,18,NaN,NaN,1,NaN,7.966063e-01,NaN,2,1,1,1
27,51,1,81,NaN,NaN,1,NaN,4.460067e-01,NaN,1,0,2,1
27,52,1,133,NaN,NaN,1,NaN,4.384933e-01,NaN,1,0,3,1
27,53,1,75,NaN,NaN,1,NaN,3.900938e-01,NaN,1,1,2,1
27,54,1,139,NaN,NaN,1,NaN,7.286178e-01,NaN,2,0,3,1
27,55,1,19,NaN,NaN,2,NaN,6.852738e-01,NaN,0,1,1,1
27,56,1,83,NaN,NaN,1,NaN,2.754049e-01,NaN,0,1,2,1
27,57,1,86,NaN,NaN,1,NaN,4.102535e-01,NaN,2,0,2,1
27,58,1,135,NaN,NaN,2,NaN,9.317139e-01,NaN,0,0,3,1
27,59,1,34,NaN,NaN,2,NaN,1.144610e+00,NaN,0,1,1,1
27,60,1,6,NaN,NaN,1,NaN,5.478649e-01,NaN,1,0,1,1
27,61,1,68,NaN,NaN,1,NaN,3.599385e-01,NaN,2,0,2,1
27,62,1,57,NaN,NaN,1,NaN,9.952656e-01,NaN,0,0,2,1
27,63,1,82,NaN,NaN,1,NaN,8.521751e-01,NaN,2,0,2,1
27,64,1,11,NaN,NaN,1,NaN,5.559727e-01,NaN,2,0,1,1
27,65,1,92,NaN,NaN,1,NaN,3.912981e-01,NaN,0,1,2,1
27,66,1,134,NaN,NaN,2,NaN,6.657809e-01,NaN,0,1,3,1
27,67,1,111,NaN,NaN,1,NaN,4.327242e-01,NaN,0,0,3,1
27,68,1,93,NaN,NaN,1,NaN,4.576648e-01,NaN,0,0,2,1
27,69,1,65,NaN,NaN,1,NaN,4.322624e-01,NaN,1,0,2,1
27,70,1,41,NaN,NaN,2,NaN,5.686320e-01,NaN,0,0,1,1
27,71,1,101,NaN,NaN,2,NaN,9.558453e-01,NaN,1,0,3,1
27,72,1,14,NaN,NaN,1,NaN,7.916835e-01,NaN,1,1,1,1
27,73,1,37,NaN,NaN,2,NaN,7.617866e-01,NaN,0,0,1,1
27,74,1,38,NaN,NaN,1,NaN,5.730528e-01,NaN,0,0,1,1
27,75,1,136,NaN,NaN,1,NaN,9.270912e-01,NaN,2,0,3,1
27,76,1,95,NaN,NaN,1,NaN,4.197281e-01,NaN,0,0,2,1
27,77,1,4,NaN,NaN,1,NaN,5.643896e-01,NaN,2,0,1,1
27,78,1,51,NaN,NaN,1,NaN,3.590958e-01,NaN,0,0,2,1
27,79,1,138,NaN,NaN,1,NaN,6.021779e-01,NaN,2,0,3,1
27,80,1,45,NaN,NaN,2,NaN,4.352183e-01,NaN,0,0,1,1
27,81,1,32,NaN,NaN,2,NaN,1.395584e+00,NaN,2,0,1,1
27,82,1,8,NaN,NaN,1,NaN,5.734050e-01,NaN,0,1,1,1
27,83,1,97,NaN,NaN,1,NaN,5.123580e-01,NaN,0,0,3,1
27,84,1,96,NaN,NaN,1,NaN,3.246894e-01,NaN,0,1,2,1
27,85,1,141,NaN,NaN,1,NaN,6.333120e-01,NaN,1,0,3,1
27,86,1,112,NaN,NaN,1,NaN,4.177247e-01,NaN,0,0,3,1
27,87,1,131,NaN,NaN,1,NaN,5.222165e-01,NaN,0,0,3,1
27,88,1,87,NaN,NaN,1,NaN,5.993104e-01,NaN,2,0,2,1
27,89,1,113,NaN,NaN,2,NaN,9.045469e-01,NaN,2,1,3,1
27,90,1,124,NaN,NaN,1,NaN,8.376121e-01,NaN,1,0,3,1
27,91,1,78,NaN,NaN,1,NaN,2.037731e+00,NaN,0,0,2,1
27,92,1,73,NaN,NaN,1,NaN,5.419688e-01,NaN,2,0,2,1
27,93,1,80,NaN,NaN,1,NaN,4.414855e-01,NaN,0,0,2,1
27,94,1,118,NaN,NaN,1,NaN,7.144285e-01,NaN,0,0,3,1
27,95,1,116,NaN,NaN,1,NaN,4.875040e-01,NaN,0,0,3,1
27,96,1,23,NaN,NaN,2,NaN,3.898740e-01,NaN,2,0,1,1
27,97,1,23,NaN,NaN,2,NaN,1.055879e+00,NaN,0,0,1,1
27,98,1,113,NaN,NaN,1,NaN,7.762669e-01,NaN,0,1,3,1
27,99,1,82,NaN,NaN,1,NaN,4.020111e-01,NaN,0,0,2,1
27,100,1,26,NaN,NaN,2,NaN,6.439881e-01,NaN,2,0,1,1
27,101,1,123,NaN,NaN,2,NaN,1.819873e+00,NaN,0,0,3,1
27,102,1,58,NaN,NaN,1,NaN,4.441921e-01,NaN,0,0,2,1
27,103,1,52,NaN,NaN,1,NaN,4.283559e-01,NaN,1,0,2,1
27,104,1,132,NaN,NaN,1,NaN,5.248471e-01,NaN,0,0,3,1
27,105,1,41,NaN,NaN,2,NaN,1.104968e+00,NaN,1,0,1,1
27,106,1,69,NaN,NaN,1,NaN,3.028559e-01,NaN,2,1,2,1
27,107,1,90,NaN,NaN,1,NaN,5.487228e-01,NaN,0,0,2,1
27,108,1,127,NaN,NaN,1,NaN,1.111921e+00,NaN,2,1,3,1
27,109,1,100,NaN,NaN,2,NaN,6.203705e-01,NaN,0,0,3,1
27,110,1,119,NaN,NaN,1,NaN,6.530736e-01,NaN,1,0,3,1
27,111,1,79,NaN,NaN,1,NaN,3.479367e-01,NaN,1,1,2,1
27,112,1,75,NaN,NaN,1,NaN,4.964911e-01,NaN,0,1,2,1
27,113,1,95,NaN,NaN,1,NaN,1.485997e+00,NaN,2,0,2,1
27,114,1,73,NaN,NaN,1,NaN,8.362161e-01,NaN,0,0,2,1
27,115,1,3,NaN,NaN,2,NaN,6.685648e-01,NaN,0,0,1,1
27,116,1,6,NaN,NaN,1,NaN,3.316803e-01,NaN,0,0,1,1
27,117,1,69,NaN,NaN,1,NaN,9.601701e-01,NaN,0,1,2,1
27,118,1,70,NaN,NaN,1,NaN,3.878294e-01,NaN,1,1,2,1
27,119,1,31,NaN,NaN,1,NaN,6.534636e-01,NaN,0,0,1,1
27,120,1,60,NaN,NaN,1,NaN,3.330254e-01,NaN,0,0,2,1
27,121,1,55,NaN,NaN,1,NaN,8.976175e-01,NaN,0,0,2,1
27,122,1,43,NaN,NaN,1,NaN,1.999553e+00,NaN,0,1,1,1
27,123,1,142,NaN,NaN,1,NaN,1.265025e+00,NaN,0,0,3,1
27,124,1,106,NaN,NaN,1,NaN,4.639600e-01,NaN,2,0,3,1
27,125,1,11,NaN,NaN,1,NaN,7.028655e-01,NaN,0,0,1,1
27,126,1,99,NaN,NaN,2,NaN,7.089546e-01,NaN,1,0,3,1
27,127,1,57,NaN,NaN,1,NaN,4.898276e-01,NaN,1,0,2,1
27,128,1,72,NaN,NaN,1,NaN,4.318120e-01,NaN,1,0,2,1
27,129,1,42,NaN,NaN,2,NaN,7.685129e-01,NaN,2,0,1,1
27,130,1,34,NaN,NaN,1,NaN,4.915578e-01,NaN,1,1,1,1
27,131,1,122,NaN,NaN,2,NaN,1.514148e+00,NaN,2,1,3,1
27,132,1,15,NaN,NaN,2,NaN,7.509185e-01,NaN,2,1,1,1
27,133,1,114,NaN,NaN,1,NaN,3.475304e-01,NaN,0,0,3,1
27,134,1,27,NaN,NaN,1,NaN,3.989746e-01,NaN,0,1,1,1
27,135,1,140,NaN,NaN,1,NaN,3.605304e-01,NaN,0,0,3,1
27,136,1,35,NaN,NaN,2,NaN,7.321747e-01,NaN,0,0,1,1
27,137,1,114,NaN,NaN,1,NaN,2.965338e-01,NaN,2,0,3,1
27,138,1,44,NaN,NaN,1,NaN,5.342715e-01,NaN,0,0,1,1
27,139,1,120,NaN,NaN,2,NaN,1.145959e+00,NaN,0,0,3,1
27,140,1,70,NaN,NaN,1,NaN,4.218041e-01,NaN,0,1,2,1
27,141,1,130,NaN,NaN,2,NaN,1.518963e+00,NaN,0,0,3,1
27,142,1,39,NaN,NaN,2,NaN,1.747550e+00,NaN,0,0,1,1
27,143,1,112,NaN,NaN,1,NaN,4.874509e-01,NaN,1,0,3,1
27,144,1,130,NaN,NaN,2,NaN,1.733888e+00,NaN,1,0,3,1
27,145,1,84,NaN,NaN,1,NaN,4.739226e-01,NaN,2,0,2,1
27,146,1,48,NaN,NaN,1,NaN,5.687210e-01,NaN,1,0,1,1
27,147,1,128,NaN,NaN,1,NaN,4.680346e-01,NaN,0,1,3,1
27,148,1,86,NaN,NaN,1,NaN,5.792019e-01,NaN,0,0,2,1
27,149,1,66,NaN,NaN,1,NaN,3.411805e-01,NaN,0,0,2,1
27,150,1,77,NaN,NaN,1,NaN,4.495120e-01,NaN,1,0,2,1
27,151,1,134,NaN,NaN,2,NaN,6.491297e-01,NaN,2,1,3,1
27,152,1,136,NaN,NaN,2,NaN,9.688167e-01,NaN,0,0,3,1
27,153,1,131,NaN,NaN,1,NaN,4.445226e-01,NaN,2,0,3,1
27,154,1,123,NaN,NaN,1,NaN,5.002409e-01,NaN,1,0,3,1
27,155,1,116,NaN,NaN,1,NaN,4.906372e-01,NaN,2,0,3,1
27,156,1,9,NaN,NaN,1,NaN,6.485843e-01,NaN,0,0,1,1
27,157,1,117,NaN,NaN,2,NaN,7.526263e-01,NaN,2,0,3,1
27,158,1,3,NaN,NaN,2,NaN,6.367240e-01,NaN,2,0,1,1
27,159,1,142,NaN,NaN,1,NaN,4.685592e-01,NaN,1,0,3,1
27,160,1,140,NaN,NaN,1,NaN,4.594300e-01,NaN,2,0,3,1
27,161,1,17,NaN,NaN,1,NaN,6.503993e-01,NaN,0,0,1,1
27,162,1,24,NaN,NaN,2,NaN,1.682499e+00,NaN,0,0,1,1
27,163,1,120,NaN,NaN,2,NaN,1.080788e+00,NaN,2,0,3,1
27,164,1,135,NaN,NaN,1,NaN,5.831727e-01,NaN,1,0,3,1
27,165,1,127,NaN,NaN,1,NaN,3.855523e-01,NaN,0,1,3,1
27,166,1,18,NaN,NaN,1,NaN,7.718389e-01,NaN,0,1,1,1
27,167,1,121,NaN,NaN,2,NaN,8.466801e-01,NaN,0,1,3,1
27,168,1,28,NaN,NaN,2,NaN,6.462357e-01,NaN,1,0,1,1
27,169,1,105,NaN,NaN,1,NaN,6.145033e-01,NaN,1,1,3,1
27,170,1,94,NaN,NaN,1,NaN,3.838188e-01,NaN,0,0,2,1
27,171,1,79,NaN,NaN,1,NaN,3.386396e-01,NaN,0,1,2,1
27,172,1,56,NaN,NaN,1,NaN,3.503852e-01,NaN,1,0,2,1
27,173,1,59,NaN,NaN,1,NaN,4.653935e-01,NaN,2,1,2,1
27,174,1,49,NaN,NaN,1,NaN,5.448607e-01,NaN,0,1,2,1
27,175,1,29,NaN,NaN,1,NaN,6.121827e-01,NaN,0,0,1,1
27,176,1,13,NaN,NaN,2,NaN,8.462780e-01,NaN,0,1,1,1
27,177,1,71,NaN,NaN,1,NaN,2.775181e-01,NaN,2,0,2,1
27,178,1,61,NaN,NaN,1,NaN,5.795928e-01,NaN,0,0,2,1
27,179,1,46,NaN,NaN,2,NaN,9.741146e-01,NaN,1,0,1,1
27,180,1,109,NaN,NaN,1,NaN,4.015375e-01,NaN,0,1,3,1
27,181,1,54,NaN,NaN,1,NaN,9.792305e-01,NaN,0,0,2,1
27,182,1,76,NaN,NaN,1,NaN,7.332900e-01,NaN,0,0,2,1
27,183,1,102,NaN,NaN,1,NaN,1.146048e+00,NaN,1,0,3,1
27,184,1,20,NaN,NaN,2,NaN,8.459572e-01,NaN,1,0,1,1
27,185,1,94,NaN,NaN,1,NaN,4.459545e-01,NaN,1,0,2,1
27,186,1,126,NaN,NaN,1,NaN,9.733063e-01,NaN,0,0,3,1
27,187,1,24,NaN,NaN,1,NaN,3.930868e-01,NaN,1,0,1,1
27,188,1,14,NaN,NaN,1,NaN,4.666531e-01,NaN,0,1,1,1
27,189,1,72,NaN,NaN,1,NaN,4.506373e-01,NaN,0,0,2,1
27,190,1,139,NaN,NaN,1,NaN,3.540200e-01,NaN,0,0,3,1
27,191,1,83,NaN,NaN,1,NaN,3.413010e-01,NaN,1,1,2,1
27,192,1,109,NaN,NaN,1,NaN,2.896334e-01,NaN,2,1,3,1
27,193,1,85,NaN,NaN,1,NaN,3.679072e-01,NaN,0,0,2,1
27,194,1,110,NaN,NaN,1,NaN,1.331204e+00,NaN,0,0,3,1
27,195,1,104,NaN,NaN,1,NaN,2.432052e+00,NaN,0,1,3,1
27,196,1,71,NaN,NaN,1,NaN,7.602098e-01,NaN,0,0,2,1
27,197,1,43,NaN,NaN,2,NaN,1.523381e+00,NaN,2,1,1,1
27,198,1,125,NaN,NaN,1,NaN,3.037521e-01,NaN,2,0,3,1
27,199,1,89,NaN,NaN,1,NaN,1.469341e+00,NaN,0,1,2,1
27,200,1,47,NaN,NaN,1,NaN,5.478179e-01,NaN,2,0,1,1
27,201,1,80,NaN,NaN,1,NaN,3.355279e-01,NaN,2,0,2,1
27,202,1,115,NaN,NaN,1,NaN,8.684574e-01,NaN,0,0,3,1
27,203,1,89,NaN,NaN,1,NaN,3.552901e-01,NaN,2,1,2,1
27,204,1,61,NaN,NaN,1,NaN,4.622830e-01,NaN,1,0,2,1
27,205,1,62,NaN,NaN,1,NaN,7.028371e-01,NaN,2,0,2,1
27,206,1,64,NaN,NaN,1,NaN,3.321533e-01,NaN,0,0,2,1
27,207,1,39,NaN,NaN,2,NaN,5.037911e-01,NaN,1,0,1,1
27,208,1,45,NaN,NaN,2,NaN,4.458712e-01,NaN,2,0,1,1
27,209,1,17,NaN,NaN,1,NaN,2.860104e-01,NaN,2,0,1,1
27,210,1,44,NaN,NaN,1,NaN,5.962310e-01,NaN,1,0,1,1
27,211,1,107,NaN,NaN,1,NaN,4.299107e-01,NaN,0,1,3,1
27,212,1,76,NaN,NaN,1,NaN,5.264501e-01,NaN,1,0,2,1
27,213,1,58,NaN,NaN,1,NaN,5.316352e-01,NaN,2,0,2,1
27,214,1,10,NaN,NaN,1,NaN,5.520385e-01,NaN,0,0,1,1
27,215,1,65,NaN,NaN,1,NaN,3.319701e-01,NaN,0,0,2,1
27,216,1,137,NaN,NaN,1,NaN,3.767204e-01,NaN,1,0,3,1
27,217,1,1,NaN,NaN,1,NaN,6.353814e-01,NaN,0,0,1,1
27,218,1,22,NaN,NaN,2,NaN,1.443602e+00,NaN,0,1,1,1
27,219,1,46,NaN,NaN,2,NaN,1.316133e+00,NaN,0,0,1,1
27,220,1,2,NaN,NaN,1,NaN,4.488389e-01,NaN,0,0,1,1
27,221,1,132,NaN,NaN,1,NaN,9.044920e-01,NaN,1,0,3,1
27,222,1,28,NaN,NaN,1,NaN,4.620334e-01,NaN,0,0,1,1
27,223,1,13,NaN,NaN,2,NaN,5.252452e-01,NaN,2,1,1,1
27,224,1,101,NaN,NaN,1,NaN,5.783549e-01,NaN,0,0,3,1
27,225,1,47,NaN,NaN,1,NaN,7.326241e-01,NaN,0,0,1,1
27,226,1,119,NaN,NaN,1,NaN,7.921372e-01,NaN,0,0,3,1
27,227,1,49,NaN,NaN,1,NaN,3.702712e-01,NaN,1,1,2,1
27,228,1,74,NaN,NaN,1,NaN,4.613343e-01,NaN,0,0,2,1
27,229,1,85,NaN,NaN,1,NaN,5.085252e-01,NaN,1,0,2,1
27,230,1,97,NaN,NaN,1,NaN,8.657656e-01,NaN,1,0,3,1
27,231,1,63,NaN,NaN,1,NaN,5.055261e-01,NaN,0,0,2,1
27,232,1,67,NaN,NaN,1,NaN,6.138637e-01,NaN,2,0,2,1
27,233,1,5,NaN,NaN,1,NaN,5.112322e-01,NaN,2,0,1,1
27,234,1,99,NaN,NaN,2,NaN,9.480007e-01,NaN,0,0,3,1
27,235,1,66,NaN,NaN,1,NaN,8.799341e-01,NaN,1,0,2,1
27,236,1,38,NaN,NaN,1,NaN,4.221319e-01,NaN,2,0,1,1
27,237,1,21,NaN,NaN,1,NaN,4.471996e-01,NaN,0,0,1,1
27,238,1,33,NaN,NaN,1,NaN,4.149568e-01,NaN,2,0,1,1
27,239,1,143,NaN,NaN,1,NaN,7.123204e-01,NaN,2,1,3,1
27,240,1,51,NaN,NaN,1,NaN,7.736089e-01,NaN,2,0,2,1
27,241,1,25,NaN,NaN,1,NaN,3.039471e-01,NaN,1,1,1,1
27,242,1,50,NaN,NaN,1,NaN,6.452115e-01,NaN,0,1,2,1
27,243,1,16,NaN,NaN,1,NaN,7.329827e-01,NaN,1,0,1,1
27,244,1,35,NaN,NaN,2,NaN,4.008508e-01,NaN,1,0,1,1
27,245,1,31,NaN,NaN,1,NaN,3.071077e-01,NaN,1,0,1,1
27,246,1,15,NaN,NaN,2,NaN,4.489494e-01,NaN,0,1,1,1
27,247,1,108,NaN,NaN,1,NaN,8.648770e-01,NaN,0,0,3,1
27,248,1,1,NaN,NaN,1,NaN,6.395115e-01,NaN,2,0,1,1
27,249,1,9,NaN,NaN,1,NaN,5.677407e-01,NaN,1,0,1,1
27,250,1,54,NaN,NaN,1,NaN,4.668471e-01,NaN,2,0,2,1
27,251,1,117,NaN,NaN,1,NaN,9.460550e-01,NaN,0,0,3,1
27,252,1,144,NaN,NaN,1,NaN,1.493662e+00,NaN,0,1,3,1
27,253,1,63,NaN,NaN,1,NaN,3.641384e-01,NaN,1,0,2,1
27,254,1,118,NaN,NaN,1,NaN,4.227196e-01,NaN,1,0,3,1
27,255,1,52,NaN,NaN,1,NaN,3.521277e-01,NaN,0,0,2,1
27,256,1,121,NaN,NaN,1,NaN,6.674863e-01,NaN,1,1,3,1
27,257,1,10,NaN,NaN,1,NaN,4.424275e-01,NaN,1,0,1,1
27,258,1,55,NaN,NaN,1,NaN,4.983172e-01,NaN,2,0,2,1
27,259,1,129,NaN,NaN,2,NaN,6.478104e-01,NaN,0,0,3,1
27,260,1,42,NaN,NaN,2,NaN,7.277913e-01,NaN,0,0,1,1
27,261,1,111,NaN,NaN,1,NaN,8.682947e-01,NaN,2,0,3,1
27,262,1,50,NaN,NaN,1,NaN,4.030887e-01,NaN,2,1,2,1
27,263,1,67,NaN,NaN,1,NaN,3.727466e-01,NaN,0,0,2,1
27,264,1,88,NaN,NaN,1,NaN,3.834532e-01,NaN,0,0,2,1
27,265,1,90,NaN,NaN,1,NaN,4.183846e-01,NaN,2,0,2,1
27,266,1,74,NaN,NaN,1,NaN,7.230183e-01,NaN,1,0,2,1
27,267,1,7,NaN,NaN,1,NaN,3.758930e-01,NaN,2,1,1,1
27,268,1,78,NaN,NaN,1,NaN,4.588607e-01,NaN,2,0,2,1
27,269,1,33,NaN,NaN,1,NaN,8.423788e-01,NaN,0,0,1,1
27,270,1,91,NaN,NaN,1,NaN,5.304936e-01,NaN,1,0,2,1
27,271,1,27,NaN,NaN,1,NaN,9.510203e-01,NaN,1,1,1,1
27,272,1,30,NaN,NaN,2,NaN,6.192313e-01,NaN,2,0,1,1
27,273,1,96,NaN,NaN,1,NaN,5.005533e-01,NaN,1,1,2,1
27,274,1,26,NaN,NaN,2,NaN,6.981287e-01,NaN,0,0,1,1
27,275,1,122,NaN,NaN,2,NaN,1.391994e+00,NaN,0,1,3,1
27,276,1,19,NaN,NaN,2,NaN,1.593724e+00,NaN,2,1,1,1
27,277,1,84,NaN,NaN,1,NaN,5.640171e-01,NaN,0,0,2,1
27,278,1,36,NaN,NaN,2,NaN,9.511734e-01,NaN,1,0,1,1
27,279,1,37,NaN,NaN,2,NaN,5.476838e-01,NaN,2,0,1,1
27,280,1,5,NaN,NaN,1,NaN,3.838203e-01,NaN,0,0,1,1
27,281,1,62,NaN,NaN,1,NaN,1.025960e+00,NaN,0,0,2,1
27,282,1,87,NaN,NaN,1,NaN,5.942593e-01,NaN,0,0,2,1
27,283,1,40,NaN,NaN,2,NaN,8.757306e-01,NaN,0,0,1,1
27,284,1,110,NaN,NaN,1,NaN,5.067788e-01,NaN,1,0,3,1
27,285,1,129,NaN,NaN,2,NaN,4.886112e-01,NaN,2,0,3,1
27,286,1,125,NaN,NaN,1,NaN,6.784643e-01,NaN,0,0,3,1
27,287,1,126,NaN,NaN,2,NaN,2.380850e+00,NaN,1,0,3,1
27,288,1,32,NaN,NaN,1,NaN,1.087412e+00,NaN,0,0,1,1
27,383,2,115,52,2,2,1,2.403495e+00,NaN,1,0,3,1
27,384,2,52,57,2,0,0,3.499555e+00,NaN,1,0,2,1
27,385,2,41,31,1,1,1,1.722534e+00,NaN,1,0,1,1
27,386,2,121,35,2,2,1,1.314503e+00,NaN,1,1,3,1
27,387,2,110,65,2,2,1,1.260408e+00,NaN,1,0,3,1
27,388,2,2,25,1,1,1,9.823289e-01,NaN,1,0,1,1
27,389,2,22,39,2,2,1,1.628150e+00,NaN,1,1,1,1
27,390,2,65,32,2,2,1,1.072508e+00,NaN,1,0,2,1
27,391,2,77,22,1,1,1,1.187048e+00,NaN,1,0,2,1
27,392,2,20,23,2,2,1,1.200685e+00,NaN,1,0,1,1
27,393,2,63,9,2,2,1,1.221991e+00,NaN,1,0,2,1
27,394,2,119,27,1,1,1,1.106496e+00,NaN,1,0,3,1
27,395,2,72,49,1,1,1,1.331438e+00,NaN,1,0,2,1
27,396,2,96,6,2,2,1,6.271043e-01,NaN,1,1,2,1
27,397,2,92,3,1,1,1,1.159998e+00,NaN,1,1,2,1
27,398,2,56,38,1,1,1,7.590145e-01,NaN,1,0,2,1
27,399,2,141,19,1,1,1,1.541794e+00,NaN,1,0,3,1
27,400,2,6,45,2,1,0,1.429638e+00,NaN,1,0,1,1
27,401,2,118,64,1,1,1,1.737739e+00,NaN,1,0,3,1
27,402,2,85,62,1,1,1,7.209543e-01,NaN,1,0,2,1
27,403,2,53,34,1,1,1,8.172894e-01,NaN,1,1,2,1
27,404,2,35,14,2,2,1,1.526359e+00,NaN,1,0,1,1
27,405,2,12,13,1,2,0,1.510785e+00,NaN,1,0,1,1
27,406,2,31,71,2,2,1,1.735462e+00,NaN,1,0,1,1
27,407,3,65,32,2,2,1,6.790927e-01,NaN,1,0,2,1
27,408,3,12,13,2,1,0,1.441368e+00,NaN,1,0,1,1
27,409,3,72,49,1,1,1,8.211156e-01,NaN,1,0,2,1
27,410,3,92,3,2,2,1,1.369428e+00,NaN,1,1,2,1
27,411,3,31,71,2,2,1,9.759782e-01,NaN,1,0,1,1
27,412,3,53,34,1,1,1,7.982582e-01,NaN,1,1,2,1
27,413,3,6,45,2,2,1,1.379983e+00,NaN,1,0,1,1
27,414,3,85,62,1,1,1,6.179361e-01,NaN,1,0,2,1
27,415,3,52,57,2,2,1,8.625075e-01,NaN,1,0,2,1
27,416,3,118,64,1,1,1,1.017417e+00,NaN,1,0,3,1
27,417,3,22,39,2,2,1,7.421331e-01,NaN,1,1,1,1
27,418,3,115,52,1,1,1,1.341583e+00,NaN,1,0,3,1
27,419,3,110,65,2,2,1,1.069398e+00,NaN,1,0,3,1
27,420,3,41,31,2,2,1,1.272089e+00,NaN,1,0,1,1
27,421,3,119,27,1,1,1,6.827444e-01,NaN,1,0,3,1
27,422,3,121,35,2,2,1,8.690629e-01,NaN,1,1,3,1
27,423,3,56,38,1,1,1,5.438326e-01,NaN,1,0,2,1
27,424,3,2,25,1,1,1,7.918830e-01,NaN,1,0,1,1
27,425,3,20,23,2,2,1,8.778314e-01,NaN,1,0,1,1
27,426,3,141,19,2,2,1,1.576739e+00,NaN,1,0,3,1
27,427,3,77,22,2,2,1,1.070777e+00,NaN,1,0,2,1
27,428,3,63,9,1,2,0,1.321023e+00,NaN,1,0,2,1
27,429,3,35,14,2,2,1,1.225234e+00,NaN,1,0,1,1
27,430,3,96,6,2,2,1,6.940780e-01,NaN,1,1,2,1
27,455,2,48,55,1,1,1,1.496239e+00,NaN,1,0,1,2
27,456,2,135,15,2,2,1,9.776468e-01,NaN,1,0,3,2
27,457,2,16,4,2,2,1,2.232109e+00,NaN,1,0,1,2
27,458,2,10,16,2,2,1,1.468136e+00,NaN,1,0,1,2
27,459,2,105,41,2,2,1,1.174908e+00,NaN,1,1,3,2
27,460,2,99,10,1,1,1,1.781582e+00,NaN,1,0,3,2
27,461,2,46,7,1,2,0,2.267558e+00,NaN,1,0,1,2
27,462,2,137,69,1,1,1,1.134242e+00,NaN,1,0,3,2
27,463,2,124,1,2,2,1,1.022590e+00,NaN,1,0,3,2
27,464,2,126,11,2,2,1,1.779020e+00,NaN,1,0,3,2
27,465,2,108,29,1,1,1,1.064974e+00,NaN,1,0,3,2
27,466,2,8,30,1,1,1,8.278370e-01,NaN,1,1,1,2
27,467,2,70,33,1,1,1,8.323655e-01,NaN,1,1,2,2
27,468,2,81,56,1,1,1,1.316424e+00,NaN,1,0,2,2
27,469,2,28,40,1,1,1,6.850870e-01,NaN,1,0,1,2
27,470,2,83,46,2,2,1,9.592999e-01,NaN,1,1,2,2
27,471,2,44,67,2,2,1,1.174125e+00,NaN,1,0,1,2
27,472,2,123,70,2,2,1,1.180507e+00,NaN,1,0,3,2
27,473,2,29,50,1,1,1,6.585825e-01,NaN,1,0,1,2
27,474,2,66,47,1,2,0,1.621613e+00,NaN,1,0,2,2
27,475,2,76,60,2,2,1,1.370005e+00,NaN,1,0,2,2
27,476,2,24,59,2,2,1,1.232508e+00,NaN,1,0,1,2
27,477,2,104,72,2,2,1,1.028523e+00,NaN,1,1,3,2
27,478,2,25,48,1,1,1,8.647094e-01,NaN,1,1,1,2
27,479,3,24,59,2,2,1,7.272100e-01,NaN,1,0,1,2
27,480,3,29,50,1,1,1,6.317871e-01,NaN,1,0,1,2
27,481,3,48,55,2,2,1,7.957267e-01,NaN,1,0,1,2
27,482,3,123,70,2,2,1,9.856918e-01,NaN,1,0,3,2
27,483,3,108,29,2,2,1,1.239835e+00,NaN,1,0,3,2
27,484,3,126,11,1,1,1,1.531742e+00,NaN,1,0,3,2
27,485,3,81,56,2,2,1,5.401613e-01,NaN,1,0,2,2
27,486,3,135,15,2,2,1,5.319419e-01,NaN,1,0,3,2
27,487,3,66,47,2,2,1,1.420129e+00,NaN,1,0,2,2
27,488,3,8,30,1,1,1,5.608034e-01,NaN,1,1,1,2
27,489,3,25,48,1,1,1,6.639076e-01,NaN,1,1,1,2
27,490,3,70,33,1,1,1,6.830290e-01,NaN,1,1,2,2
27,491,3,124,1,2,2,1,1.156527e+00,NaN,1,0,3,2
27,492,3,137,69,1,1,1,9.083631e-01,NaN,1,0,3,2
27,493,3,105,41,1,1,1,9.015722e-01,NaN,1,1,3,2
27,494,3,83,46,1,1,1,8.070736e-01,NaN,1,1,2,2
27,495,3,104,72,1,1,1,8.600840e-01,NaN,1,1,3,2
27,496,3,10,16,2,2,1,9.350948e-01,NaN,1,0,1,2
27,497,3,28,40,1,1,1,7.195876e-01,NaN,1,0,1,2
27,498,3,76,60,2,2,1,9.597517e-01,NaN,1,0,2,2
27,499,3,16,4,2,2,1,1.831192e+00,NaN,1,0,1,2
27,500,3,44,67,2,2,1,8.115010e-01,NaN,1,0,1,2
27,501,3,99,10,1,1,1,1.504473e+00,NaN,1,0,3,2
27,502,3,46,7,2,2,1,1.162084e+00,NaN,1,0,1,2
27,527,2,133,2,2,2,1,1.186151e+00,NaN,1,0,3,3
27,528,2,132,42,1,1,1,7.046527e-01,NaN,1,0,3,3
27,529,2,91,58,2,2,1,5.459609e-01,NaN,1,0,2,3
27,530,2,112,37,2,2,1,7.377841e-01,NaN,1,0,3,3
27,531,2,14,54,1,1,1,8.332499e-01,NaN,1,1,1,3
27,532,2,144,68,1,1,1,1.222026e+00,NaN,1,1,3,3
27,533,2,75,20,1,1,1,8.745127e-01,NaN,1,1,2,3
27,534,2,101,17,1,1,1,1.045298e+00,NaN,1,0,3,3
27,535,2,88,8,1,1,1,7.290887e-01,NaN,1,0,2,3
27,536,2,49,18,1,1,1,1.121224e+00,NaN,1,1,2,3
27,537,2,61,12,1,1,1,9.776437e-01,NaN,1,0,2,3
27,538,2,142,36,2,2,1,1.096465e+00,NaN,1,0,3,3
27,539,2,79,26,1,1,1,1.289546e+00,NaN,1,1,2,3
27,540,2,34,43,2,2,1,1.219250e+00,NaN,1,1,1,3
27,541,2,94,51,2,2,1,1.152182e+00,NaN,1,0,2,3
27,542,2,74,44,1,2,0,1.239452e+00,NaN,1,0,2,3
27,543,2,39,5,1,1,1,7.392698e-01,NaN,1,0,1,3
27,544,2,27,28,2,1,0,1.387003e+00,NaN,1,1,1,3
27,545,2,36,53,1,1,1,1.160714e+00,NaN,1,0,1,3
27,546,2,97,24,2,2,1,1.072186e+00,NaN,1,0,3,3
27,547,2,57,21,1,1,1,6.187662e-01,NaN,1,0,2,3
27,548,2,9,61,2,2,1,1.151164e+00,NaN,1,0,1,3
27,549,2,130,63,1,1,1,1.967225e+00,NaN,1,0,3,3
27,550,2,102,66,1,1,1,9.419874e-01,NaN,1,0,3,3
27,551,3,34,43,2,2,1,8.114958e-01,NaN,1,1,1,3
27,552,3,61,12,2,2,1,7.444790e-01,NaN,1,0,2,3
27,553,3,94,51,2,2,1,4.568719e-01,NaN,1,0,2,3
27,554,3,102,66,1,1,1,8.279785e-01,NaN,1,0,3,3
27,555,3,97,24,1,1,1,1.112789e+00,NaN,1,0,3,3
27,556,3,133,2,2,2,1,7.853325e-01,NaN,1,0,3,3
27,557,3,144,68,1,1,1,7.683267e-01,NaN,1,1,3,3
27,558,3,88,8,2,2,1,1.262440e+00,NaN,1,0,2,3
27,559,3,57,21,1,1,1,6.732738e-01,NaN,1,0,2,3
27,560,3,112,37,1,1,1,1.532416e+00,NaN,1,0,3,3
27,561,3,79,26,2,2,1,7.720701e-01,NaN,1,1,2,3
27,562,3,74,44,1,2,0,7.469049e-01,NaN,1,0,2,3
27,563,3,101,17,2,2,1,9.142252e-01,NaN,1,0,3,3
27,564,3,27,28,2,2,1,5.712810e-01,NaN,1,1,1,3
27,565,3,39,5,2,2,1,1.097843e+00,NaN,1,0,1,3
27,566,3,132,42,1,1,1,7.637857e-01,NaN,1,0,3,3
27,567,3,75,20,2,2,1,6.668123e-01,NaN,1,1,2,3
27,568,3,130,63,1,1,1,1.021797e+00,NaN,1,0,3,3
27,569,3,36,53,2,2,1,1.074364e+00,NaN,1,0,1,3
27,570,3,9,61,2,2,1,7.724006e-01,NaN,1,0,1,3
27,571,3,142,36,1,1,1,7.713789e-01,NaN,1,0,3,3
27,572,3,49,18,1,1,1,5.856837e-01,NaN,1,1,2,3
27,573,3,14,54,1,1,1,1.103405e+00,NaN,1,1,1,3
27,574,3,91,58,1,1,1,6.484762e-01,NaN,1,0,2,3
27,599,4,87,23,2,2,1,1.197262e+00,NaN,2,0,2,1
27,600,4,1,51,2,2,1,7.548412e-01,NaN,2,0,1,1
27,601,4,122,48,1,1,1,7.540824e-01,NaN,2,1,3,1
27,602,4,100,47,1,1,1,7.538020e-01,NaN,2,0,3,1
27,603,4,30,63,1,1,1,6.891534e-01,NaN,2,0,1,1
27,604,4,69,68,2,2,1,7.070967e-01,NaN,2,1,2,1
27,605,4,90,55,1,2,0,1.284233e+00,NaN,2,0,2,1
27,606,4,50,41,1,1,1,7.184442e-01,NaN,2,1,2,1
27,607,4,125,45,2,2,1,1.303741e+00,NaN,2,0,3,1
27,608,4,131,67,1,1,1,8.726847e-01,NaN,2,0,3,1
27,609,4,17,8,2,2,1,1.522995e+00,NaN,2,0,1,1
27,610,4,111,49,1,1,1,1.475570e+00,NaN,2,0,3,1
27,611,4,18,3,1,1,1,5.977015e-01,NaN,2,1,1,1
27,612,4,54,2,1,1,1,6.436048e-01,NaN,2,0,2,1
27,613,4,107,6,1,1,1,7.995055e-01,NaN,2,1,3,1
27,614,4,82,31,2,2,1,1.084607e+00,NaN,2,0,2,1
27,615,4,98,9,2,2,1,8.872380e-01,NaN,2,0,3,1
27,616,4,42,36,1,1,1,1.537153e+00,NaN,2,0,1,1
27,617,4,67,17,2,2,1,9.686977e-01,NaN,2,0,2,1
27,618,4,32,64,1,1,1,1.791595e+00,NaN,2,0,1,1
27,619,4,140,25,2,1,0,1.245581e+00,NaN,2,0,3,1
27,620,4,3,22,2,2,1,1.464831e+00,NaN,2,0,1,1
27,621,4,136,59,1,1,1,1.252137e+00,NaN,2,0,3,1
27,622,4,64,10,2,2,1,5.592957e-01,NaN,2,0,2,1
27,647,4,95,14,2,2,1,1.292653e+00,NaN,2,0,2,2
27,648,4,113,33,2,2,1,7.665388e-01,NaN,2,1,3,2
27,649,4,21,62,1,1,1,7.257352e-01,NaN,2,0,1,2
27,650,4,55,15,2,2,1,9.976858e-01,NaN,2,0,2,2
27,651,4,60,19,1,1,1,1.035480e+00,NaN,2,0,2,2
27,652,4,143,30,2,2,1,8.392886e-01,NaN,2,1,3,2
27,653,4,43,72,2,2,1,7.469372e-01,NaN,2,1,1,2
27,654,4,38,24,2,2,1,6.503987e-01,NaN,2,0,1,2
27,655,4,134,54,1,1,1,7.902407e-01,NaN,2,1,3,2
27,656,4,129,61,2,2,1,1.148106e+00,NaN,2,0,3,2
27,657,4,13,18,2,2,1,6.034281e-01,NaN,2,1,1,2
27,658,4,103,12,1,1,1,9.764119e-01,NaN,2,0,3,2
27,659,4,47,65,1,1,1,8.711348e-01,NaN,2,0,1,2
27,660,4,33,69,1,1,1,7.856277e-01,NaN,2,0,1,2
27,661,4,23,27,1,1,1,1.607849e+00,NaN,2,0,1,2
27,662,4,109,20,1,1,1,8.365702e-01,NaN,2,1,3,2
27,663,4,138,50,2,2,1,9.532419e-01,NaN,2,0,3,2
27,664,4,51,37,2,2,1,9.528211e-01,NaN,2,0,2,2
27,665,4,7,46,2,2,1,7.201028e-01,NaN,2,1,1,2
27,666,4,68,52,2,2,1,1.032259e+00,NaN,2,0,2,2
27,667,4,62,11,2,2,1,9.323276e-01,NaN,2,0,2,2
27,668,4,139,71,1,1,1,8.687387e-01,NaN,2,0,3,2
27,669,4,86,5,1,1,1,1.167851e+00,NaN,2,0,2,2
27,670,4,59,35,2,2,1,1.006433e+00,NaN,2,1,2,2
27,695,4,80,53,1,1,1,1.001353e+00,NaN,2,0,2,3
27,696,4,58,42,1,1,1,6.627899e-01,NaN,2,0,2,3
27,697,4,84,13,2,2,1,8.255560e-01,NaN,2,0,2,3
27,698,4,5,44,2,2,1,1.205847e+00,NaN,2,0,1,3
27,699,4,78,16,1,1,1,9.470466e-01,NaN,2,0,2,3
27,700,4,127,39,2,2,1,1.122197e+00,NaN,2,1,3,3
27,701,4,93,7,2,2,1,8.268494e-01,NaN,2,0,2,3
27,702,4,71,40,1,1,1,7.270216e-01,NaN,2,0,2,3
27,703,4,116,57,2,1,0,1.575861e+00,NaN,2,0,3,3
27,704,4,11,38,1,1,1,6.782937e-01,NaN,2,0,1,3
27,705,4,106,56,1,1,1,9.052073e-01,NaN,2,0,3,3
27,706,4,89,28,2,2,1,1.506287e+00,NaN,2,1,2,3
27,707,4,40,70,2,2,1,8.510164e-01,NaN,2,0,1,3
27,708,4,45,29,1,1,1,9.746380e-01,NaN,2,0,1,3
27,709,4,19,26,1,1,1,9.409732e-01,NaN,2,1,1,3
27,710,4,114,32,2,2,1,1.164597e+00,NaN,2,0,3,3
27,711,4,4,21,1,1,1,1.059561e+00,NaN,2,0,1,3
27,712,4,128,43,2,2,1,1.198616e+00,NaN,2,1,3,3
27,713,4,37,66,2,2,1,7.802724e-01,NaN,2,0,1,3
27,714,4,117,58,2,2,1,1.059062e+00,NaN,2,0,3,3
27,715,4,73,4,2,2,1,1.117417e+00,NaN,2,0,2,3
27,716,4,26,1,1,1,1,7.102380e-01,NaN,2,0,1,3
27,717,4,120,60,2,2,1,6.634398e-01,NaN,2,0,3,3
27,718,4,15,34,2,2,1,1.345976e+00,NaN,2,1,1,3
27,719,5,1.373300e+02,69,3,0,0,2.500485e+00,1,1,0,3.100000e+00,1
27,720,5,1.104700e+02,65,3,1,0,8.584411e-01,1,1,0,3.100000e+00,1
27,721,5,3.038000e+01,50,1,1,1,4.443427e-01,1,1,0,1.300000e+00,1
27,722,5,7.250000e+00,45,1,1,1,3.100742e-01,1,1,0,1.300000e+00,1
27,723,5,9.217000e+01,58,2,3,0,6.967484e-01,1,1,0,2.300000e+00,1
27,724,5,1.373300e+02,69,3,3,1,6.330328e-01,2,1,0,3.100000e+00,1
27,725,5,1.125100e+02,37,3,3,1,6.743870e-01,1,1,0,3.200000e+00,1
27,726,5,4.693000e+01,7,1,2,0,3.968979e-01,1,1,0,1.200000e+00,1
27,727,5,5.316000e+01,57,2,2,1,3.975420e-01,1,1,0,2.300000e+00,1
27,728,5,1.416000e+02,19,3,3,1,3.750693e-01,1,1,0,3.200000e+00,1
27,729,5,9.738000e+01,24,3,3,1,3.449726e-01,1,1,0,3.100000e+00,1
27,730,5,9.401000e+01,51,2,2,1,6.022726e-01,1,1,0,2.100000e+00,1
27,731,5,1.125100e+02,37,3,3,1,4.117751e-01,2,1,0,3.200000e+00,1
27,732,5,1.424200e+02,36,3,3,1,1.045619e+00,1,1,0,3.100000e+00,1
27,733,5,1.029000e+01,61,1,1,1,3.669811e-01,1,1,0,1.300000e+00,1
27,734,5,1.234000e+02,70,3,3,1,4.085871e-01,1,1,0,3.100000e+00,1
27,735,5,1.303000e+02,63,3,1,0,4.024409e-01,1,1,0,3.100000e+00,1
27,736,5,1.284000e+01,13,1,1,1,3.562068e-01,1,1,0,1.200000e+00,1
27,737,5,1.325800e+02,42,3,3,1,3.496010e-01,1,1,0,3.200000e+00,1
27,738,5,3.680000e+01,53,1,1,1,3.593711e-01,1,1,0,1.200000e+00,1
27,739,5,9.217000e+01,58,2,2,1,4.331742e-01,2,1,0,2.300000e+00,1
27,740,5,1.104700e+02,65,3,3,1,4.823646e-01,2,1,0,3.100000e+00,1
27,741,5,1.416000e+02,19,3,3,1,3.716331e-01,2,1,0,3.200000e+00,1
27,742,5,2.536000e+01,59,1,3,0,5.812825e-01,1,1,0,1.300000e+00,1
27,743,5,1.016700e+02,17,3,2,0,2.956790e-01,1,1,0,3.200000e+00,1
27,744,5,6.398000e+01,9,2,2,1,3.200501e-01,1,1,0,2.300000e+00,1
27,745,5,1.183200e+02,64,3,1,0,2.979703e-01,1,1,0,3.100000e+00,1
27,746,5,4.531000e+01,67,1,1,1,4.030661e-01,1,1,0,1.300000e+00,1
27,747,5,1.424200e+02,36,3,3,1,3.967455e-01,2,1,0,3.100000e+00,1
27,748,5,9.738000e+01,24,3,3,1,3.982471e-01,2,1,0,3.100000e+00,1
27,749,5,1.192300e+02,27,3,1,0,4.712761e-01,1,1,0,3.100000e+00,1
27,750,5,8.817000e+01,8,2,2,1,2.888598e-01,1,1,0,2.100000e+00,1
27,751,5,1.084500e+02,29,3,3,1,3.465446e-01,1,1,0,3.100000e+00,1
27,752,5,1.029000e+01,61,1,1,1,2.677269e-01,2,1,0,1.300000e+00,1
27,753,5,3.239000e+01,71,1,1,1,3.824351e-01,1,1,0,1.300000e+00,1
27,754,5,7.405000e+01,44,2,2,1,3.113253e-01,1,1,0,2.100000e+00,1
27,755,5,1.416000e+02,19,3,3,1,4.643259e-01,3,1,0,3.200000e+00,1
27,756,5,1.084500e+02,29,3,3,1,3.700786e-01,2,1,0,3.100000e+00,1
27,757,5,1.023700e+02,66,3,3,1,3.957240e-01,1,1,0,3.100000e+00,1
27,758,5,8.206000e+01,56,2,2,1,4.529147e-01,1,1,0,2.300000e+00,1
27,759,5,1.156800e+02,52,3,3,1,3.826875e-01,1,1,0,3.200000e+00,1
27,760,5,1.125100e+02,37,3,3,1,3.280984e-01,3,1,0,3.200000e+00,1
27,761,5,4.890000e+01,55,1,1,1,3.695102e-01,1,1,0,1.200000e+00,1
27,762,5,4.531000e+01,67,1,1,1,3.311974e-01,2,1,0,1.300000e+00,1
27,763,5,1.284000e+01,13,1,1,1,2.852009e-01,2,1,0,1.200000e+00,1
27,764,5,3.986000e+01,5,1,1,1,2.788492e-01,1,1,0,1.200000e+00,1
27,765,5,1.242600e+02,1,3,3,1,1.608234e+00,1,1,0,3.100000e+00,1
27,766,5,7.311000e+01,49,2,2,1,3.943220e-01,1,1,0,2.300000e+00,1
27,767,5,7.720000e+01,60,2,2,1,5.717289e-01,1,1,0,2.300000e+00,1
27,768,5,1.234000e+02,70,3,3,1,3.250709e-01,2,1,0,3.100000e+00,1
27,769,5,6.614000e+01,32,2,1,0,1.182683e+00,1,1,0,2.300000e+00,1
27,770,5,3.400000e+00,25,1,3,0,3.209185e-01,1,1,0,1.300000e+00,1
27,771,5,2.536000e+01,59,1,1,1,2.979860e-01,2,1,0,1.300000e+00,1
27,772,5,5.316000e+01,57,2,2,1,3.632226e-01,2,1,0,2.300000e+00,1
27,773,5,1.355500e+02,15,3,2,0,5.486386e-01,1,1,0,3.200000e+00,1
27,774,5,7.703000e+01,22,2,3,0,6.545593e-01,1,1,0,2.100000e+00,1
27,775,5,1.016700e+02,17,3,3,1,2.877116e-01,2,1,0,3.200000e+00,1
27,776,5,7.703000e+01,22,2,2,1,3.530399e-01,2,1,0,2.100000e+00,1
27,777,5,1.078000e+01,16,1,1,1,3.068713e-01,1,1,0,1.200000e+00,1
27,778,5,6.203000e+01,12,2,2,1,3.406656e-01,1,1,0,2.300000e+00,1
27,779,5,1.016700e+02,17,3,3,1,3.257193e-01,3,1,0,3.200000e+00,1
27,780,5,5.704000e+01,21,2,2,1,2.958604e-01,1,1,0,2.100000e+00,1
27,781,5,1.029000e+01,61,1,1,1,4.729969e-01,3,1,0,1.300000e+00,1
27,782,5,1.303000e+02,63,3,1,0,2.826678e-01,2,1,0,3.100000e+00,1
27,783,5,4.182000e+01,31,1,1,1,3.162194e-01,1,1,0,1.200000e+00,1
27,784,5,9.964000e+01,10,3,2,0,3.013135e-01,1,1,0,3.200000e+00,1
27,785,5,8.206000e+01,56,2,2,1,3.034297e-01,2,1,0,2.300000e+00,1
27,786,5,7.703000e+01,22,2,1,0,1.600701e+00,3,1,0,2.100000e+00,1
27,787,5,2.087000e+01,23,1,1,1,3.471087e-01,1,1,0,1.200000e+00,1
27,788,5,1.325800e+02,42,3,3,1,3.402376e-01,2,1,0,3.200000e+00,1
27,789,5,1.183200e+02,64,3,3,1,3.579944e-01,2,1,0,3.100000e+00,1
27,790,5,9.217000e+01,58,2,3,0,4.151065e-01,3,1,0,2.300000e+00,1
27,791,5,1.355500e+02,15,3,3,1,3.447027e-01,2,1,0,3.200000e+00,1
27,792,5,2.536000e+01,59,1,1,1,7.379000e-01,3,1,0,1.300000e+00,1
27,793,5,1.104700e+02,65,3,3,1,3.076555e-01,3,1,0,3.100000e+00,1
27,794,5,1.242600e+02,1,3,3,1,3.729709e-01,2,1,0,3.100000e+00,1
27,795,5,4.531000e+01,67,1,1,1,5.025539e-01,3,1,0,1.300000e+00,1
27,796,5,3.400000e+00,25,1,1,1,2.964677e-01,2,1,0,1.300000e+00,1
27,797,5,6.614000e+01,32,2,2,1,3.296103e-01,2,1,0,2.300000e+00,1
27,798,5,1.284000e+01,13,1,1,1,3.474833e-01,3,1,0,1.200000e+00,1
27,799,5,1.673000e+01,4,1,1,1,3.407776e-01,1,1,0,1.200000e+00,1
27,800,5,5.704000e+01,21,2,2,1,3.584673e-01,2,1,0,2.100000e+00,1
27,801,5,5.704000e+01,21,2,2,1,6.638098e-01,3,1,0,2.100000e+00,1
27,802,5,6.614000e+01,32,2,2,1,3.612630e-01,3,1,0,2.300000e+00,1
27,803,5,4.182000e+01,31,1,1,1,4.350254e-01,2,1,0,1.200000e+00,1
27,804,5,6.398000e+01,9,2,2,1,1.516938e+00,2,1,0,2.300000e+00,1
27,805,5,7.250000e+00,45,1,1,1,3.352599e-01,2,1,0,1.300000e+00,1
27,806,5,1.355500e+02,15,3,3,1,4.407653e-01,3,1,0,3.200000e+00,1
27,807,5,1.424200e+02,36,3,3,1,3.781013e-01,3,1,0,3.100000e+00,1
27,808,5,4.890000e+01,55,1,1,1,3.475536e-01,2,1,0,1.200000e+00,1
27,809,5,9.401000e+01,51,2,2,1,8.532609e-01,2,1,0,2.100000e+00,1
27,810,5,1.078000e+01,16,1,1,1,2.630296e-01,2,1,0,1.200000e+00,1
27,811,5,1.016700e+02,17,3,3,1,3.044062e-01,4,1,0,3.200000e+00,1
27,812,5,7.720000e+01,60,2,1,0,3.535527e-01,2,1,0,2.300000e+00,1
27,813,5,1.325800e+02,42,3,3,1,3.552548e-01,3,1,0,3.200000e+00,1
27,814,5,67,47,2,0,0,2.500257e+00,1,1,0,2.300000e+00,1
27,815,5,3.239000e+01,71,1,1,1,2.949431e-01,2,1,0,1.300000e+00,1
27,816,5,1.183200e+02,64,3,3,1,3.360217e-01,3,1,0,3.100000e+00,1
27,817,5,1.084500e+02,29,3,3,1,4.019993e-01,3,1,0,3.100000e+00,1
27,818,5,2.871000e+01,40,1,1,1,3.157422e-01,1,1,0,1.200000e+00,1
27,819,5,3.595000e+01,14,1,2,0,1.245233e+00,1,1,0,1.200000e+00,1
27,820,5,1.156800e+02,52,3,3,1,4.468368e-01,2,1,0,3.200000e+00,1
27,821,5,1.266200e+02,11,3,2,0,8.323815e-01,1,1,0,3.200000e+00,1
27,822,5,6.398000e+01,9,2,2,1,3.218919e-01,3,1,0,2.300000e+00,1
27,823,5,1.023700e+02,66,3,3,1,2.668347e-01,2,1,0,3.100000e+00,1
27,824,5,1.156800e+02,52,3,3,1,3.651365e-01,3,1,0,3.200000e+00,1
27,825,5,7.720000e+01,60,2,2,1,8.219969e-01,3,1,0,2.300000e+00,1
27,826,5,1.355500e+02,15,3,3,1,2.796536e-01,4,1,0,3.200000e+00,1
27,827,5,1.303000e+02,63,3,1,0,3.693699e-01,3,1,0,3.100000e+00,1
27,828,5,8.521000e+01,62,2,2,1,3.469095e-01,1,1,0,2.100000e+00,1
27,829,5,1.084500e+02,29,3,3,1,3.645036e-01,4,1,0,3.100000e+00,1
27,830,5,1.242600e+02,1,3,3,1,3.577242e-01,3,1,0,3.100000e+00,1
27,831,5,3.595000e+01,14,1,2,0,3.351530e-01,2,1,0,1.200000e+00,1
27,832,5,6.398000e+01,9,2,2,1,3.128605e-01,4,1,0,2.300000e+00,1
27,833,5,3.239000e+01,71,1,1,1,3.705504e-01,3,1,0,1.300000e+00,1
27,834,5,3.595000e+01,14,1,1,1,4.439913e-01,3,1,0,1.200000e+00,1
27,835,5,1.104700e+02,65,3,3,1,3.900645e-01,4,1,0,3.100000e+00,1
27,836,5,8.817000e+01,8,2,2,1,2.713294e-01,2,1,0,2.100000e+00,1
27,837,5,1.424200e+02,36,3,3,1,7.449903e-01,4,1,0,3.100000e+00,1
27,838,5,1.023700e+02,66,3,3,1,3.624212e-01,3,1,0,3.100000e+00,1
27,839,5,4.693000e+01,7,1,1,1,1.211672e+00,2,1,0,1.200000e+00,1
27,840,5,1.335400e+02,2,3,3,1,3.488621e-01,1,1,0,3.200000e+00,1
27,841,5,6.203000e+01,12,2,2,1,3.424890e-01,2,1,0,2.300000e+00,1
27,842,5,3.595000e+01,14,1,1,1,1.032184e+00,4,1,0,1.200000e+00,1
27,843,5,2.087000e+01,23,1,3,0,9.141488e-01,2,1,0,1.200000e+00,1
27,844,5,2.087000e+01,23,1,1,1,3.071089e-01,3,1,0,1.200000e+00,1
27,845,5,67,47,2,2,1,7.008658e-01,2,1,0,2.300000e+00,1
27,846,5,1.023700e+02,66,3,3,1,3.107702e-01,4,1,0,3.100000e+00,1
27,847,5,9.964000e+01,10,3,1,0,3.683871e-01,2,1,0,3.200000e+00,1
27,848,5,1.234000e+02,70,3,3,1,3.059739e-01,3,1,0,3.100000e+00,1
27,849,5,2.087000e+01,23,1,1,1,2.678313e-01,4,1,0,1.200000e+00,1
27,850,5,8.521000e+01,62,2,2,1,3.732700e-01,2,1,0,2.100000e+00,1
27,851,5,5.316000e+01,57,2,2,1,1.070976e+00,3,1,0,2.300000e+00,1
27,852,5,3.038000e+01,50,1,1,1,3.202085e-01,2,1,0,1.300000e+00,1
27,853,5,3.680000e+01,53,1,1,1,3.136742e-01,2,1,0,1.200000e+00,1
27,854,5,3.680000e+01,53,1,1,1,3.394624e-01,3,1,0,1.200000e+00,1
27,855,5,7.405000e+01,44,2,2,1,6.526954e-01,2,1,0,2.100000e+00,1
27,856,5,5.611000e+01,38,2,2,1,3.101188e-01,1,1,0,2.100000e+00,1
27,857,5,5.611000e+01,38,2,2,1,3.282596e-01,2,1,0,2.100000e+00,1
27,858,5,8.817000e+01,8,2,2,1,3.775314e-01,3,1,0,2.100000e+00,1
27,859,5,3.038000e+01,50,1,1,1,3.795338e-01,3,1,0,1.300000e+00,1
27,860,5,4.693000e+01,7,1,1,1,1.124792e+00,3,1,0,1.200000e+00,1
27,861,5,1.234000e+02,70,3,3,1,3.901019e-01,4,1,0,3.100000e+00,1
27,862,5,4.531000e+01,67,1,1,1,5.278794e-01,4,1,0,1.300000e+00,1
27,863,5,8.206000e+01,56,2,2,1,3.376303e-01,3,1,0,2.300000e+00,1
27,864,5,6.614000e+01,32,2,2,1,4.829257e-01,4,1,0,2.300000e+00,1
27,865,5,3.038000e+01,50,1,1,1,3.648127e-01,4,1,0,1.300000e+00,1
27,866,5,9.401000e+01,51,2,2,1,2.862796e-01,3,1,0,2.100000e+00,1
27,867,5,5.704000e+01,21,2,2,1,4.960573e-01,4,1,0,2.100000e+00,1
27,868,5,4.182000e+01,31,1,1,1,5.055180e-01,3,1,0,1.200000e+00,1
27,869,5,1.416000e+02,19,3,3,1,3.705395e-01,4,1,0,3.200000e+00,1
27,870,5,8.521000e+01,62,2,2,1,3.003721e-01,3,1,0,2.100000e+00,1
27,871,5,8.817000e+01,8,2,2,1,4.862402e-01,4,1,0,2.100000e+00,1
27,872,5,1.156800e+02,52,3,3,1,9.275536e-01,4,1,0,3.200000e+00,1
27,873,5,1.266200e+02,11,3,3,1,3.054533e-01,2,1,0,3.200000e+00,1
27,874,5,7.720000e+01,60,2,3,0,4.991624e-01,4,1,0,2.300000e+00,1
27,875,5,6.203000e+01,12,2,2,1,5.082738e-01,3,1,0,2.300000e+00,1
27,876,5,1.078000e+01,16,1,1,1,2.944493e-01,3,1,0,1.200000e+00,1
27,877,5,5.611000e+01,38,2,2,1,3.362638e-01,3,1,0,2.100000e+00,1
27,878,5,3.986000e+01,5,1,1,1,3.377084e-01,2,1,0,1.200000e+00,1
27,879,5,1.373300e+02,69,3,3,1,3.551226e-01,3,1,0,3.100000e+00,1
27,880,5,7.250000e+00,45,1,1,1,3.726693e-01,3,1,0,1.300000e+00,1
27,881,5,9.964000e+01,10,3,1,0,3.742911e-01,3,1,0,3.200000e+00,1
27,882,5,1.266200e+02,11,3,3,1,8.477045e-01,3,1,0,3.200000e+00,1
27,883,5,67,47,2,3,0,3.931967e-01,3,1,0,2.300000e+00,1
27,884,5,9.401000e+01,51,2,2,1,9.902179e-02,4,1,0,2.100000e+00,1
27,885,5,1.335400e+02,2,3,3,1,3.082942e-01,2,1,0,3.200000e+00,1
27,886,5,1.673000e+01,4,1,1,1,3.257036e-01,2,1,0,1.200000e+00,1
27,887,5,1.078000e+01,16,1,1,1,3.033715e-01,4,1,0,1.200000e+00,1
27,888,5,7.311000e+01,49,2,1,0,1.057274e+00,2,1,0,2.300000e+00,1
27,889,5,4.693000e+01,7,1,1,1,3.144956e-01,4,1,0,1.200000e+00,1
27,890,5,8.521000e+01,62,2,2,1,3.320782e-01,4,1,0,2.100000e+00,1
27,891,5,3.400000e+00,25,1,1,1,6.538022e-01,3,1,0,1.300000e+00,1
27,892,5,3.986000e+01,5,1,1,1,3.270908e-01,3,1,0,1.200000e+00,1
27,893,5,7.250000e+00,45,1,1,1,7.047611e-01,4,1,0,1.300000e+00,1
27,894,5,2.871000e+01,40,1,1,1,3.461087e-01,2,1,0,1.200000e+00,1
27,895,5,9.964000e+01,10,3,3,1,2.995393e-01,4,1,0,3.200000e+00,1
27,896,5,2.536000e+01,59,1,1,1,6.212519e-01,4,1,0,1.300000e+00,1
27,897,5,1.192300e+02,27,3,3,1,3.026060e-01,2,1,0,3.100000e+00,1
27,898,5,9.738000e+01,24,3,3,1,3.683967e-01,3,1,0,3.100000e+00,1
27,899,5,5.611000e+01,38,2,2,1,2.900306e-01,4,1,0,2.100000e+00,1
27,900,5,1.266200e+02,11,3,3,1,4.037715e-01,4,1,0,3.200000e+00,1
27,901,5,1.325800e+02,42,3,3,1,3.091203e-01,4,1,0,3.200000e+00,1
27,902,5,3.400000e+00,25,1,1,1,4.547454e-01,4,1,0,1.300000e+00,1
27,903,5,8.206000e+01,56,2,2,1,2.802736e-01,4,1,0,2.300000e+00,1
27,904,5,7.311000e+01,49,2,2,1,3.458787e-01,3,1,0,2.300000e+00,1
27,905,5,4.890000e+01,55,1,1,1,5.232334e-01,3,1,0,1.200000e+00,1
27,906,5,1.303000e+02,63,3,1,0,7.406393e-01,4,1,0,3.100000e+00,1
27,907,5,5.316000e+01,57,2,2,1,2.539179e-01,4,1,0,2.300000e+00,1
27,908,5,4.890000e+01,55,1,1,1,4.074035e-01,4,1,0,1.200000e+00,1
27,909,5,9.738000e+01,24,3,3,1,3.611975e-01,4,1,0,3.100000e+00,1
27,910,5,6.203000e+01,12,2,2,1,3.626294e-01,4,1,0,2.300000e+00,1
27,911,5,2.871000e+01,40,1,1,1,3.963178e-01,3,1,0,1.200000e+00,1
27,912,5,1.125100e+02,37,3,3,1,3.339279e-01,4,1,0,3.200000e+00,1
27,913,5,2.871000e+01,40,1,1,1,3.594064e-01,4,1,0,1.200000e+00,1
27,914,5,3.680000e+01,53,1,1,1,1.049316e+00,4,1,0,1.200000e+00,1
27,915,5,1.284000e+01,13,1,1,1,3.707858e-01,4,1,0,1.200000e+00,1
27,916,5,7.703000e+01,22,2,1,0,3.245306e-01,4,1,0,2.100000e+00,1
27,917,5,1.192300e+02,27,3,2,0,9.578402e-01,3,1,0,3.100000e+00,1
27,918,5,1.335400e+02,2,3,3,1,4.154552e-01,3,1,0,3.200000e+00,1
27,919,5,1.373300e+02,69,3,3,1,3.445277e-01,4,1,0,3.100000e+00,1
27,920,5,1.192300e+02,27,3,3,1,3.382632e-01,4,1,0,3.100000e+00,1
27,921,5,67,47,2,3,0,3.956377e-01,4,1,0,2.300000e+00,1
27,922,5,7.405000e+01,44,2,2,1,5.811905e-01,3,1,0,2.100000e+00,1
27,923,5,1.673000e+01,4,1,1,1,3.105988e-01,3,1,0,1.200000e+00,1
27,924,5,9.217000e+01,58,2,2,1,1.072844e+00,4,1,0,2.300000e+00,1
27,925,5,1.029000e+01,61,1,1,1,2.820967e-01,4,1,0,1.300000e+00,1
27,926,5,1.183200e+02,64,3,1,0,6.354943e-01,4,1,0,3.100000e+00,1
27,927,5,1.242600e+02,1,3,3,1,1.221479e+00,4,1,0,3.100000e+00,1
27,928,5,7.405000e+01,44,2,2,1,4.229635e-01,4,1,0,2.100000e+00,1
27,929,5,1.673000e+01,4,1,1,1,3.040301e-01,4,1,0,1.200000e+00,1
27,930,5,7.311000e+01,49,2,2,1,2.816708e-01,4,1,0,2.300000e+00,1
27,931,5,3.239000e+01,71,1,3,0,1.107003e+00,4,1,0,1.300000e+00,1
27,932,5,3.986000e+01,5,1,1,1,2.609161e-01,4,1,0,1.200000e+00,1
27,933,5,4.182000e+01,31,1,1,1,4.146224e-01,4,1,0,1.200000e+00,1
27,934,5,1.335400e+02,2,3,3,1,2.640737e-01,4,1,0,3.200000e+00,1
27,935,6,140,25,2,2,1,1.627311e+00,NaN,2,0,3,1
27,936,6,33,69,2,1,0,7.450706e-01,NaN,2,0,1,1
27,937,6,109,20,2,2,1,6.976355e-01,NaN,2,1,3,1
27,938,6,26,1,2,1,0,1.028419e+00,NaN,2,0,1,1
27,939,6,84,13,2,2,1,6.255398e-01,NaN,2,0,2,1
27,940,6,69,68,2,2,1,5.988343e-01,NaN,2,1,2,1
27,941,6,19,26,1,1,1,7.333981e-01,NaN,2,1,1,1
27,942,6,93,7,1,2,0,5.988600e-01,NaN,2,0,2,1
27,943,6,78,16,1,1,1,7.331684e-01,NaN,2,0,2,1
27,944,6,67,17,2,2,1,5.740996e-01,NaN,2,0,2,1
27,945,6,5,44,2,2,1,7.814203e-01,NaN,2,0,1,1
27,946,6,125,45,1,2,0,9.088192e-01,NaN,2,0,3,1
27,947,6,4,21,2,2,1,6.552028e-01,NaN,2,0,1,1
27,948,6,103,12,1,1,1,6.990031e-01,NaN,2,0,3,1
27,949,6,21,62,2,2,1,5.415522e-01,NaN,2,0,1,1
27,950,6,114,32,1,1,1,7.902652e-01,NaN,2,0,3,1
27,951,6,59,35,1,2,0,5.812448e-01,NaN,2,1,2,1
27,952,6,62,11,2,2,1,8.924524e-01,NaN,2,0,2,1
27,953,6,82,31,1,1,1,8.070105e-01,NaN,2,0,2,1
27,954,6,1,51,2,2,1,6.932518e-01,NaN,2,0,1,1
27,955,6,87,23,2,2,1,5.763365e-01,NaN,2,0,2,1
27,956,6,138,50,1,1,1,8.076881e-01,NaN,2,0,3,1
27,957,6,86,5,1,1,1,6.780713e-01,NaN,2,0,2,1
27,958,6,68,52,2,2,1,5.371906e-01,NaN,2,0,2,1
27,959,6,17,8,1,2,0,9.540714e-01,NaN,2,0,1,1
27,960,6,54,2,2,1,0,8.741794e-01,NaN,2,0,2,1
27,961,6,128,43,1,1,1,9.500022e-01,NaN,2,1,3,1
27,962,6,131,67,1,1,1,6.547694e-01,NaN,2,0,3,1
27,963,6,60,19,1,1,1,9.151283e-01,NaN,2,0,2,1
27,964,6,122,48,1,1,1,8.450577e-01,NaN,2,1,3,1
27,965,6,11,38,1,1,1,8.575869e-01,NaN,2,0,1,1
27,966,6,7,46,2,2,1,1.125975e+00,NaN,2,1,1,1
27,967,6,42,36,2,1,0,8.392490e-01,NaN,2,0,1,1
27,968,6,40,70,1,1,1,8.203102e-01,NaN,2,0,1,1
27,969,6,71,40,2,2,1,6.656810e-01,NaN,2,0,2,1
27,970,6,90,55,1,2,0,6.298797e-01,NaN,2,0,2,1
27,971,6,80,53,1,1,1,6.747054e-01,NaN,2,0,2,1
27,972,6,58,42,1,1,1,6.383811e-01,NaN,2,0,2,1
27,973,6,37,66,2,2,1,7.072477e-01,NaN,2,0,1,1
27,974,6,55,15,2,2,1,9.173474e-01,NaN,2,0,2,1
27,975,6,64,10,2,2,1,6.309781e-01,NaN,2,0,2,1
27,976,6,89,28,1,2,0,7.559623e-01,NaN,2,1,2,1
27,977,6,113,33,1,1,1,8.293018e-01,NaN,2,1,3,1
27,978,6,32,64,1,2,0,9.295222e-01,NaN,2,0,1,1
27,979,6,23,27,2,1,0,1.242419e+00,NaN,2,0,1,1
27,980,6,15,34,2,2,1,1.031566e+00,NaN,2,1,1,1
27,981,6,106,56,1,1,1,9.569401e-01,NaN,2,0,3,1
27,982,6,120,60,1,1,1,9.572721e-01,NaN,2,0,3,1
27,983,6,18,3,1,1,1,7.011154e-01,NaN,2,1,1,1
27,984,6,111,49,2,1,0,8.483300e-01,NaN,2,0,3,1
27,985,6,129,61,2,2,1,1.076449e+00,NaN,2,0,3,1
27,986,6,127,39,1,2,0,9.681378e-01,NaN,2,1,3,1
27,987,6,139,71,2,1,0,8.719820e-01,NaN,2,0,3,1
27,988,6,136,59,1,1,1,6.600006e-01,NaN,2,0,3,1
27,989,6,107,6,2,1,0,6.727299e-01,NaN,2,1,3,1
27,990,6,143,30,1,1,1,7.477129e-01,NaN,2,1,3,1
27,991,6,134,54,1,1,1,7.322731e-01,NaN,2,1,3,1
27,992,6,43,72,2,2,1,8.291787e-01,NaN,2,1,1,1
27,993,6,116,57,1,1,1,8.505066e-01,NaN,2,0,3,1
27,994,6,45,29,2,2,1,8.553569e-01,NaN,2,0,1,1
27,995,6,95,14,1,1,1,6.832738e-01,NaN,2,0,2,1
27,996,6,100,47,2,1,0,8.065511e-01,NaN,2,0,3,1
27,997,6,47,65,2,2,1,7.648440e-01,NaN,2,0,1,1
27,998,6,13,18,2,2,1,7.725902e-01,NaN,2,1,1,1
27,999,6,117,58,1,1,1,9.081542e-01,NaN,2,0,3,1
27,1000,6,50,41,1,2,0,9.022348e-01,NaN,2,1,2,1
27,1001,6,73,4,1,1,1,8.326471e-01,NaN,2,0,2,1
27,1002,6,51,37,2,2,1,8.861107e-01,NaN,2,0,2,1
27,1003,6,98,9,1,1,1,7.775175e-01,NaN,2,0,3,1
27,1004,6,38,24,2,2,1,7.684477e-01,NaN,2,0,1,1
27,1005,6,3,22,2,2,1,7.685687e-01,NaN,2,0,1,1
27,1006,6,30,63,1,1,1,7.919283e-01,NaN,2,0,1,1
27,1007,6,56,38,1,1,1,6.788582e-01,NaN,1,0,2,1
27,1008,6,102,66,1,1,1,7.064224e-01,NaN,1,0,3,1
27,1009,6,112,37,2,2,1,6.444303e-01,NaN,1,0,3,1
27,1010,6,75,20,2,2,1,5.851382e-01,NaN,1,1,2,1
27,1011,6,72,49,2,2,1,6.807996e-01,NaN,1,0,2,1
27,1012,6,70,33,2,2,1,7.794417e-01,NaN,1,1,2,1
27,1013,6,39,5,1,1,1,7.703221e-01,NaN,1,0,1,1
27,1014,6,22,39,1,2,0,6.825579e-01,NaN,1,1,1,1
27,1015,6,99,10,2,1,0,9.656863e-01,NaN,1,0,3,1
27,1016,6,52,57,2,2,1,6.537144e-01,NaN,1,0,2,1
27,1017,6,144,68,1,1,1,6.657875e-01,NaN,1,1,3,1
27,1018,6,24,59,1,1,1,7.736593e-01,NaN,1,0,1,1
27,1019,6,65,32,1,1,1,8.132242e-01,NaN,1,0,2,1
27,1020,6,16,4,1,2,0,7.551585e-01,NaN,1,0,1,1
27,1021,6,96,6,1,1,1,7.549049e-01,NaN,1,1,2,1
27,1022,6,88,8,1,1,1,6.353796e-01,NaN,1,0,2,1
27,1023,6,35,14,1,2,0,5.923034e-01,NaN,1,0,1,1
27,1024,6,79,26,2,2,1,5.829722e-01,NaN,1,1,2,1
27,1025,6,104,72,1,1,1,8.383426e-01,NaN,1,1,3,1
27,1026,6,34,43,1,1,1,9.470713e-01,NaN,1,1,1,1
27,1027,6,61,12,2,2,1,6.436842e-01,NaN,1,0,2,1
27,1028,6,115,52,1,1,1,9.043178e-01,NaN,1,0,3,1
27,1029,6,81,56,1,1,1,6.263270e-01,NaN,1,0,2,1
27,1030,6,108,29,2,2,1,8.402608e-01,NaN,1,0,3,1
27,1031,6,27,28,2,1,0,6.210053e-01,NaN,1,1,1,1
27,1032,6,141,19,2,1,0,1.178545e+00,NaN,1,0,3,1
27,1033,6,41,31,1,2,0,9.541248e-01,NaN,1,0,1,1
27,1034,6,118,64,2,2,1,1.242190e+00,NaN,1,0,3,1
27,1035,6,44,67,1,1,1,1.055217e+00,NaN,1,0,1,1
27,1036,6,20,23,2,2,1,1.083831e+00,NaN,1,0,1,1
27,1037,6,126,11,1,1,1,7.350193e-01,NaN,1,0,3,1
27,1038,6,57,21,1,1,1,6.398097e-01,NaN,1,0,2,1
27,1039,6,119,27,1,1,1,6.528955e-01,NaN,1,0,3,1
27,1040,6,36,53,1,1,1,6.974574e-01,NaN,1,0,1,1
27,1041,6,8,30,1,1,1,7.077264e-01,NaN,1,1,1,1
27,1042,6,2,25,1,1,1,7.976675e-01,NaN,1,0,1,1
27,1043,6,63,9,2,2,1,6.762089e-01,NaN,1,0,2,1
27,1044,6,6,45,1,1,1,7.280313e-01,NaN,1,0,1,1
27,1045,6,66,47,2,2,1,8.493191e-01,NaN,1,0,2,1
27,1046,6,29,50,2,1,0,8.697339e-01,NaN,1,0,1,1
27,1047,6,110,65,2,2,1,9.453677e-01,NaN,1,0,3,1
27,1048,6,10,16,2,2,1,1.026412e+00,NaN,1,0,1,1
27,1049,6,137,69,1,1,1,7.677523e-01,NaN,1,0,3,1
27,1050,6,14,54,2,2,1,8.313815e-01,NaN,1,1,1,1
27,1051,6,101,17,1,1,1,7.006708e-01,NaN,1,0,3,1
27,1052,6,92,3,1,1,1,7.191949e-01,NaN,1,1,2,1
27,1053,6,83,46,1,1,1,7.050179e-01,NaN,1,1,2,1
27,1054,6,77,22,2,2,1,6.032992e-01,NaN,1,0,2,1
27,1055,6,49,18,2,2,1,7.294808e-01,NaN,1,1,2,1
27,1056,6,12,13,2,1,0,8.188569e-01,NaN,1,0,1,1
27,1057,6,31,71,2,2,1,9.768092e-01,NaN,1,0,1,1
27,1058,6,133,2,1,1,1,7.920666e-01,NaN,1,0,3,1
27,1059,6,85,62,1,1,1,6.391164e-01,NaN,1,0,2,1
27,1060,6,130,63,1,1,1,1.243984e+00,NaN,1,0,3,1
27,1061,6,48,55,2,2,1,8.246350e-01,NaN,1,0,1,1
27,1062,6,123,70,2,2,1,1.006562e+00,NaN,1,0,3,1
27,1063,6,91,58,1,1,1,6.127610e-01,NaN,1,0,2,1
27,1064,6,135,15,2,2,1,7.869117e-01,NaN,1,0,3,1
27,1065,6,121,35,2,2,1,6.824869e-01,NaN,1,1,3,1
27,1066,6,94,51,2,2,1,1.101468e+00,NaN,1,0,2,1
27,1067,6,53,34,2,2,1,9.201929e-01,NaN,1,1,2,1
27,1068,6,132,42,2,1,0,1.114165e+00,NaN,1,0,3,1
27,1069,6,97,24,2,2,1,1.076109e+00,NaN,1,0,3,1
27,1070,6,105,41,1,1,1,8.716793e-01,NaN,1,1,3,1
27,1071,6,25,48,2,2,1,8.834176e-01,NaN,1,1,1,1
27,1072,6,46,7,2,2,1,1.278143e+00,NaN,1,0,1,1
27,1073,6,28,40,1,1,1,1.001897e+00,NaN,1,0,1,1
27,1074,6,76,60,1,1,1,8.720940e-01,NaN,1,0,2,1
27,1075,6,142,36,2,1,0,1.123712e+00,NaN,1,0,3,1
27,1076,6,74,44,2,2,1,8.534386e-01,NaN,1,0,2,1
27,1077,6,124,1,1,1,1,1.081579e+00,NaN,1,0,3,1
27,1078,6,9,61,1,1,1,1.164502e+00,NaN,1,0,1,1
