Subject,Trial,Cond,ImageNum,CueNum,Correct,Resp,Accuracy,RT,CueRep,ImageType,Baseline,Category,Block
47,1,1,132,NaN,NaN,0,NaN,9.995621e+00,NaN,2,0,3,1
47,2,1,11,NaN,NaN,1,NaN,4.213503e+00,NaN,2,0,1,1
47,3,1,111,NaN,NaN,1,NaN,2.038570e+00,NaN,0,0,3,1
47,4,1,77,NaN,NaN,1,NaN,8.549071e-01,NaN,0,0,2,1
47,5,1,16,NaN,NaN,1,NaN,1.310015e-04,NaN,2,0,1,1
47,6,1,91,NaN,NaN,1,NaN,8.634795e-01,NaN,2,0,2,1
47,7,1,10,NaN,NaN,1,NaN,2.366127e+00,NaN,0,0,1,1
47,8,1,80,NaN,NaN,1,NaN,1.464920e+00,NaN,2,0,2,1
47,9,1,78,NaN,NaN,1,NaN,5.835716e-01,NaN,1,0,2,1
47,10,1,93,NaN,NaN,1,NaN,1.409890e+00,NaN,0,0,2,1
47,11,1,91,NaN,NaN,0,NaN,9.995033e+00,NaN,0,0,2,1
47,12,1,68,NaN,NaN,1,NaN,2.100384e+00,NaN,1,0,2,1
47,13,1,84,NaN,NaN,1,NaN,8.173166e-02,NaN,1,0,2,1
47,14,1,136,NaN,NaN,1,NaN,7.520854e-01,NaN,1,0,3,1
47,15,1,129,NaN,NaN,1,NaN,1.195276e+00,NaN,0,0,3,1
47,16,1,27,NaN,NaN,1,NaN,2.796923e+00,NaN,1,0,1,1
47,17,1,1,NaN,NaN,1,NaN,1.710236e+00,NaN,0,0,1,1
47,18,1,85,NaN,NaN,0,NaN,9.995558e+00,NaN,1,1,2,1
47,19,1,87,NaN,NaN,0,NaN,9.995206e+00,NaN,0,0,2,1
47,20,1,56,NaN,NaN,0,NaN,9.995207e+00,NaN,0,1,2,1
47,21,1,121,NaN,NaN,0,NaN,9.995038e+00,NaN,2,0,3,1
47,22,1,7,NaN,NaN,0,NaN,9.995263e+00,NaN,2,1,1,1
47,23,1,141,NaN,NaN,0,NaN,9.995630e+00,NaN,0,0,3,1
47,24,1,2,NaN,NaN,0,NaN,9.995144e+00,NaN,0,1,1,1
47,25,1,30,NaN,NaN,0,NaN,9.995186e+00,NaN,0,0,1,1
47,26,1,89,NaN,NaN,1,NaN,9.782991e+00,NaN,2,1,2,1
47,27,1,56,NaN,NaN,1,NaN,1.233426e+00,NaN,1,1,2,1
47,28,1,135,NaN,NaN,2,NaN,7.897524e+00,NaN,0,1,3,1
47,29,1,81,NaN,NaN,1,NaN,5.913459e-01,NaN,2,0,2,1
47,30,1,61,NaN,NaN,1,NaN,1.512899e+00,NaN,0,0,2,1
47,31,1,41,NaN,NaN,2,NaN,2.137670e-01,NaN,2,1,1,1
47,32,1,4,NaN,NaN,1,NaN,2.150561e+00,NaN,1,0,1,1
47,33,1,94,NaN,NaN,1,NaN,5.857599e+00,NaN,1,0,2,1
47,34,1,45,NaN,NaN,2,NaN,6.172474e-01,NaN,0,0,1,1
47,35,1,23,NaN,NaN,1,NaN,2.017856e+00,NaN,1,0,1,1
47,36,1,142,NaN,NaN,2,NaN,1.294923e-04,NaN,0,0,3,1
47,37,1,14,NaN,NaN,1,NaN,1.372159e+00,NaN,1,0,1,1
47,38,1,103,NaN,NaN,1,NaN,1.318810e+00,NaN,0,0,3,1
47,39,1,90,NaN,NaN,1,NaN,2.036216e-01,NaN,0,0,2,1
47,40,1,78,NaN,NaN,1,NaN,3.728276e-01,NaN,0,0,2,1
47,41,1,64,NaN,NaN,1,NaN,7.035997e-01,NaN,2,1,2,1
47,42,1,63,NaN,NaN,1,NaN,4.371390e-01,NaN,2,0,2,1
47,43,1,98,NaN,NaN,2,NaN,1.052945e+00,NaN,1,0,3,1
47,44,1,106,NaN,NaN,1,NaN,2.519690e-01,NaN,0,0,3,1
47,45,1,50,NaN,NaN,1,NaN,9.313383e-01,NaN,1,0,2,1
47,46,1,77,NaN,NaN,1,NaN,2.783016e+00,NaN,2,0,2,1
47,47,1,16,NaN,NaN,1,NaN,1.137271e+00,NaN,0,0,1,1
47,48,1,4,NaN,NaN,1,NaN,6.532405e-01,NaN,0,0,1,1
47,49,1,51,NaN,NaN,1,NaN,6.125501e-01,NaN,1,0,2,1
47,50,1,130,NaN,NaN,2,NaN,1.496197e-01,NaN,0,1,3,1
47,51,1,80,NaN,NaN,1,NaN,1.322089e-04,NaN,0,0,2,1
47,52,1,125,NaN,NaN,1,NaN,4.562202e+00,NaN,2,0,3,1
47,53,1,133,NaN,NaN,2,NaN,1.988630e+00,NaN,2,0,3,1
47,54,1,129,NaN,NaN,2,NaN,1.110983e+00,NaN,2,0,3,1
47,55,1,122,NaN,NaN,2,NaN,8.677673e-01,NaN,0,0,3,1
47,56,1,72,NaN,NaN,1,NaN,7.221078e-01,NaN,0,1,2,1
47,57,1,93,NaN,NaN,1,NaN,5.592850e-01,NaN,2,0,2,1
47,58,1,60,NaN,NaN,1,NaN,6.583052e-01,NaN,2,0,2,1
47,59,1,118,NaN,NaN,1,NaN,5.777091e-01,NaN,2,0,3,1
47,60,1,48,NaN,NaN,1,NaN,4.047590e-01,NaN,1,0,1,1
47,61,1,143,NaN,NaN,2,NaN,1.341730e+00,NaN,1,0,3,1
47,62,1,73,NaN,NaN,1,NaN,3.858444e-01,NaN,0,0,2,1
47,63,1,25,NaN,NaN,1,NaN,5.482350e-01,NaN,2,0,1,1
47,64,1,123,NaN,NaN,1,NaN,1.271203e+00,NaN,2,0,3,1
47,65,1,102,NaN,NaN,2,NaN,8.463542e-01,NaN,1,1,3,1
47,66,1,21,NaN,NaN,1,NaN,4.455059e-01,NaN,0,0,1,1
47,67,1,128,NaN,NaN,2,NaN,2.369609e-01,NaN,2,0,3,1
47,68,1,120,NaN,NaN,1,NaN,2.108945e+00,NaN,1,1,3,1
47,69,1,32,NaN,NaN,1,NaN,2.262628e-01,NaN,1,0,1,1
47,70,1,70,NaN,NaN,1,NaN,3.391931e-01,NaN,1,0,2,1
47,71,1,69,NaN,NaN,1,NaN,4.709184e-01,NaN,1,0,2,1
47,72,1,108,NaN,NaN,2,NaN,4.215894e-01,NaN,1,1,3,1
47,73,1,100,NaN,NaN,2,NaN,6.464849e-01,NaN,1,0,3,1
47,74,1,37,NaN,NaN,1,NaN,1.046023e+00,NaN,0,0,1,1
47,75,1,73,NaN,NaN,0,NaN,9.995020e+00,NaN,2,0,2,1
47,76,1,107,NaN,NaN,0,NaN,9.995537e+00,NaN,2,0,3,1
47,77,1,72,NaN,NaN,0,NaN,9.995388e+00,NaN,2,1,2,1
47,78,1,105,NaN,NaN,0,NaN,9.995322e+00,NaN,1,0,3,1
47,79,1,136,NaN,NaN,0,NaN,9.995013e+00,NaN,0,0,3,1
47,80,1,39,NaN,NaN,0,NaN,9.995493e+00,NaN,1,0,1,1
47,81,1,99,NaN,NaN,0,NaN,9.995231e+00,NaN,2,0,3,1
47,82,1,144,NaN,NaN,0,NaN,9.995463e+00,NaN,2,1,3,1
47,83,1,110,NaN,NaN,2,NaN,4.492971e-01,NaN,0,0,3,1
47,84,1,76,NaN,NaN,1,NaN,8.803078e-01,NaN,2,0,2,1
47,85,1,79,NaN,NaN,1,NaN,4.305832e-01,NaN,2,0,2,1
47,86,1,123,NaN,NaN,2,NaN,1.310509e+00,NaN,0,0,3,1
47,87,1,49,NaN,NaN,1,NaN,6.756729e-01,NaN,0,1,2,1
47,88,1,65,NaN,NaN,1,NaN,4.184511e-01,NaN,2,0,2,1
47,89,1,44,NaN,NaN,1,NaN,5.230549e-01,NaN,1,1,1,1
47,90,1,96,NaN,NaN,1,NaN,5.282041e-01,NaN,1,1,2,1
47,91,1,98,NaN,NaN,2,NaN,7.883909e-01,NaN,0,0,3,1
47,92,1,94,NaN,NaN,1,NaN,4.865643e-01,NaN,0,0,2,1
47,93,1,34,NaN,NaN,1,NaN,4.121051e-01,NaN,0,0,1,1
47,94,1,116,NaN,NaN,1,NaN,5.570130e-01,NaN,1,1,3,1
47,95,1,122,NaN,NaN,2,NaN,6.481064e-01,NaN,2,0,3,1
47,96,1,95,NaN,NaN,1,NaN,2.271241e+00,NaN,2,1,2,1
47,97,1,18,NaN,NaN,1,NaN,7.422449e-01,NaN,0,0,1,1
47,98,1,128,NaN,NaN,2,NaN,7.384096e-01,NaN,0,0,3,1
47,99,1,26,NaN,NaN,1,NaN,5.028867e-01,NaN,2,0,1,1
47,100,1,138,NaN,NaN,1,NaN,7.797804e-01,NaN,0,0,3,1
47,101,1,60,NaN,NaN,1,NaN,4.858127e-01,NaN,0,0,2,1
47,102,1,133,NaN,NaN,2,NaN,7.640992e-01,NaN,0,0,3,1
47,103,1,83,NaN,NaN,1,NaN,9.344443e-01,NaN,2,0,2,1
47,104,1,65,NaN,NaN,1,NaN,5.786122e-01,NaN,0,0,2,1
47,105,1,99,NaN,NaN,2,NaN,8.608076e-01,NaN,0,0,3,1
47,106,1,71,NaN,NaN,1,NaN,6.919439e-01,NaN,0,0,2,1
47,107,1,90,NaN,NaN,1,NaN,4.419357e-01,NaN,2,0,2,1
47,108,1,19,NaN,NaN,1,NaN,6.260251e-01,NaN,0,0,1,1
47,109,1,140,NaN,NaN,1,NaN,8.186106e-01,NaN,0,1,3,1
47,110,1,41,NaN,NaN,1,NaN,5.074253e-01,NaN,0,1,1,1
47,111,1,74,NaN,NaN,1,NaN,6.171170e-01,NaN,0,0,2,1
47,112,1,82,NaN,NaN,1,NaN,7.056091e-01,NaN,0,0,2,1
47,113,1,28,NaN,NaN,2,NaN,7.347198e-01,NaN,2,1,1,1
47,114,1,138,NaN,NaN,1,NaN,6.190319e-01,NaN,2,0,3,1
47,115,1,85,NaN,NaN,1,NaN,5.957502e-01,NaN,0,1,2,1
47,116,1,13,NaN,NaN,1,NaN,6.134544e-01,NaN,2,1,1,1
47,117,1,124,NaN,NaN,2,NaN,6.300047e-01,NaN,0,0,3,1
47,118,1,109,NaN,NaN,1,NaN,5.656229e-01,NaN,1,0,3,1
47,119,1,20,NaN,NaN,1,NaN,4.964981e-01,NaN,2,0,1,1
47,120,1,109,NaN,NaN,1,NaN,7.819196e-01,NaN,0,0,3,1
47,121,1,96,NaN,NaN,1,NaN,6.480687e-01,NaN,0,1,2,1
47,122,1,67,NaN,NaN,1,NaN,5.593665e-01,NaN,0,0,2,1
47,123,1,108,NaN,NaN,2,NaN,7.870718e-01,NaN,0,1,3,1
47,124,1,134,NaN,NaN,2,NaN,5.806080e-01,NaN,1,0,3,1
47,125,1,67,NaN,NaN,1,NaN,1.486706e+00,NaN,2,0,2,1
47,126,1,144,NaN,NaN,1,NaN,7.410568e-01,NaN,0,1,3,1
47,127,1,1,NaN,NaN,1,NaN,5.131444e-01,NaN,1,0,1,1
47,128,1,53,NaN,NaN,1,NaN,4.379746e-01,NaN,1,1,2,1
47,129,1,21,NaN,NaN,1,NaN,1.141736e+00,NaN,1,0,1,1
47,130,1,34,NaN,NaN,1,NaN,4.976753e-01,NaN,1,0,1,1
47,131,1,15,NaN,NaN,1,NaN,7.749729e-01,NaN,2,0,1,1
47,132,1,106,NaN,NaN,1,NaN,6.420659e-01,NaN,1,0,3,1
47,133,1,71,NaN,NaN,1,NaN,6.499564e-01,NaN,2,0,2,1
47,134,1,24,NaN,NaN,1,NaN,1.248928e+00,NaN,0,0,1,1
47,135,1,35,NaN,NaN,2,NaN,1.256470e+00,NaN,0,0,1,1
47,136,1,84,NaN,NaN,1,NaN,4.400926e-01,NaN,0,0,2,1
47,137,1,50,NaN,NaN,1,NaN,7.602829e-01,NaN,0,0,2,1
47,138,1,141,NaN,NaN,1,NaN,5.712773e-01,NaN,1,0,3,1
47,139,1,43,NaN,NaN,1,NaN,6.222224e-01,NaN,2,0,1,1
47,140,1,127,NaN,NaN,1,NaN,5.196839e-01,NaN,2,1,3,1
47,141,1,116,NaN,NaN,1,NaN,5.477061e-01,NaN,0,1,3,1
47,142,1,29,NaN,NaN,1,NaN,5.826135e-01,NaN,0,1,1,1
47,143,1,118,NaN,NaN,1,NaN,4.650991e-01,NaN,0,0,3,1
47,144,1,7,NaN,NaN,1,NaN,6.077809e-01,NaN,0,1,1,1
47,145,1,14,NaN,NaN,1,NaN,5.691692e-01,NaN,0,0,1,1
47,146,1,20,NaN,NaN,1,NaN,5.632262e-01,NaN,0,0,1,1
47,147,1,112,NaN,NaN,1,NaN,6.219589e-01,NaN,1,0,3,1
47,148,1,88,NaN,NaN,1,NaN,5.746511e-01,NaN,1,1,2,1
47,149,1,23,NaN,NaN,1,NaN,7.530936e-01,NaN,0,0,1,1
47,150,1,58,NaN,NaN,1,NaN,5.725152e-01,NaN,0,0,2,1
47,151,1,81,NaN,NaN,1,NaN,4.549513e-01,NaN,0,0,2,1
47,152,1,121,NaN,NaN,2,NaN,2.142870e+00,NaN,0,0,3,1
47,153,1,103,NaN,NaN,1,NaN,5.387549e-01,NaN,1,0,3,1
47,154,1,75,NaN,NaN,1,NaN,5.666953e-01,NaN,1,1,2,1
47,155,1,17,NaN,NaN,1,NaN,6.732644e-01,NaN,0,0,1,1
47,156,1,66,NaN,NaN,1,NaN,4.323991e-01,NaN,1,0,2,1
47,157,1,59,NaN,NaN,1,NaN,6.000823e-01,NaN,0,0,2,1
47,158,1,52,NaN,NaN,1,NaN,6.814889e-01,NaN,2,1,2,1
47,159,1,82,NaN,NaN,1,NaN,4.236468e-01,NaN,1,0,2,1
47,160,1,35,NaN,NaN,2,NaN,7.121894e-01,NaN,2,0,1,1
47,161,1,95,NaN,NaN,1,NaN,5.729761e-01,NaN,0,1,2,1
47,162,1,3,NaN,NaN,2,NaN,8.313754e-01,NaN,0,0,1,1
47,163,1,97,NaN,NaN,2,NaN,8.320108e-01,NaN,0,0,3,1
47,164,1,130,NaN,NaN,2,NaN,5.997095e-01,NaN,1,1,3,1
47,165,1,70,NaN,NaN,1,NaN,6.175966e-01,NaN,0,0,2,1
47,166,1,76,NaN,NaN,1,NaN,1.386256e+00,NaN,0,0,2,1
47,167,1,62,NaN,NaN,1,NaN,1.075674e+00,NaN,0,0,2,1
47,168,1,63,NaN,NaN,1,NaN,8.266458e-01,NaN,0,0,2,1
47,169,1,24,NaN,NaN,1,NaN,1.163076e+00,NaN,2,0,1,1
47,170,1,125,NaN,NaN,1,NaN,8.141732e-01,NaN,0,0,3,1
47,171,1,47,NaN,NaN,1,NaN,5.826687e-01,NaN,1,0,1,1
47,172,1,45,NaN,NaN,2,NaN,3.352658e+00,NaN,2,0,1,1
47,173,1,36,NaN,NaN,1,NaN,4.432892e-02,NaN,0,0,1,1
47,174,1,92,NaN,NaN,1,NaN,5.081434e-01,NaN,0,0,2,1
47,175,1,117,NaN,NaN,2,NaN,5.936798e-01,NaN,2,0,3,1
47,176,1,26,NaN,NaN,1,NaN,4.596022e-01,NaN,0,0,1,1
47,177,1,89,NaN,NaN,1,NaN,4.751304e-01,NaN,0,1,2,1
47,178,1,69,NaN,NaN,1,NaN,5.697120e-01,NaN,0,0,2,1
47,179,1,46,NaN,NaN,2,NaN,2.845793e-01,NaN,1,0,1,1
47,180,1,113,NaN,NaN,1,NaN,2.507511e-01,NaN,0,0,3,1
47,181,1,33,NaN,NaN,1,NaN,5.139192e-01,NaN,0,1,1,1
47,182,1,27,NaN,NaN,1,NaN,4.547102e-01,NaN,0,0,1,1
47,183,1,22,NaN,NaN,1,NaN,9.659429e-01,NaN,0,0,1,1
47,184,1,139,NaN,NaN,2,NaN,2.248429e+00,NaN,2,0,3,1
47,185,1,79,NaN,NaN,1,NaN,4.800451e-01,NaN,0,0,2,1
47,186,1,39,NaN,NaN,2,NaN,6.538170e-01,NaN,0,0,1,1
47,187,1,86,NaN,NaN,1,NaN,7.013908e-01,NaN,1,0,2,1
47,188,1,12,NaN,NaN,2,NaN,7.869946e-01,NaN,0,0,1,1
47,189,1,42,NaN,NaN,1,NaN,7.006015e-01,NaN,1,0,1,1
47,190,1,137,NaN,NaN,1,NaN,7.304140e-01,NaN,1,0,3,1
47,191,1,49,NaN,NaN,1,NaN,5.582044e-01,NaN,1,1,2,1
47,192,1,2,NaN,NaN,1,NaN,6.174678e-01,NaN,2,1,1,1
47,193,1,43,NaN,NaN,1,NaN,1.834567e+00,NaN,0,0,1,1
47,194,1,117,NaN,NaN,2,NaN,4.421889e-01,NaN,0,0,3,1
47,195,1,64,NaN,NaN,1,NaN,7.380296e-01,NaN,0,1,2,1
47,196,1,61,NaN,NaN,1,NaN,7.817430e-01,NaN,1,0,2,1
47,197,1,28,NaN,NaN,1,NaN,1.672062e+00,NaN,0,1,1,1
47,198,1,48,NaN,NaN,1,NaN,3.107972e-01,NaN,0,0,1,1
47,199,1,102,NaN,NaN,0,NaN,9.995470e+00,NaN,0,1,3,1
47,200,1,143,NaN,NaN,0,NaN,9.995377e+00,NaN,0,0,3,1
47,201,1,101,NaN,NaN,1,NaN,1.022770e+00,NaN,2,0,3,1
47,202,1,104,NaN,NaN,0,NaN,9.995370e+00,NaN,1,1,3,1
47,203,1,110,NaN,NaN,2,NaN,2.361271e+00,NaN,1,0,3,1
47,204,1,37,NaN,NaN,1,NaN,3.161534e-01,NaN,2,0,1,1
47,205,1,114,NaN,NaN,1,NaN,3.270842e-02,NaN,2,0,3,1
47,206,1,120,NaN,NaN,2,NaN,9.767629e-01,NaN,0,1,3,1
47,207,1,86,NaN,NaN,1,NaN,3.155005e-01,NaN,0,0,2,1
47,208,1,38,NaN,NaN,1,NaN,1.373403e-04,NaN,0,0,1,1
47,209,1,31,NaN,NaN,1,NaN,4.495694e-01,NaN,2,0,1,1
47,210,1,100,NaN,NaN,2,NaN,6.704631e+00,NaN,0,0,3,1
47,211,1,131,NaN,NaN,2,NaN,3.823028e-01,NaN,0,0,3,1
47,212,1,15,NaN,NaN,2,NaN,1.096008e+00,NaN,0,0,1,1
47,213,1,55,NaN,NaN,1,NaN,3.976149e-01,NaN,2,0,2,1
47,214,1,68,NaN,NaN,1,NaN,4.786982e-01,NaN,0,0,2,1
47,215,1,126,NaN,NaN,2,NaN,3.248514e-01,NaN,2,1,3,1
47,216,1,57,NaN,NaN,1,NaN,3.459726e-01,NaN,0,1,2,1
47,217,1,75,NaN,NaN,1,NaN,3.478159e-01,NaN,0,1,2,1
47,218,1,38,NaN,NaN,1,NaN,5.755307e-01,NaN,2,0,1,1
47,219,1,10,NaN,NaN,1,NaN,4.821381e-01,NaN,1,0,1,1
47,220,1,101,NaN,NaN,1,NaN,5.441929e-01,NaN,0,0,3,1
47,221,1,137,NaN,NaN,1,NaN,4.679896e-01,NaN,0,0,3,1
47,222,1,87,NaN,NaN,1,NaN,4.345214e-01,NaN,1,0,2,1
47,223,1,88,NaN,NaN,1,NaN,9.786585e-01,NaN,0,1,2,1
47,224,1,29,NaN,NaN,1,NaN,5.725988e-01,NaN,1,1,1,1
47,225,1,17,NaN,NaN,1,NaN,4.716139e-01,NaN,1,0,1,1
47,226,1,40,NaN,NaN,1,NaN,1.046321e+00,NaN,0,1,1,1
47,227,1,31,NaN,NaN,1,NaN,5.898222e-01,NaN,0,0,1,1
47,228,1,139,NaN,NaN,0,NaN,9.995043e+00,NaN,0,0,3,1
47,229,1,40,NaN,NaN,1,NaN,7.691663e-01,NaN,2,1,1,1
47,230,1,36,NaN,NaN,1,NaN,3.958060e-01,NaN,2,0,1,1
47,231,1,25,NaN,NaN,1,NaN,4.531922e-01,NaN,0,0,1,1
47,232,1,5,NaN,NaN,1,NaN,4.846123e-01,NaN,1,0,1,1
47,233,1,13,NaN,NaN,1,NaN,4.987768e-01,NaN,0,1,1,1
47,234,1,22,NaN,NaN,1,NaN,4.476306e-01,NaN,1,0,1,1
47,235,1,66,NaN,NaN,1,NaN,5.274380e-01,NaN,0,0,2,1
47,236,1,132,NaN,NaN,2,NaN,1.979896e+00,NaN,0,0,3,1
47,237,1,53,NaN,NaN,1,NaN,9.019611e-01,NaN,0,1,2,1
47,238,1,115,NaN,NaN,2,NaN,4.996084e-01,NaN,1,1,3,1
47,239,1,62,NaN,NaN,1,NaN,6.170717e-01,NaN,1,0,2,1
47,240,1,107,NaN,NaN,1,NaN,3.257687e+00,NaN,0,0,3,1
47,241,1,92,NaN,NaN,1,NaN,7.529170e-01,NaN,2,0,2,1
47,242,1,124,NaN,NaN,2,NaN,1.324380e+00,NaN,2,0,3,1
47,243,1,8,NaN,NaN,1,NaN,7.212074e-01,NaN,2,1,1,1
47,244,1,113,NaN,NaN,1,NaN,6.218545e-01,NaN,1,0,3,1
47,245,1,19,NaN,NaN,1,NaN,4.627483e-01,NaN,1,0,1,1
47,246,1,134,NaN,NaN,2,NaN,7.014442e-01,NaN,0,0,3,1
47,247,1,11,NaN,NaN,1,NaN,5.866027e-01,NaN,0,0,1,1
47,248,1,126,NaN,NaN,2,NaN,1.452788e+00,NaN,0,1,3,1
47,249,1,59,NaN,NaN,1,NaN,4.040204e-01,NaN,1,0,2,1
47,250,1,51,NaN,NaN,1,NaN,5.336745e-01,NaN,0,0,2,1
47,251,1,6,NaN,NaN,1,NaN,5.215091e-01,NaN,2,0,1,1
47,252,1,30,NaN,NaN,1,NaN,5.421365e-01,NaN,1,0,1,1
47,253,1,115,NaN,NaN,2,NaN,2.737991e+00,NaN,0,1,3,1
47,254,1,127,NaN,NaN,1,NaN,5.662060e-01,NaN,0,1,3,1
47,255,1,6,NaN,NaN,1,NaN,4.011535e-01,NaN,0,0,1,1
47,256,1,5,NaN,NaN,1,NaN,4.499509e-01,NaN,0,0,1,1
47,257,1,114,NaN,NaN,1,NaN,5.612941e-01,NaN,0,0,3,1
47,258,1,111,NaN,NaN,1,NaN,2.347408e+00,NaN,2,0,3,1
47,259,1,112,NaN,NaN,1,NaN,5.507487e-01,NaN,0,0,3,1
47,260,1,9,NaN,NaN,1,NaN,6.742632e-01,NaN,2,0,1,1
47,261,1,47,NaN,NaN,1,NaN,1.681400e+00,NaN,0,0,1,1
47,262,1,57,NaN,NaN,1,NaN,5.352420e-01,NaN,1,1,2,1
47,263,1,32,NaN,NaN,1,NaN,1.027157e+00,NaN,0,0,1,1
47,264,1,42,NaN,NaN,1,NaN,4.441860e-01,NaN,0,0,1,1
47,265,1,52,NaN,NaN,1,NaN,6.843510e-01,NaN,0,1,2,1
47,266,1,74,NaN,NaN,1,NaN,7.941821e-01,NaN,1,0,2,1
47,267,1,131,NaN,NaN,2,NaN,1.275950e+00,NaN,1,0,3,1
47,268,1,97,NaN,NaN,2,NaN,1.299002e+00,NaN,1,0,3,1
47,269,1,55,NaN,NaN,1,NaN,3.768223e+00,NaN,0,0,2,1
47,270,1,9,NaN,NaN,1,NaN,1.347190e+00,NaN,0,0,1,1
47,271,1,58,NaN,NaN,1,NaN,5.187808e-01,NaN,2,0,2,1
47,272,1,3,NaN,NaN,1,NaN,8.909530e-01,NaN,1,0,1,1
47,273,1,104,NaN,NaN,1,NaN,1.289237e+00,NaN,0,1,3,1
47,274,1,119,NaN,NaN,2,NaN,9.188726e-01,NaN,2,0,3,1
47,275,1,18,NaN,NaN,1,NaN,4.598796e-01,NaN,1,0,1,1
47,276,1,142,NaN,NaN,2,NaN,1.131097e+00,NaN,2,0,3,1
47,277,1,46,NaN,NaN,2,NaN,7.790730e+00,NaN,0,0,1,1
47,278,1,135,NaN,NaN,2,NaN,2.337630e+00,NaN,2,1,3,1
47,279,1,44,NaN,NaN,1,NaN,8.216819e-01,NaN,0,1,1,1
47,280,1,8,NaN,NaN,1,NaN,7.182909e-01,NaN,0,1,1,1
47,281,1,83,NaN,NaN,1,NaN,5.232185e-01,NaN,0,0,2,1
47,282,1,54,NaN,NaN,1,NaN,5.035936e-01,NaN,2,1,2,1
47,283,1,12,NaN,NaN,1,NaN,9.729071e-01,NaN,1,0,1,1
47,284,1,119,NaN,NaN,0,NaN,9.995502e+00,NaN,0,0,3,1
47,285,1,33,NaN,NaN,1,NaN,4.413003e-01,NaN,2,1,1,1
47,286,1,54,NaN,NaN,1,NaN,1.521189e+00,NaN,0,1,2,1
47,287,1,140,NaN,NaN,1,NaN,2.421793e+00,NaN,1,1,3,1
47,288,1,105,NaN,NaN,2,NaN,3.877796e-02,NaN,0,0,3,1
47,370,2,100,71,1,0,0,3.499664e+00,NaN,1,0,3,1
47,371,2,30,53,2,2,1,2.025078e+00,NaN,1,0,1,1
47,372,2,78,41,1,1,1,1.438012e+00,NaN,1,0,2,1
47,373,2,23,48,2,2,1,2.394238e+00,NaN,1,0,1,1
47,374,2,4,64,1,1,1,1.551966e+00,NaN,1,0,1,1
47,375,2,120,2,1,1,1,1.343631e+00,NaN,1,1,3,1
47,376,2,68,24,2,2,1,1.295659e+00,NaN,1,0,2,1
47,377,2,29,59,1,1,1,1.761073e+00,NaN,1,1,1,1
47,378,2,94,42,1,1,1,2.079704e+00,NaN,1,0,2,1
47,379,2,96,19,1,1,1,1.673942e+00,NaN,1,1,2,1
47,380,2,106,18,2,2,1,3.092600e+00,NaN,1,0,3,1
47,381,2,87,52,2,2,1,1.183038e+00,NaN,1,0,2,1
47,382,2,66,58,2,2,1,1.732646e+00,NaN,1,0,2,1
47,383,2,86,43,1,1,1,1.093200e+00,NaN,1,0,2,1
47,384,2,115,39,1,0,0,3.499919e+00,NaN,1,1,3,1
47,385,2,140,36,2,2,1,1.904822e+00,NaN,1,1,3,1
47,386,2,75,27,2,2,1,1.258055e+00,NaN,1,1,2,1
47,387,2,39,68,2,2,1,2.933639e+00,NaN,1,0,1,1
47,388,2,22,55,1,2,0,2.645329e+00,NaN,1,0,1,1
47,389,2,47,67,2,2,1,1.976816e+00,NaN,1,0,1,1
47,390,2,34,65,1,2,0,2.927501e+00,NaN,1,0,1,1
47,391,2,74,61,1,1,1,1.336649e+00,NaN,1,0,2,1
47,392,2,51,62,2,2,1,1.320662e+00,NaN,1,0,2,1
47,393,2,61,3,1,2,0,1.417478e+00,NaN,1,0,2,1
47,394,3,30,53,2,2,1,1.323237e+00,NaN,1,0,1,1
47,395,3,23,48,2,2,1,2.300426e+00,NaN,1,0,1,1
47,396,3,4,64,2,2,1,1.461637e+00,NaN,1,0,1,1
47,397,3,100,71,2,2,1,2.840578e+00,NaN,1,0,3,1
47,398,3,68,24,2,2,1,7.489341e-01,NaN,1,0,2,1
47,399,3,51,62,2,2,1,2.428247e+00,NaN,1,0,2,1
47,400,3,39,68,1,2,0,2.448316e+00,NaN,1,0,1,1
47,401,3,86,43,2,2,1,2.987413e+00,NaN,1,0,2,1
47,402,3,66,58,2,2,1,1.529696e+00,NaN,1,0,2,1
47,403,3,34,65,1,1,1,1.465895e+00,NaN,1,0,1,1
47,404,3,78,41,2,2,1,1.180521e+00,NaN,1,0,2,1
47,405,3,115,39,1,1,1,3.386811e+00,NaN,1,1,3,1
47,406,3,47,67,2,2,1,1.216676e+00,NaN,1,0,1,1
47,407,3,94,42,2,2,1,1.701813e+00,NaN,1,0,2,1
47,408,3,74,61,2,2,1,1.670805e+00,NaN,1,0,2,1
47,409,3,22,55,1,0,0,3.499562e+00,NaN,1,0,1,1
47,410,3,75,27,1,1,1,1.435322e+00,NaN,1,1,2,1
47,411,3,106,18,2,2,1,1.815247e+00,NaN,1,0,3,1
47,412,3,61,3,2,1,0,1.220153e+00,NaN,1,0,2,1
47,413,3,87,52,1,1,1,1.264788e+00,NaN,1,0,2,1
47,414,3,29,59,2,2,1,1.763777e+00,NaN,1,1,1,1
47,415,3,140,36,2,2,1,1.682284e+00,NaN,1,1,3,1
47,416,3,96,19,1,1,1,1.140753e+00,NaN,1,1,2,1
47,417,3,120,2,2,2,1,1.756679e+00,NaN,1,1,3,1
47,442,2,141,12,1,1,1,2.310289e+00,NaN,1,0,3,2
47,443,2,42,4,1,1,1,1.496026e+00,NaN,1,0,1,2
47,444,2,56,46,1,1,1,3.417180e+00,NaN,1,1,2,2
47,445,2,44,63,1,1,1,1.134093e+00,NaN,1,1,1,2
47,446,2,116,1,1,1,1,1.374515e+00,NaN,1,1,3,2
47,447,2,19,50,1,1,1,1.260772e+00,NaN,1,0,1,2
47,448,2,69,37,2,2,1,1.216316e+00,NaN,1,0,2,2
47,449,2,18,38,2,2,1,2.164988e+00,NaN,1,0,1,2
47,450,2,14,35,1,1,1,1.243766e+00,NaN,1,0,1,2
47,451,2,131,60,2,2,1,1.055969e+00,NaN,1,0,3,2
47,452,2,98,11,1,1,1,2.667197e+00,NaN,1,0,3,2
47,453,2,50,70,1,1,1,2.478003e+00,NaN,1,0,2,2
47,454,2,97,15,1,1,1,2.625200e+00,NaN,1,0,3,2
47,455,2,137,14,1,1,1,1.725935e+00,NaN,1,0,3,2
47,456,2,110,51,2,2,1,1.846672e+00,NaN,1,0,3,2
47,457,2,104,72,1,1,1,7.700344e-01,NaN,1,1,3,2
47,458,2,113,7,2,2,1,1.344665e+00,NaN,1,0,3,2
47,459,2,105,6,2,2,1,3.112200e+00,NaN,1,0,3,2
47,460,2,134,16,1,1,1,1.792740e+00,NaN,1,0,3,2
47,461,2,10,57,1,1,1,1.479012e+00,NaN,1,0,1,2
47,462,2,57,56,1,1,1,1.945379e+00,NaN,1,1,2,2
47,463,2,62,28,1,1,1,1.776734e+00,NaN,1,0,2,2
47,464,2,136,10,2,2,1,2.287347e+00,NaN,1,0,3,2
47,465,2,21,47,2,2,1,1.985838e+00,NaN,1,0,1,2
47,466,3,62,28,2,2,1,1.090255e+00,NaN,1,0,2,2
47,467,3,44,63,1,1,1,1.580245e+00,NaN,1,1,1,2
47,468,3,134,16,1,1,1,1.466526e+00,NaN,1,0,3,2
47,469,3,137,14,1,1,1,2.405013e+00,NaN,1,0,3,2
47,470,3,136,10,1,1,1,1.258715e+00,NaN,1,0,3,2
47,471,3,97,15,1,1,1,1.886008e+00,NaN,1,0,3,2
47,472,3,10,57,2,2,1,1.872652e+00,NaN,1,0,1,2
47,473,3,141,12,1,1,1,2.267213e+00,NaN,1,0,3,2
47,474,3,113,7,1,1,1,1.109816e+00,NaN,1,0,3,2
47,475,3,110,51,1,1,1,1.334982e+00,NaN,1,0,3,2
47,476,3,57,56,1,1,1,9.592631e-01,NaN,1,1,2,2
47,477,3,19,50,1,1,1,6.467037e-01,NaN,1,0,1,2
47,478,3,14,35,2,2,1,1.218295e+00,NaN,1,0,1,2
47,479,3,104,72,1,1,1,1.766895e+00,NaN,1,1,3,2
47,480,3,50,70,2,2,1,1.149413e+00,NaN,1,0,2,2
47,481,3,56,46,1,1,1,1.957279e+00,NaN,1,1,2,2
47,482,3,98,11,2,0,0,3.499759e+00,NaN,1,0,3,2
47,483,3,42,4,1,1,1,8.298296e-01,NaN,1,0,1,2
47,484,3,105,6,2,2,1,3.313986e+00,NaN,1,0,3,2
47,485,3,131,60,1,1,1,1.490912e+00,NaN,1,0,3,2
47,486,3,116,1,1,1,1,1.381149e+00,NaN,1,1,3,2
47,487,3,21,47,2,2,1,1.107063e+00,NaN,1,0,1,2
47,488,3,18,38,1,1,1,1.252853e+00,NaN,1,0,1,2
47,489,3,69,37,1,1,1,1.335873e+00,NaN,1,0,2,2
47,514,2,12,40,2,0,0,3.499727e+00,NaN,1,0,1,3
47,515,2,1,69,1,1,1,1.570691e+00,NaN,1,0,1,3
47,516,2,112,8,1,1,1,1.112907e+00,NaN,1,0,3,3
47,517,2,32,20,1,1,1,1.802029e+00,NaN,1,0,1,3
47,518,2,49,9,1,1,1,1.423207e+00,NaN,1,1,2,3
47,519,2,143,32,1,1,1,1.155968e+00,NaN,1,0,3,3
47,520,2,59,23,2,1,0,2.171192e+00,NaN,1,0,2,3
47,521,2,88,22,2,2,1,1.194195e+00,NaN,1,1,2,3
47,522,2,46,44,1,0,0,3.499921e+00,NaN,1,0,1,3
47,523,2,130,34,1,1,1,2.257975e+00,NaN,1,1,3,3
47,524,2,102,54,1,1,1,1.445047e+00,NaN,1,1,3,3
47,525,2,103,29,1,1,1,1.360705e+00,NaN,1,0,3,3
47,526,2,85,13,2,2,1,8.963950e-01,NaN,1,1,2,3
47,527,2,84,5,1,1,1,1.105499e+00,NaN,1,0,2,3
47,528,2,108,31,1,1,1,1.642858e+00,NaN,1,1,3,3
47,529,2,27,25,1,1,1,9.991965e-01,NaN,1,0,1,3
47,530,2,3,30,2,2,1,1.300363e+00,NaN,1,0,1,3
47,531,2,48,26,1,1,1,2.357739e+00,NaN,1,0,1,3
47,532,2,70,49,1,1,1,1.125617e+00,NaN,1,0,2,3
47,533,2,17,17,1,1,1,1.270116e+00,NaN,1,0,1,3
47,534,2,53,21,1,1,1,1.072980e+00,NaN,1,1,2,3
47,535,2,5,45,1,1,1,8.437390e-01,NaN,1,0,1,3
47,536,2,82,66,2,2,1,2.319322e+00,NaN,1,0,2,3
47,537,2,109,33,1,1,1,1.080553e+00,NaN,1,0,3,3
47,538,3,48,26,2,2,1,1.594349e+00,NaN,1,0,1,3
47,539,3,143,32,2,2,1,1.223623e+00,NaN,1,0,3,3
47,540,3,84,5,1,1,1,5.645024e-01,NaN,1,0,2,3
47,541,3,108,31,2,2,1,1.234914e+00,NaN,1,1,3,3
47,542,3,12,40,1,1,1,7.031959e-01,NaN,1,0,1,3
47,543,3,27,25,1,1,1,1.200542e+00,NaN,1,0,1,3
47,544,3,49,9,1,1,1,6.618441e-01,NaN,1,1,2,3
47,545,3,82,66,2,2,1,1.048411e+00,NaN,1,0,2,3
47,546,3,70,49,1,1,1,7.719831e-01,NaN,1,0,2,3
47,547,3,1,69,1,1,1,8.510757e-01,NaN,1,0,1,3
47,548,3,85,13,2,2,1,8.622232e-01,NaN,1,1,2,3
47,549,3,46,44,2,1,0,2.008700e+00,NaN,1,0,1,3
47,550,3,130,34,1,1,1,1.182480e+00,NaN,1,1,3,3
47,551,3,112,8,1,1,1,7.805984e-01,NaN,1,0,3,3
47,552,3,53,21,2,2,1,9.306253e-01,NaN,1,1,2,3
47,553,3,3,30,2,2,1,8.265226e-01,NaN,1,0,1,3
47,554,3,59,23,1,1,1,1.151470e+00,NaN,1,0,2,3
47,555,3,88,22,2,2,1,1.054742e+00,NaN,1,1,2,3
47,556,3,32,20,2,2,1,1.322455e+00,NaN,1,0,1,3
47,557,3,102,54,2,2,1,1.323112e+00,NaN,1,1,3,3
47,558,3,17,17,1,1,1,1.524052e+00,NaN,1,0,1,3
47,559,3,103,29,1,1,1,1.004609e+00,NaN,1,0,3,3
47,560,3,109,33,2,2,1,1.010175e+00,NaN,1,0,3,3
47,561,3,5,45,1,1,1,1.327700e+00,NaN,1,0,1,3
47,586,4,54,34,1,2,0,2.185620e+00,NaN,2,1,2,1
47,587,4,73,60,2,2,1,2.263604e+00,NaN,2,0,2,1
47,588,4,83,45,1,1,1,1.610182e+00,NaN,2,0,2,1
47,589,4,93,17,2,2,1,1.327718e+00,NaN,2,0,2,1
47,590,4,25,24,1,1,1,2.632607e+00,NaN,2,0,1,1
47,591,4,41,2,2,2,1,2.156478e+00,NaN,2,1,1,1
47,592,4,36,51,1,1,1,1.772397e+00,NaN,2,0,1,1
47,593,4,144,21,2,2,1,1.362814e+00,NaN,2,1,3,1
47,594,4,9,62,2,2,1,1.449679e+00,NaN,2,0,1,1
47,595,4,135,13,1,1,1,1.004871e+00,NaN,2,1,3,1
47,596,4,114,26,1,1,1,2.002525e+00,NaN,2,0,3,1
47,597,4,119,35,2,2,1,1.656290e+00,NaN,2,0,3,1
47,598,4,26,14,1,1,1,1.283234e+00,NaN,2,0,1,1
47,599,4,99,30,1,1,1,1.981296e+00,NaN,2,0,3,1
47,600,4,89,59,2,2,1,1.731929e+00,NaN,2,1,2,1
47,601,4,31,10,2,2,1,1.819595e+00,NaN,2,0,1,1
47,602,4,28,54,2,2,1,1.080684e+00,NaN,2,1,1,1
47,603,4,8,56,1,1,1,1.618669e+00,NaN,2,1,1,1
47,604,4,60,16,1,1,1,1.903166e+00,NaN,2,0,2,1
47,605,4,24,3,1,2,0,3.064596e+00,NaN,2,0,1,1
47,606,4,123,67,2,0,0,3.499549e+00,NaN,2,0,3,1
47,607,4,71,11,2,2,1,2.253024e+00,NaN,2,0,2,1
47,608,4,118,48,1,1,1,1.800381e+00,NaN,2,0,3,1
47,609,4,107,25,1,1,1,1.414066e+00,NaN,2,0,3,1
47,634,4,16,70,1,0,0,3.499930e+00,NaN,2,0,1,2
47,635,4,33,72,1,1,1,6.811988e-01,NaN,2,1,1,2
47,636,4,13,22,2,0,0,3.499675e+00,NaN,2,1,1,2
47,637,4,37,32,1,1,1,1.812633e+00,NaN,2,0,1,2
47,638,4,92,44,2,2,1,8.094589e-01,NaN,2,0,2,2
47,639,4,77,50,2,2,1,8.390405e-01,NaN,2,0,2,2
47,640,4,11,66,1,1,1,1.274982e+00,NaN,2,0,1,2
47,641,4,91,64,2,2,1,1.989381e+00,NaN,2,0,2,2
47,642,4,126,46,1,1,1,2.411523e+00,NaN,2,1,3,2
47,643,4,117,20,1,1,1,1.480319e+00,NaN,2,0,3,2
47,644,4,129,23,1,1,1,1.562565e+00,NaN,2,0,3,2
47,645,4,20,37,1,1,1,2.369499e+00,NaN,2,0,1,2
47,646,4,95,63,2,2,1,1.072302e+00,NaN,2,1,2,2
47,647,4,2,9,2,2,1,2.594828e+00,NaN,2,1,1,2
47,648,4,40,39,2,2,1,1.640069e+00,NaN,2,1,1,2
47,649,4,133,61,2,2,1,1.724317e+00,NaN,2,0,3,2
47,650,4,64,31,1,1,1,1.877248e+00,NaN,2,1,2,2
47,651,4,90,68,2,2,1,2.551989e+00,NaN,2,0,2,2
47,652,4,121,65,1,1,1,1.423329e+00,NaN,2,0,3,2
47,653,4,55,15,1,2,0,1.852384e+00,NaN,2,0,2,2
47,654,4,142,41,1,1,1,1.847525e+00,NaN,2,0,3,2
47,655,4,58,71,1,1,1,1.154945e+00,NaN,2,0,2,2
47,656,4,132,49,2,2,1,1.402520e+00,NaN,2,0,3,2
47,657,4,38,18,1,1,1,1.552054e+00,NaN,2,0,1,2
47,682,4,122,69,2,2,1,2.551155e+00,NaN,2,0,3,3
47,683,4,124,38,2,2,1,2.222654e+00,NaN,2,0,3,3
47,684,4,63,6,2,2,1,1.355685e+00,NaN,2,0,2,3
47,685,4,101,40,1,1,1,1.163442e+00,NaN,2,0,3,3
47,686,4,35,33,2,2,1,1.313991e+00,NaN,2,0,1,3
47,687,4,43,29,1,1,1,1.306634e+00,NaN,2,0,1,3
47,688,4,80,53,1,1,1,6.524358e-01,NaN,2,0,2,3
47,689,4,15,52,2,2,1,1.799347e+00,NaN,2,0,1,3
47,690,4,138,28,1,1,1,1.149300e+00,NaN,2,0,3,3
47,691,4,67,7,2,2,1,1.644291e+00,NaN,2,0,2,3
47,692,4,81,55,1,1,1,1.392309e+00,NaN,2,0,2,3
47,693,4,128,42,2,2,1,1.421717e+00,NaN,2,0,3,3
47,694,4,79,57,2,1,0,2.267118e+00,NaN,2,0,2,3
47,695,4,52,36,1,1,1,1.677399e+00,NaN,2,1,2,3
47,696,4,7,19,1,1,1,1.135988e+00,NaN,2,1,1,3
47,697,4,65,12,1,1,1,6.644719e-01,NaN,2,0,2,3
47,698,4,6,43,2,2,1,2.859038e+00,NaN,2,0,1,3
47,699,4,111,47,1,1,1,2.198335e+00,NaN,2,0,3,3
47,700,4,127,27,2,2,1,2.779619e+00,NaN,2,1,3,3
47,701,4,45,8,2,2,1,3.449977e+00,NaN,2,0,1,3
47,702,4,72,1,1,1,1,1.413463e+00,NaN,2,1,2,3
47,703,4,125,58,1,1,1,1.194203e+00,NaN,2,0,3,3
47,704,4,76,4,2,2,1,9.526991e-01,NaN,2,0,2,3
47,705,4,139,5,1,1,1,1.263696e+00,NaN,2,0,3,3
47,706,5,8.606000e+01,43,2,0,0,2.500147e+00,1,1,0,2.100000e+00,1
47,707,5,4.910000e+00,64,1,0,0,2.500256e+00,1,1,0,1.200000e+00,1
47,708,5,1.301000e+01,40,1,0,0,2.500455e+00,1,1,0,1.300000e+00,1
47,709,5,6.825000e+01,24,2,0,0,2.500505e+00,1,1,0,2.100000e+00,1
47,710,5,7.942000e+01,41,2,4,0,6.712028e-01,1,1,0,2.300000e+00,1
47,711,5,6.124000e+01,3,2,4,0,1.240267e+00,1,1,0,2.100000e+00,1
47,712,5,8.606000e+01,43,2,4,0,7.294946e-01,2,1,0,2.100000e+00,1
47,713,5,1.093500e+02,33,3,0,0,2.500094e+00,1,1,0,3.100000e+00,1
47,714,5,4.914000e+01,26,1,0,0,2.500120e+00,1,1,0,1.300000e+00,1
47,715,5,9.528000e+01,42,2,3,0,1.711915e+00,1,1,0,2.300000e+00,1
47,716,5,8.211000e+01,66,2,1,0,3.772200e-01,1,1,0,2.100000e+00,1
47,717,5,1.005800e+02,71,3,4,0,5.956460e-01,1,1,0,3.200000e+00,1
47,718,5,2.281000e+01,55,1,1,1,7.569841e-01,1,1,0,1.200000e+00,1
47,719,5,4.914000e+01,26,1,2,0,4.943692e-01,2,1,0,1.300000e+00,1
47,720,5,1.136700e+02,7,3,3,1,1.127901e+00,1,1,0,3.200000e+00,1
47,721,5,7.942000e+01,41,2,2,1,4.655462e-01,2,1,0,2.300000e+00,1
47,722,5,7.533000e+01,61,2,1,0,6.909536e-01,1,1,0,2.300000e+00,1
47,723,5,6.338000e+01,28,2,2,1,4.678118e-01,1,1,0,2.300000e+00,1
47,724,5,6.725000e+01,58,2,2,1,4.700035e-01,1,1,0,2.300000e+00,1
47,725,5,5.016000e+01,70,2,1,0,3.827342e-01,1,1,0,2.100000e+00,1
47,726,5,8.211000e+01,66,2,4,0,9.285568e-01,2,1,0,2.100000e+00,1
47,727,5,4.692000e+01,44,1,1,1,1.057500e+00,1,1,0,1.200000e+00,1
47,728,5,1.124500e+02,8,3,4,0,1.227072e+00,1,1,0,3.100000e+00,1
47,729,5,2.418000e+01,48,1,3,0,1.733252e+00,1,1,0,1.300000e+00,1
47,730,5,7.942000e+01,41,2,2,1,4.072894e-01,3,1,0,2.300000e+00,1
47,731,5,4.823000e+01,67,1,1,1,4.330542e-01,1,1,0,1.300000e+00,1
47,732,5,1.005800e+02,71,3,4,0,5.542432e-01,2,1,0,3.200000e+00,1
47,733,5,9.871000e+01,11,3,4,0,5.232695e-01,1,1,0,3.200000e+00,1
47,734,5,1.079000e+01,57,1,1,1,1.052954e+00,1,1,0,1.200000e+00,1
47,735,5,2.418000e+01,48,1,2,0,7.421993e-01,2,1,0,1.300000e+00,1
47,736,5,2.220000e+00,69,1,1,1,1.024474e+00,1,1,0,1.300000e+00,1
47,737,5,9.755000e+01,15,3,3,1,5.939237e-01,1,1,0,3.200000e+00,1
47,738,5,4.276000e+01,4,1,1,1,5.002120e-01,1,1,0,1.200000e+00,1
47,739,5,1.433700e+02,32,3,3,1,4.452110e-01,1,1,0,3.100000e+00,1
47,740,5,9.755000e+01,15,3,3,1,4.951935e-01,2,1,0,3.200000e+00,1
47,741,5,6.124000e+01,3,2,1,0,4.165649e-01,2,1,0,2.100000e+00,1
47,742,5,1.372600e+02,14,3,1,0,7.618042e-01,1,1,0,3.100000e+00,1
47,743,5,1.103600e+02,51,3,3,1,1.715301e+00,1,1,0,3.100000e+00,1
47,744,5,1.793000e+01,17,1,1,1,3.736039e-01,1,1,0,1.200000e+00,1
47,745,5,1.005800e+02,71,3,3,1,3.744645e-01,3,1,0,3.200000e+00,1
47,746,5,3.990000e+01,68,1,2,0,5.038644e-01,1,1,0,1.200000e+00,1
47,747,5,3.990000e+00,30,1,1,1,5.053622e-01,1,1,0,1.300000e+00,1
47,748,5,3.990000e+00,30,1,1,1,3.869383e-01,2,1,0,1.300000e+00,1
47,749,5,1.056300e+02,6,3,3,1,4.921793e-01,1,1,0,3.200000e+00,1
47,750,5,2.418000e+01,48,1,1,1,5.584250e-01,3,1,0,1.300000e+00,1
47,751,5,1.363100e+02,10,3,3,1,4.805274e-01,1,1,0,3.100000e+00,1
47,752,5,4.823000e+01,67,1,1,1,3.857813e-01,2,1,0,1.300000e+00,1
47,753,5,6.920000e+01,37,2,1,0,3.553126e-01,1,1,0,2.100000e+00,1
47,754,5,3.317000e+01,20,1,4,0,1.068580e+00,1,1,0,1.300000e+00,1
47,755,5,8.539000e+01,5,2,4,0,4.862438e-01,1,1,0,2.300000e+00,1
47,756,5,2.281000e+01,55,1,4,0,1.559312e+00,2,1,0,1.200000e+00,1
47,757,5,1.079000e+01,57,1,1,1,6.894652e-01,2,1,0,1.200000e+00,1
47,758,5,7.132000e+01,49,2,3,0,5.792654e-01,1,1,0,2.300000e+00,1
47,759,5,1.317300e+02,60,3,1,0,1.060252e+00,1,1,0,3.200000e+00,1
47,760,5,1.063800e+02,18,3,3,1,1.190442e+00,1,1,0,3.100000e+00,1
47,761,5,1.034300e+02,29,3,3,1,5.045040e-01,1,1,0,3.100000e+00,1
47,762,5,1.924000e+01,38,1,3,0,8.576071e-01,1,1,0,1.300000e+00,1
47,763,5,4.276000e+01,4,1,1,1,1.058725e+00,2,1,0,1.200000e+00,1
47,764,5,4.910000e+00,64,1,1,1,5.247830e-01,2,1,0,1.200000e+00,1
47,765,5,3.080000e+01,53,1,3,0,4.303104e-01,1,1,0,1.200000e+00,1
47,766,5,4.823000e+01,67,1,1,1,3.996940e-01,3,1,0,1.300000e+00,1
47,767,5,1.977000e+01,50,1,1,1,5.129687e-01,1,1,0,1.200000e+00,1
47,768,5,1.416500e+02,12,3,4,0,4.028683e-01,1,1,0,3.200000e+00,1
47,769,5,1.416500e+02,12,3,3,1,4.121410e-01,2,1,0,3.200000e+00,1
47,770,5,1.056300e+02,6,3,4,0,5.656392e-01,2,1,0,3.200000e+00,1
47,771,5,8.539000e+01,5,2,3,0,1.550456e+00,2,1,0,2.300000e+00,1
47,772,5,2.281000e+01,55,1,1,1,9.689267e-01,3,1,0,1.200000e+00,1
47,773,5,1.519000e+01,35,1,1,1,4.023032e-01,1,1,0,1.300000e+00,1
47,774,5,9.871000e+01,11,3,3,1,4.596550e-01,2,1,0,3.200000e+00,1
47,775,5,4.692000e+01,44,1,4,0,5.980038e-01,2,1,0,1.200000e+00,1
47,776,5,1.103600e+02,51,3,4,0,4.632735e-01,2,1,0,3.100000e+00,1
47,777,5,8.539000e+01,5,2,2,1,1.056514e+00,3,1,0,2.300000e+00,1
47,778,5,1.433700e+02,32,3,3,1,5.458480e-01,2,1,0,3.100000e+00,1
47,779,5,3.990000e+00,30,1,4,0,5.155483e-01,3,1,0,1.300000e+00,1
47,780,5,6.920000e+01,37,2,2,1,8.529596e-01,2,1,0,2.100000e+00,1
47,781,5,1.977000e+01,50,1,1,1,7.583125e-01,2,1,0,1.200000e+00,1
47,782,5,4.276000e+01,4,1,1,1,4.881276e-01,3,1,0,1.200000e+00,1
47,783,5,6.725000e+01,58,2,2,1,4.336787e-01,2,1,0,2.300000e+00,1
47,784,5,1.317300e+02,60,3,3,1,4.912626e-01,2,1,0,3.200000e+00,1
47,785,5,1.301000e+01,40,1,4,0,4.288361e-01,2,1,0,1.300000e+00,1
47,786,5,4.276000e+01,4,1,1,1,3.500741e-01,4,1,0,1.200000e+00,1
47,787,5,1.034300e+02,29,3,3,1,1.111694e+00,2,1,0,3.100000e+00,1
47,788,5,8.715000e+01,52,2,1,0,5.607284e-01,1,1,0,2.100000e+00,1
47,789,5,6.338000e+01,28,2,4,0,8.829275e-01,2,1,0,2.300000e+00,1
47,790,5,1.793000e+01,17,1,1,1,6.603243e-01,2,1,0,1.200000e+00,1
47,791,5,6.029000e+01,23,2,2,1,6.145863e-01,1,1,0,2.300000e+00,1
47,792,5,1.372600e+02,14,3,1,0,5.040872e-01,2,1,0,3.100000e+00,1
47,793,5,7.942000e+01,41,2,2,1,3.934663e-01,4,1,0,2.300000e+00,1
47,794,5,2.220000e+00,69,1,1,1,4.266315e-01,2,1,0,1.300000e+00,1
47,795,5,3.990000e+00,30,1,1,1,5.890960e-01,4,1,0,1.300000e+00,1
47,796,5,6.825000e+01,24,2,4,0,6.462974e-01,2,1,0,2.100000e+00,1
47,797,5,1.363100e+02,10,3,3,1,6.235663e-01,2,1,0,3.100000e+00,1
47,798,5,3.521000e+01,65,1,4,0,4.090978e-01,1,1,0,1.300000e+00,1
47,799,5,1.317300e+02,60,3,3,1,5.789919e-01,3,1,0,3.200000e+00,1
47,800,5,1.977000e+01,50,1,1,1,3.646898e-01,3,1,0,1.200000e+00,1
47,801,5,3.317000e+01,20,1,3,0,9.022044e-01,2,1,0,1.300000e+00,1
47,802,5,8.715000e+01,52,2,1,0,8.152927e-01,2,1,0,2.100000e+00,1
47,803,5,3.080000e+01,53,1,1,1,4.407500e-01,2,1,0,1.200000e+00,1
47,804,5,9.871000e+01,11,3,3,1,4.821390e-01,3,1,0,3.200000e+00,1
47,805,5,1.093500e+02,33,3,3,1,6.195586e-01,2,1,0,3.100000e+00,1
47,806,5,3.521000e+01,65,1,1,1,3.891671e-01,2,1,0,1.300000e+00,1
47,807,5,1.519000e+01,35,1,1,1,4.866214e-01,2,1,0,1.300000e+00,1
47,808,5,1.056300e+02,6,3,2,0,8.400879e-01,3,1,0,3.200000e+00,1
47,809,5,1.346000e+02,16,3,3,1,9.932773e-01,1,1,0,3.200000e+00,1
47,810,5,7.132000e+01,49,2,3,0,4.035390e-01,2,1,0,2.300000e+00,1
47,811,5,6.338000e+01,28,2,4,0,3.968389e-01,3,1,0,2.300000e+00,1
47,812,5,2.418000e+01,48,1,1,1,5.904416e-01,4,1,0,1.300000e+00,1
47,813,5,6.029000e+01,23,2,2,1,5.595723e-01,2,1,0,2.300000e+00,1
47,814,5,2.211000e+01,47,1,1,1,3.538704e-01,1,1,0,1.300000e+00,1
47,815,5,7.533000e+01,61,2,4,0,5.393504e-01,2,1,0,2.300000e+00,1
47,816,5,1.063800e+02,18,3,3,1,4.203509e-01,2,1,0,3.100000e+00,1
47,817,5,1.079000e+01,57,1,1,1,1.437871e+00,3,1,0,1.200000e+00,1
47,818,5,1.079000e+01,57,1,1,1,3.434313e-01,4,1,0,1.200000e+00,1
47,819,5,6.124000e+01,3,2,1,0,3.536428e-01,3,1,0,2.100000e+00,1
47,820,5,9.755000e+01,15,3,3,1,5.469883e-01,3,1,0,3.200000e+00,1
47,821,5,1.124500e+02,8,3,4,0,5.325486e-01,2,1,0,3.100000e+00,1
47,822,5,1.372600e+02,14,3,1,0,3.898867e-01,3,1,0,3.100000e+00,1
47,823,5,1.301000e+01,40,1,4,0,1.151333e+00,3,1,0,1.300000e+00,1
47,824,5,1.519000e+01,35,1,1,1,3.926133e-01,3,1,0,1.300000e+00,1
47,825,5,8.211000e+01,66,2,2,1,9.627687e-01,3,1,0,2.100000e+00,1
47,826,5,4.823000e+01,67,1,1,1,4.923966e-01,4,1,0,1.300000e+00,1
47,827,5,3.317000e+01,20,1,2,0,5.580211e-01,3,1,0,1.300000e+00,1
47,828,5,6.029000e+01,23,2,2,1,3.919514e-01,3,1,0,2.300000e+00,1
47,829,5,5.016000e+01,70,2,1,0,5.377781e-01,2,1,0,2.100000e+00,1
47,830,5,1.793000e+01,17,1,1,1,5.154284e-01,3,1,0,1.200000e+00,1
47,831,5,2.220000e+00,69,1,1,1,5.967707e-01,3,1,0,1.300000e+00,1
47,832,5,1.136700e+02,7,3,3,1,6.217999e-01,2,1,0,3.200000e+00,1
47,833,5,7.533000e+01,61,2,2,1,5.593055e-01,3,1,0,2.300000e+00,1
47,834,5,2.281000e+01,55,1,2,0,8.653036e-01,4,1,0,1.200000e+00,1
47,835,5,9.871000e+01,11,3,3,1,4.266710e-01,4,1,0,3.200000e+00,1
47,836,5,1.977000e+01,50,1,1,1,4.050404e-01,4,1,0,1.200000e+00,1
47,837,5,8.606000e+01,43,2,3,0,6.386933e-01,3,1,0,2.100000e+00,1
47,838,5,7.132000e+01,49,2,3,0,1.343594e+00,3,1,0,2.300000e+00,1
47,839,5,5.109000e+01,62,2,3,0,9.058033e-01,1,1,0,2.100000e+00,1
47,840,5,1.363100e+02,10,3,3,1,1.707140e+00,3,1,0,3.100000e+00,1
47,841,5,5.016000e+01,70,2,1,0,4.212459e-01,3,1,0,2.100000e+00,1
47,842,5,1.005800e+02,71,3,4,0,3.751756e-01,4,1,0,3.200000e+00,1
47,843,5,1.056300e+02,6,3,3,1,1.352405e+00,4,1,0,3.200000e+00,1
47,844,5,8.715000e+01,52,2,2,1,9.856722e-01,3,1,0,2.100000e+00,1
47,845,5,3.080000e+01,53,1,1,1,3.232541e-01,3,1,0,1.200000e+00,1
47,846,5,6.725000e+01,58,2,2,1,4.202389e-01,3,1,0,2.300000e+00,1
47,847,5,4.914000e+01,26,1,1,1,9.337166e-01,3,1,0,1.300000e+00,1
47,848,5,2.807000e+01,25,1,1,1,8.635390e-01,1,1,0,1.300000e+00,1
47,849,5,7.533000e+01,61,2,4,0,7.207833e-01,4,1,0,2.300000e+00,1
47,850,5,1.103600e+02,51,3,3,1,9.138424e-01,3,1,0,3.100000e+00,1
47,851,5,8.539000e+01,5,2,2,1,4.115705e-01,4,1,0,2.300000e+00,1
47,852,5,4.692000e+01,44,1,1,1,4.609128e-01,3,1,0,1.200000e+00,1
47,853,5,6.124000e+01,3,2,2,1,4.309255e-01,4,1,0,2.100000e+00,1
47,854,5,5.830000e+00,45,1,2,0,4.803143e-01,1,1,0,1.200000e+00,1
47,855,5,4.692000e+01,44,1,1,1,4.338263e-01,4,1,0,1.200000e+00,1
47,856,5,1.363100e+02,10,3,3,1,5.952923e-01,4,1,0,3.100000e+00,1
47,857,5,9.528000e+01,42,2,4,0,6.446312e-01,2,1,0,2.300000e+00,1
47,858,5,1.034300e+02,29,3,3,1,3.982760e-01,3,1,0,3.100000e+00,1
47,859,5,1.416500e+02,12,3,2,0,6.556547e-01,3,1,0,3.200000e+00,1
47,860,5,3.990000e+01,68,1,2,0,4.491625e-01,2,1,0,1.200000e+00,1
47,861,5,1.346000e+02,16,3,3,1,3.944570e-01,2,1,0,3.200000e+00,1
47,862,5,4.914000e+01,26,1,1,1,3.555659e-01,4,1,0,1.300000e+00,1
47,863,5,8.606000e+01,43,2,4,0,5.177219e-01,4,1,0,2.100000e+00,1
47,864,5,1.346000e+02,16,3,3,1,4.786185e-01,3,1,0,3.200000e+00,1
47,865,5,4.910000e+00,64,1,1,1,5.523582e-01,3,1,0,1.200000e+00,1
47,866,5,6.825000e+01,24,2,4,0,6.495855e-01,3,1,0,2.100000e+00,1
47,867,5,1.136700e+02,7,3,3,1,9.470666e-01,3,1,0,3.200000e+00,1
47,868,5,2.211000e+01,47,1,1,1,5.405913e-01,2,1,0,1.300000e+00,1
47,869,5,1.372600e+02,14,3,1,0,5.900706e-01,4,1,0,3.100000e+00,1
47,870,5,1.124500e+02,8,3,2,0,4.954341e-01,3,1,0,3.100000e+00,1
47,871,5,1.093500e+02,33,3,2,0,6.248132e-01,3,1,0,3.100000e+00,1
47,872,5,3.990000e+01,68,1,2,0,1.266091e+00,3,1,0,1.200000e+00,1
47,873,5,1.924000e+01,38,1,1,1,6.675312e-01,2,1,0,1.300000e+00,1
47,874,5,1.063800e+02,18,3,3,1,5.251346e-01,3,1,0,3.100000e+00,1
47,875,5,1.063800e+02,18,3,3,1,4.150623e-01,4,1,0,3.100000e+00,1
47,876,5,1.346000e+02,16,3,3,1,7.756904e-01,4,1,0,3.200000e+00,1
47,877,5,5.830000e+00,45,1,1,1,5.935693e-01,2,1,0,1.200000e+00,1
47,878,5,5.016000e+01,70,2,4,0,9.319975e-01,4,1,0,2.100000e+00,1
47,879,5,8.211000e+01,66,2,2,1,1.293473e+00,4,1,0,2.100000e+00,1
47,880,5,5.109000e+01,62,2,0,0,2.500571e+00,2,1,0,2.100000e+00,1
47,881,5,1.793000e+01,17,1,1,1,4.976107e-01,4,1,0,1.200000e+00,1
47,882,5,9.755000e+01,15,3,3,1,1.474622e+00,4,1,0,3.200000e+00,1
47,883,5,6.725000e+01,58,2,2,1,4.604727e-01,4,1,0,2.300000e+00,1
47,884,5,1.416500e+02,12,3,3,1,4.705257e-01,4,1,0,3.200000e+00,1
47,885,5,1.124500e+02,8,3,3,1,6.238222e-01,4,1,0,3.100000e+00,1
47,886,5,2.220000e+00,69,1,1,1,3.533609e-01,4,1,0,1.300000e+00,1
47,887,5,5.109000e+01,62,2,1,0,8.267378e-01,3,1,0,2.100000e+00,1
47,888,5,5.830000e+00,45,1,3,0,1.588832e+00,3,1,0,1.200000e+00,1
47,889,5,1.093500e+02,33,3,3,1,3.909221e-01,4,1,0,3.100000e+00,1
47,890,5,6.920000e+01,37,2,2,1,4.242774e-01,3,1,0,2.100000e+00,1
47,891,5,1.034300e+02,29,3,3,1,5.696462e-01,4,1,0,3.100000e+00,1
47,892,5,5.109000e+01,62,2,4,0,4.430326e-01,4,1,0,2.100000e+00,1
47,893,5,6.920000e+01,37,2,2,1,4.291211e-01,4,1,0,2.100000e+00,1
47,894,5,1.924000e+01,38,1,1,1,7.345167e-01,3,1,0,1.300000e+00,1
47,895,5,7.132000e+01,49,2,4,0,9.601007e-01,4,1,0,2.300000e+00,1
47,896,5,2.211000e+01,47,1,1,1,1.353994e+00,3,1,0,1.300000e+00,1
47,897,5,2.807000e+01,25,1,1,1,3.315518e-01,2,1,0,1.300000e+00,1
47,898,5,6.029000e+01,23,2,2,1,4.931316e-01,4,1,0,2.300000e+00,1
47,899,5,3.080000e+01,53,1,1,1,4.477260e-01,4,1,0,1.200000e+00,1
47,900,5,3.990000e+01,68,1,2,0,4.566685e-01,4,1,0,1.200000e+00,1
47,901,5,1.924000e+01,38,1,1,1,4.017040e-01,4,1,0,1.300000e+00,1
47,902,5,1.301000e+01,40,1,3,0,5.631700e-01,4,1,0,1.300000e+00,1
47,903,5,2.211000e+01,47,1,1,1,1.020458e+00,4,1,0,1.300000e+00,1
47,904,5,9.528000e+01,42,2,3,0,1.182302e+00,3,1,0,2.300000e+00,1
47,905,5,1.519000e+01,35,1,1,1,5.515797e-01,4,1,0,1.300000e+00,1
47,906,5,3.521000e+01,65,1,1,1,4.407685e-01,3,1,0,1.300000e+00,1
47,907,5,1.433700e+02,32,3,3,1,5.540757e-01,3,1,0,3.100000e+00,1
47,908,5,3.521000e+01,65,1,1,1,4.999848e-01,4,1,0,1.300000e+00,1
47,909,5,4.910000e+00,64,1,1,1,5.330759e-01,4,1,0,1.200000e+00,1
47,910,5,1.317300e+02,60,3,3,1,6.868801e-01,4,1,0,3.200000e+00,1
47,911,5,2.807000e+01,25,1,1,1,5.358728e-01,3,1,0,1.300000e+00,1
47,912,5,9.528000e+01,42,2,4,0,7.536888e-01,4,1,0,2.300000e+00,1
47,913,5,1.136700e+02,7,3,4,0,1.634550e+00,4,1,0,3.200000e+00,1
47,914,5,3.317000e+01,20,1,3,0,1.300996e+00,4,1,0,1.300000e+00,1
47,915,5,8.715000e+01,52,2,1,0,4.624887e-01,4,1,0,2.100000e+00,1
47,916,5,6.825000e+01,24,2,2,1,7.356839e-01,4,1,0,2.100000e+00,1
47,917,5,2.807000e+01,25,1,1,1,3.372435e-01,4,1,0,1.300000e+00,1
47,918,5,5.830000e+00,45,1,1,1,6.667639e-01,4,1,0,1.200000e+00,1
47,919,5,1.433700e+02,32,3,3,1,6.122014e-01,4,1,0,3.100000e+00,1
47,920,5,6.338000e+01,28,2,2,1,4.543298e-01,4,1,0,2.300000e+00,1
47,921,5,1.103600e+02,51,3,3,1,5.110809e-01,4,1,0,3.100000e+00,1
47,922,6,15,52,2,0,0,3.499540e+00,NaN,2,0,1,1
47,923,6,95,63,2,2,1,2.584713e+00,NaN,2,1,2,1
47,924,6,114,26,2,2,1,1.671396e+00,NaN,2,0,3,1
47,925,6,125,58,2,2,1,2.130610e+00,NaN,2,0,3,1
47,926,6,90,68,1,1,1,3.259348e+00,NaN,2,0,2,1
47,927,6,35,33,2,2,1,2.071054e+00,NaN,2,0,1,1
47,928,6,67,7,1,1,1,2.586583e+00,NaN,2,0,2,1
47,929,6,26,14,1,1,1,1.201153e+00,NaN,2,0,1,1
47,930,6,63,6,1,2,0,1.015681e+00,NaN,2,0,2,1
47,931,6,79,57,2,2,1,1.036647e+00,NaN,2,0,2,1
47,932,6,38,18,1,1,1,1.673770e+00,NaN,2,0,1,1
47,933,6,133,61,1,1,1,2.965151e+00,NaN,2,0,3,1
47,934,6,135,13,2,2,1,2.948059e+00,NaN,2,1,3,1
47,935,6,99,30,2,2,1,2.524177e+00,NaN,2,0,3,1
47,936,6,54,34,1,1,1,3.485632e+00,NaN,2,1,2,1
47,937,6,138,28,2,2,1,1.680656e+00,NaN,2,0,3,1
47,938,6,7,19,2,2,1,1.971138e+00,NaN,2,1,1,1
47,939,6,65,12,1,1,1,1.306567e+00,NaN,2,0,2,1
47,940,6,16,70,2,1,0,2.020543e+00,NaN,2,0,1,1
47,941,6,107,25,1,1,1,8.578193e-01,NaN,2,0,3,1
47,942,6,71,11,2,2,1,8.536927e-01,NaN,2,0,2,1
47,943,6,24,3,2,2,1,1.442209e+00,NaN,2,0,1,1
47,944,6,55,15,1,2,0,3.006390e+00,NaN,2,0,2,1
47,945,6,121,65,2,2,1,8.288354e-01,NaN,2,0,3,1
47,946,6,132,49,1,0,0,3.499755e+00,NaN,2,0,3,1
47,947,6,124,38,1,1,1,9.237348e-01,NaN,2,0,3,1
47,948,6,25,24,2,2,1,1.364825e+00,NaN,2,0,1,1
47,949,6,139,5,2,2,1,9.722011e-01,NaN,2,0,3,1
47,950,6,8,56,2,2,1,1.691560e+00,NaN,2,1,1,1
47,951,6,6,43,1,1,1,2.614041e+00,NaN,2,0,1,1
47,952,6,28,54,1,1,1,1.155540e+00,NaN,2,1,1,1
47,953,6,2,9,2,2,1,1.363537e+00,NaN,2,1,1,1
47,954,6,31,10,2,2,1,1.043332e+00,NaN,2,0,1,1
47,955,6,13,22,2,2,1,1.711981e+00,NaN,2,1,1,1
47,956,6,119,35,1,1,1,2.585296e+00,NaN,2,0,3,1
47,957,6,20,37,1,1,1,1.215781e+00,NaN,2,0,1,1
47,958,6,76,4,1,1,1,9.092024e-01,NaN,2,0,2,1
47,959,6,77,50,2,2,1,9.272818e-01,NaN,2,0,2,1
47,960,6,45,8,1,1,1,1.056525e+00,NaN,2,0,1,1
47,961,6,117,20,2,2,1,2.276711e+00,NaN,2,0,3,1
47,962,6,123,67,1,2,0,2.512050e+00,NaN,2,0,3,1
47,963,6,142,41,2,0,0,3.499740e+00,NaN,2,0,3,1
47,964,6,127,27,2,2,1,9.074843e-01,NaN,2,1,3,1
47,965,6,129,23,2,2,1,2.589246e+00,NaN,2,0,3,1
47,966,6,36,51,1,1,1,1.579935e+00,NaN,2,0,1,1
47,967,6,37,32,1,1,1,1.434914e+00,NaN,2,0,1,1
47,968,6,80,53,1,1,1,6.716357e-01,NaN,2,0,2,1
47,969,6,111,47,1,1,1,1.986720e+00,NaN,2,0,3,1
47,970,6,118,48,2,2,1,1.881793e+00,NaN,2,0,3,1
47,971,6,122,69,1,1,1,1.700011e+00,NaN,2,0,3,1
47,972,6,58,71,2,2,1,9.265731e-01,NaN,2,0,2,1
47,973,6,11,66,2,2,1,2.863762e+00,NaN,2,0,1,1
47,974,6,83,45,1,1,1,6.749964e-01,NaN,2,0,2,1
47,975,6,41,2,2,2,1,2.302198e+00,NaN,2,1,1,1
47,976,6,92,44,2,2,1,1.152588e+00,NaN,2,0,2,1
47,977,6,64,31,2,2,1,1.032301e+00,NaN,2,1,2,1
47,978,6,126,46,1,2,0,2.660879e+00,NaN,2,1,3,1
47,979,6,43,29,2,2,1,2.289101e+00,NaN,2,0,1,1
47,980,6,93,17,2,2,1,7.159899e-01,NaN,2,0,2,1
47,981,6,91,64,1,1,1,9.735344e-01,NaN,2,0,2,1
47,982,6,9,62,2,2,1,2.460766e+00,NaN,2,0,1,1
47,983,6,144,21,1,1,1,1.040944e+00,NaN,2,1,3,1
47,984,6,33,72,1,1,1,8.535068e-01,NaN,2,1,1,1
47,985,6,72,1,2,2,1,8.732216e-01,NaN,2,1,2,1
47,986,6,40,39,2,2,1,3.172700e+00,NaN,2,1,1,1
47,987,6,101,40,1,1,1,3.419965e+00,NaN,2,0,3,1
47,988,6,73,60,1,1,1,1.393478e+00,NaN,2,0,2,1
47,989,6,89,59,1,1,1,1.449141e+00,NaN,2,1,2,1
47,990,6,81,55,2,2,1,1.140013e+00,NaN,2,0,2,1
47,991,6,128,42,2,0,0,3.499570e+00,NaN,2,0,3,1
47,992,6,52,36,1,1,1,1.127021e+00,NaN,2,1,2,1
47,993,6,60,16,1,2,0,1.840370e+00,NaN,2,0,2,1
47,994,6,75,27,1,1,1,7.890894e-01,NaN,1,1,2,1
47,995,6,47,67,2,2,1,7.797050e-01,NaN,1,0,1,1
47,996,6,100,71,1,1,1,2.594520e+00,NaN,1,0,3,1
47,997,6,5,45,2,2,1,2.161160e+00,NaN,1,0,1,1
47,998,6,1,69,2,2,1,1.144996e+00,NaN,1,0,1,1
47,999,6,49,9,2,2,1,1.081233e+00,NaN,1,1,2,1
47,1000,6,61,3,2,2,1,1.395973e+00,NaN,1,0,2,1
47,1001,6,134,16,2,2,1,2.242379e+00,NaN,1,0,3,1
47,1002,6,27,25,1,1,1,1.206713e+00,NaN,1,0,1,1
47,1003,6,94,42,2,2,1,1.420562e+00,NaN,1,0,2,1
47,1004,6,120,2,1,1,1,1.778019e+00,NaN,1,1,3,1
47,1005,6,85,13,1,1,1,1.057411e+00,NaN,1,1,2,1
47,1006,6,22,55,2,1,0,2.117541e+00,NaN,1,0,1,1
47,1007,6,102,54,1,1,1,1.406660e+00,NaN,1,1,3,1
47,1008,6,10,57,1,1,1,1.660622e+00,NaN,1,0,1,1
47,1009,6,115,39,2,2,1,3.176762e+00,NaN,1,1,3,1
47,1010,6,140,36,2,2,1,1.128170e+00,NaN,1,1,3,1
47,1011,6,66,58,1,1,1,9.375521e-01,NaN,1,0,2,1
47,1012,6,21,47,2,2,1,7.546973e-01,NaN,1,0,1,1
47,1013,6,78,41,1,1,1,8.427067e-01,NaN,1,0,2,1
47,1014,6,18,38,2,0,0,3.499995e+00,NaN,1,0,1,1
47,1015,6,23,48,2,0,0,3.499602e+00,NaN,1,0,1,1
47,1016,6,42,4,1,1,1,8.352967e-01,NaN,1,0,1,1
47,1017,6,46,44,2,2,1,1.232147e+00,NaN,1,0,1,1
47,1018,6,17,17,2,2,1,3.300415e+00,NaN,1,0,1,1
47,1019,6,97,15,2,1,0,1.198593e+00,NaN,1,0,3,1
47,1020,6,87,52,2,2,1,1.860754e+00,NaN,1,0,2,1
47,1021,6,29,59,1,1,1,9.286244e-01,NaN,1,1,1,1
47,1022,6,106,18,2,2,1,1.649494e+00,NaN,1,0,3,1
47,1023,6,136,10,2,1,0,9.895899e-01,NaN,1,0,3,1
47,1024,6,109,33,1,1,1,2.236239e+00,NaN,1,0,3,1
47,1025,6,56,46,2,2,1,8.089871e-01,NaN,1,1,2,1
47,1026,6,32,20,1,1,1,1.158873e+00,NaN,1,0,1,1
47,1027,6,39,68,1,1,1,2.358606e+00,NaN,1,0,1,1
47,1028,6,143,32,1,1,1,9.752507e-01,NaN,1,0,3,1
47,1029,6,57,56,2,1,0,6.464484e-01,NaN,1,1,2,1
47,1030,6,3,30,1,1,1,1.322758e+00,NaN,1,0,1,1
47,1031,6,44,63,1,1,1,1.059738e+00,NaN,1,1,1,1
47,1032,6,96,19,2,2,1,8.159317e-01,NaN,1,1,2,1
47,1033,6,4,64,1,1,1,1.085229e+00,NaN,1,0,1,1
47,1034,6,53,21,2,2,1,8.399512e-01,NaN,1,1,2,1
47,1035,6,110,51,2,2,1,1.748323e+00,NaN,1,0,3,1
47,1036,6,59,23,1,1,1,1.268591e+00,NaN,1,0,2,1
47,1037,6,86,43,2,2,1,1.767493e+00,NaN,1,0,2,1
47,1038,6,30,53,2,2,1,2.807383e+00,NaN,1,0,1,1
47,1039,6,68,24,2,2,1,6.611528e-01,NaN,1,0,2,1
47,1040,6,51,62,2,2,1,1.217188e+00,NaN,1,0,2,1
47,1041,6,14,35,2,2,1,1.246938e+00,NaN,1,0,1,1
47,1042,6,113,7,1,1,1,1.602851e+00,NaN,1,0,3,1
47,1043,6,112,8,1,1,1,2.224552e+00,NaN,1,0,3,1
47,1044,6,12,40,2,2,1,1.982525e+00,NaN,1,0,1,1
47,1045,6,62,28,2,1,0,7.969489e-01,NaN,1,0,2,1
47,1046,6,70,49,2,2,1,1.306751e+00,NaN,1,0,2,1
47,1047,6,104,72,1,1,1,3.060657e+00,NaN,1,1,3,1
47,1048,6,103,29,2,2,1,1.112739e+00,NaN,1,0,3,1
47,1049,6,88,22,2,2,1,1.145351e+00,NaN,1,1,2,1
47,1050,6,74,61,2,2,1,1.577568e+00,NaN,1,0,2,1
47,1051,6,19,50,1,1,1,1.696743e+00,NaN,1,0,1,1
47,1052,6,137,14,1,1,1,1.882900e+00,NaN,1,0,3,1
47,1053,6,105,6,2,2,1,1.509669e+00,NaN,1,0,3,1
47,1054,6,84,5,1,1,1,7.275467e-01,NaN,1,0,2,1
47,1055,6,130,34,2,2,1,2.097043e+00,NaN,1,1,3,1
47,1056,6,82,66,2,2,1,1.275216e+00,NaN,1,0,2,1
47,1057,6,131,60,2,2,1,9.585426e-01,NaN,1,0,3,1
47,1058,6,50,70,2,2,1,1.182859e+00,NaN,1,0,2,1
47,1059,6,48,26,2,2,1,1.653010e+00,NaN,1,0,1,1
47,1060,6,98,11,1,0,0,3.500029e+00,NaN,1,0,3,1
47,1061,6,34,65,1,1,1,2.387466e+00,NaN,1,0,1,1
47,1062,6,141,12,2,2,1,1.442128e+00,NaN,1,0,3,1
47,1063,6,69,37,2,2,1,8.388760e-01,NaN,1,0,2,1
47,1064,6,108,31,2,2,1,2.227548e+00,NaN,1,1,3,1
47,1065,6,116,1,1,1,1,1.296676e+00,NaN,1,1,3,1
