Subject,Trial,Cond,ImageNum,CueNum,Correct,Resp,Accuracy,RT,CueRep,ImageType,Baseline,Category,Block
4,1,1,110,NaN,NaN,2,NaN,1.777847e+00,NaN,1,0,3,1
4,2,1,40,NaN,NaN,1,NaN,1.638659e+00,NaN,1,0,1,1
4,3,1,41,NaN,NaN,1,NaN,1.455405e+00,NaN,2,0,1,1
4,4,1,12,NaN,NaN,2,NaN,7.429575e-01,NaN,0,1,1,1
4,5,1,5,NaN,NaN,1,NaN,8.837699e-01,NaN,0,0,1,1
4,6,1,11,NaN,NaN,1,NaN,1.770613e+00,NaN,1,0,1,1
4,7,1,39,NaN,NaN,2,NaN,8.059705e-01,NaN,1,0,1,1
4,8,1,91,NaN,NaN,1,NaN,1.871578e+00,NaN,0,0,2,1
4,9,1,14,NaN,NaN,1,NaN,2.046975e+00,NaN,0,0,1,1
4,10,1,107,NaN,NaN,1,NaN,1.063358e+00,NaN,0,0,3,1
4,11,1,2,NaN,NaN,1,NaN,1.118747e+00,NaN,1,0,1,1
4,12,1,16,NaN,NaN,1,NaN,1.052346e+00,NaN,2,0,1,1
4,13,1,131,NaN,NaN,2,NaN,1.228607e+00,NaN,0,0,3,1
4,14,1,66,NaN,NaN,1,NaN,1.013352e+00,NaN,0,1,2,1
4,15,1,3,NaN,NaN,2,NaN,9.511669e-01,NaN,2,0,1,1
4,16,1,144,NaN,NaN,1,NaN,1.107321e+00,NaN,1,0,3,1
4,17,1,35,NaN,NaN,2,NaN,8.931851e-02,NaN,0,1,1,1
4,18,1,24,NaN,NaN,1,NaN,9.042793e-01,NaN,0,1,1,1
4,19,1,18,NaN,NaN,1,NaN,6.542161e-01,NaN,0,0,1,1
4,20,1,108,NaN,NaN,2,NaN,7.739610e-01,NaN,2,1,3,1
4,21,1,48,NaN,NaN,1,NaN,1.226046e+00,NaN,1,0,1,1
4,22,1,60,NaN,NaN,1,NaN,8.985288e-01,NaN,0,0,2,1
4,23,1,33,NaN,NaN,1,NaN,1.376839e+00,NaN,0,0,1,1
4,24,1,135,NaN,NaN,2,NaN,9.724032e-01,NaN,0,0,3,1
4,25,1,143,NaN,NaN,2,NaN,1.431641e+00,NaN,0,0,3,1
4,26,1,60,NaN,NaN,1,NaN,7.524102e-01,NaN,2,0,2,1
4,27,1,4,NaN,NaN,1,NaN,6.366515e-01,NaN,0,1,1,1
4,28,1,127,NaN,NaN,1,NaN,1.621334e+00,NaN,0,1,3,1
4,29,1,122,NaN,NaN,2,NaN,1.382139e+00,NaN,0,0,3,1
4,30,1,45,NaN,NaN,2,NaN,1.433233e+00,NaN,0,0,1,1
4,31,1,69,NaN,NaN,1,NaN,9.385068e-01,NaN,0,0,2,1
4,32,1,53,NaN,NaN,1,NaN,1.094760e+00,NaN,1,0,2,1
4,33,1,19,NaN,NaN,2,NaN,1.645420e+00,NaN,0,1,1,1
4,34,1,8,NaN,NaN,1,NaN,1.173908e+00,NaN,0,0,1,1
4,35,1,92,NaN,NaN,1,NaN,7.608420e-01,NaN,0,0,2,1
4,36,1,102,NaN,NaN,2,NaN,9.728397e-01,NaN,1,1,3,1
4,37,1,33,NaN,NaN,1,NaN,6.722513e-01,NaN,2,0,1,1
4,38,1,131,NaN,NaN,2,NaN,9.991865e-01,NaN,2,0,3,1
4,39,1,55,NaN,NaN,1,NaN,5.698763e-01,NaN,2,0,2,1
4,40,1,14,NaN,NaN,1,NaN,8.614578e-01,NaN,2,0,1,1
4,41,1,132,NaN,NaN,2,NaN,9.248481e-01,NaN,2,0,3,1
4,42,1,127,NaN,NaN,1,NaN,9.704376e-01,NaN,2,1,3,1
4,43,1,6,NaN,NaN,1,NaN,6.135668e-01,NaN,1,0,1,1
4,44,1,92,NaN,NaN,1,NaN,8.954532e-01,NaN,2,0,2,1
4,45,1,130,NaN,NaN,2,NaN,1.709426e+00,NaN,0,0,3,1
4,46,1,124,NaN,NaN,2,NaN,1.627324e+00,NaN,0,1,3,1
4,47,1,141,NaN,NaN,1,NaN,7.726108e-01,NaN,0,0,3,1
4,48,1,105,NaN,NaN,2,NaN,5.681926e-01,NaN,2,0,3,1
4,49,1,83,NaN,NaN,1,NaN,5.878511e-01,NaN,0,0,2,1
4,50,1,136,NaN,NaN,1,NaN,4.306254e-01,NaN,1,0,3,1
4,51,1,112,NaN,NaN,1,NaN,4.951999e-01,NaN,1,1,3,1
4,52,1,11,NaN,NaN,1,NaN,3.338086e-01,NaN,0,0,1,1
4,53,1,144,NaN,NaN,1,NaN,2.908133e-01,NaN,0,0,3,1
4,54,1,98,NaN,NaN,1,NaN,5.533824e-01,NaN,2,1,3,1
4,55,1,52,NaN,NaN,1,NaN,3.493499e-01,NaN,0,0,2,1
4,56,1,71,NaN,NaN,1,NaN,2.977706e-01,NaN,2,0,2,1
4,57,1,80,NaN,NaN,1,NaN,3.684265e-01,NaN,1,1,2,1
4,58,1,34,NaN,NaN,1,NaN,3.323021e-01,NaN,0,0,1,1
4,59,1,129,NaN,NaN,2,NaN,3.688611e-01,NaN,1,0,3,1
4,60,1,115,NaN,NaN,2,NaN,5.087954e-01,NaN,0,0,3,1
4,61,1,18,NaN,NaN,1,NaN,3.382600e-01,NaN,1,0,1,1
4,62,1,13,NaN,NaN,1,NaN,6.234019e-01,NaN,0,0,1,1
4,63,1,77,NaN,NaN,1,NaN,1.207395e-04,NaN,1,0,2,1
4,64,1,117,NaN,NaN,2,NaN,1.067101e+00,NaN,0,0,3,1
4,65,1,72,NaN,NaN,1,NaN,2.024200e-01,NaN,2,1,2,1
4,66,1,35,NaN,NaN,1,NaN,1.612982e+00,NaN,2,1,1,1
4,67,1,52,NaN,NaN,1,NaN,5.107119e-01,NaN,1,0,2,1
4,68,1,87,NaN,NaN,1,NaN,3.644288e-01,NaN,2,0,2,1
4,69,1,10,NaN,NaN,1,NaN,4.800244e-01,NaN,2,1,1,1
4,70,1,75,NaN,NaN,1,NaN,3.274170e-01,NaN,0,1,2,1
4,71,1,45,NaN,NaN,2,NaN,3.406679e-01,NaN,2,0,1,1
4,72,1,122,NaN,NaN,2,NaN,1.065147e+00,NaN,2,0,3,1
4,73,1,103,NaN,NaN,1,NaN,3.368555e-01,NaN,0,0,3,1
4,74,1,143,NaN,NaN,1,NaN,7.338151e-01,NaN,2,0,3,1
4,75,1,20,NaN,NaN,1,NaN,4.665285e-01,NaN,2,1,1,1
4,76,1,58,NaN,NaN,1,NaN,7.543520e-01,NaN,0,0,2,1
4,77,1,72,NaN,NaN,1,NaN,3.260994e-01,NaN,0,1,2,1
4,78,1,56,NaN,NaN,1,NaN,2.680032e-01,NaN,1,0,2,1
4,79,1,89,NaN,NaN,1,NaN,7.554015e-01,NaN,1,0,2,1
4,80,1,21,NaN,NaN,1,NaN,6.714378e-01,NaN,1,0,1,1
4,81,1,23,NaN,NaN,1,NaN,6.225045e-01,NaN,1,0,1,1
4,82,1,49,NaN,NaN,1,NaN,2.958563e-01,NaN,2,0,2,1
4,83,1,6,NaN,NaN,1,NaN,1.983680e-01,NaN,0,0,1,1
4,84,1,19,NaN,NaN,1,NaN,2.404686e-01,NaN,1,1,1,1
4,85,1,40,NaN,NaN,1,NaN,4.015245e-01,NaN,0,0,1,1
4,86,1,20,NaN,NaN,1,NaN,3.395957e-01,NaN,0,1,1,1
4,87,1,43,NaN,NaN,1,NaN,2.965500e-01,NaN,0,1,1,1
4,88,1,130,NaN,NaN,2,NaN,8.628650e-01,NaN,1,0,3,1
4,89,1,112,NaN,NaN,1,NaN,5.028478e-01,NaN,0,1,3,1
4,90,1,65,NaN,NaN,1,NaN,4.051469e-01,NaN,2,0,2,1
4,91,1,89,NaN,NaN,1,NaN,5.026404e-01,NaN,0,0,2,1
4,92,1,9,NaN,NaN,1,NaN,4.935195e-01,NaN,0,0,1,1
4,93,1,119,NaN,NaN,1,NaN,2.837932e-01,NaN,2,0,3,1
4,94,1,79,NaN,NaN,1,NaN,4.424563e-01,NaN,2,0,2,1
4,95,1,43,NaN,NaN,1,NaN,2.675535e-01,NaN,1,1,1,1
4,96,1,80,NaN,NaN,1,NaN,2.833344e-01,NaN,0,1,2,1
4,97,1,133,NaN,NaN,2,NaN,7.141074e-01,NaN,0,0,3,1
4,98,1,142,NaN,NaN,1,NaN,3.519413e-01,NaN,2,0,3,1
4,99,1,8,NaN,NaN,1,NaN,3.481111e-01,NaN,2,0,1,1
4,100,1,62,NaN,NaN,1,NaN,3.685689e-01,NaN,0,1,2,1
4,101,1,78,NaN,NaN,1,NaN,6.044208e-01,NaN,0,0,2,1
4,102,1,96,NaN,NaN,1,NaN,4.461893e-01,NaN,0,1,2,1
4,103,1,116,NaN,NaN,1,NaN,2.864371e-01,NaN,0,0,3,1
4,104,1,48,NaN,NaN,1,NaN,2.932082e-01,NaN,0,0,1,1
4,105,1,39,NaN,NaN,1,NaN,1.430762e-04,NaN,0,0,1,1
4,106,1,99,NaN,NaN,2,NaN,3.266838e-01,NaN,0,0,3,1
4,107,1,85,NaN,NaN,1,NaN,2.835883e-01,NaN,0,1,2,1
4,108,1,115,NaN,NaN,2,NaN,5.704915e-01,NaN,1,0,3,1
4,109,1,106,NaN,NaN,1,NaN,1.045908e+00,NaN,0,1,3,1
4,110,1,56,NaN,NaN,1,NaN,3.423066e-01,NaN,0,0,2,1
4,111,1,37,NaN,NaN,1,NaN,4.510527e-01,NaN,0,0,1,1
4,112,1,25,NaN,NaN,1,NaN,5.637660e-01,NaN,0,0,1,1
4,113,1,22,NaN,NaN,1,NaN,5.593656e-01,NaN,2,0,1,1
4,114,1,51,NaN,NaN,1,NaN,3.152422e-01,NaN,2,1,2,1
4,115,1,84,NaN,NaN,1,NaN,5.368251e-01,NaN,2,0,2,1
4,116,1,113,NaN,NaN,1,NaN,6.619299e-01,NaN,0,0,3,1
4,117,1,100,NaN,NaN,2,NaN,1.437350e+00,NaN,2,0,3,1
4,118,1,140,NaN,NaN,1,NaN,5.336708e-01,NaN,1,0,3,1
4,119,1,16,NaN,NaN,1,NaN,2.991477e-01,NaN,0,0,1,1
4,120,1,138,NaN,NaN,1,NaN,5.371487e-01,NaN,0,1,3,1
4,121,1,44,NaN,NaN,1,NaN,4.298502e-01,NaN,0,0,1,1
4,122,1,32,NaN,NaN,1,NaN,3.271094e-01,NaN,1,0,1,1
4,123,1,32,NaN,NaN,1,NaN,3.641345e-01,NaN,0,0,1,1
4,124,1,109,NaN,NaN,1,NaN,3.361326e-01,NaN,0,0,3,1
4,125,1,4,NaN,NaN,1,NaN,3.807775e-01,NaN,2,1,1,1
4,126,1,100,NaN,NaN,2,NaN,2.039902e+00,NaN,0,0,3,1
4,127,1,108,NaN,NaN,1,NaN,6.007581e-01,NaN,0,1,3,1
4,128,1,50,NaN,NaN,1,NaN,2.989352e-01,NaN,2,0,2,1
4,129,1,28,NaN,NaN,2,NaN,3.373907e-01,NaN,1,0,1,1
4,130,1,134,NaN,NaN,1,NaN,3.418882e-01,NaN,0,0,3,1
4,131,1,90,NaN,NaN,1,NaN,1.026556e+00,NaN,0,1,2,1
4,132,1,27,NaN,NaN,1,NaN,1.172730e+00,NaN,0,0,1,1
4,133,1,12,NaN,NaN,1,NaN,3.512839e-01,NaN,2,1,1,1
4,134,1,31,NaN,NaN,1,NaN,3.314431e-01,NaN,2,0,1,1
4,135,1,103,NaN,NaN,1,NaN,2.726487e-01,NaN,2,0,3,1
4,136,1,17,NaN,NaN,1,NaN,6.319527e-01,NaN,0,1,1,1
4,137,1,9,NaN,NaN,1,NaN,3.214875e-01,NaN,2,0,1,1
4,138,1,110,NaN,NaN,1,NaN,1.582481e+00,NaN,0,0,3,1
4,139,1,73,NaN,NaN,1,NaN,3.376261e-01,NaN,1,0,2,1
4,140,1,29,NaN,NaN,1,NaN,9.980724e-01,NaN,1,0,1,1
4,141,1,2,NaN,NaN,1,NaN,6.403673e-01,NaN,0,0,1,1
4,142,1,104,NaN,NaN,1,NaN,3.293657e-01,NaN,2,1,3,1
4,143,1,70,NaN,NaN,1,NaN,2.783165e-01,NaN,0,0,2,1
4,144,1,93,NaN,NaN,1,NaN,2.933416e-01,NaN,1,0,2,1
4,145,1,94,NaN,NaN,1,NaN,4.358664e-01,NaN,1,1,2,1
4,146,1,121,NaN,NaN,2,NaN,7.091314e-01,NaN,0,1,3,1
4,147,1,77,NaN,NaN,1,NaN,2.747658e-01,NaN,0,0,2,1
4,148,1,123,NaN,NaN,2,NaN,5.303142e-01,NaN,2,0,3,1
4,149,1,137,NaN,NaN,1,NaN,4.631843e-01,NaN,1,0,3,1
4,150,1,23,NaN,NaN,1,NaN,1.182816e+00,NaN,0,0,1,1
4,151,1,81,NaN,NaN,1,NaN,9.777933e-01,NaN,0,0,2,1
4,152,1,62,NaN,NaN,1,NaN,6.856029e-01,NaN,2,1,2,1
4,153,1,138,NaN,NaN,1,NaN,4.524964e-01,NaN,1,1,3,1
4,154,1,61,NaN,NaN,1,NaN,1.028469e+00,NaN,2,0,2,1
4,155,1,125,NaN,NaN,1,NaN,5.733747e-01,NaN,0,0,3,1
4,156,1,51,NaN,NaN,1,NaN,2.570570e-01,NaN,0,1,2,1
4,157,1,54,NaN,NaN,1,NaN,6.011010e-01,NaN,0,1,2,1
4,158,1,75,NaN,NaN,1,NaN,7.873350e-01,NaN,1,1,2,1
4,159,1,59,NaN,NaN,1,NaN,3.178922e-01,NaN,0,0,2,1
4,160,1,53,NaN,NaN,1,NaN,2.837703e-01,NaN,0,0,2,1
4,161,1,94,NaN,NaN,1,NaN,3.065662e-01,NaN,0,1,2,1
4,162,1,142,NaN,NaN,1,NaN,7.528412e-01,NaN,0,0,3,1
4,163,1,30,NaN,NaN,1,NaN,6.533894e-01,NaN,0,0,1,1
4,164,1,99,NaN,NaN,2,NaN,7.730935e-01,NaN,1,0,3,1
4,165,1,120,NaN,NaN,2,NaN,6.805427e-01,NaN,1,1,3,1
4,166,1,47,NaN,NaN,1,NaN,3.837954e-01,NaN,0,0,1,1
4,167,1,136,NaN,NaN,1,NaN,4.664805e-01,NaN,0,0,3,1
4,168,1,34,NaN,NaN,1,NaN,3.782903e-01,NaN,2,0,1,1
4,169,1,96,NaN,NaN,1,NaN,4.133479e-01,NaN,1,1,2,1
4,170,1,105,NaN,NaN,2,NaN,8.628931e-01,NaN,0,0,3,1
4,171,1,1,NaN,NaN,1,NaN,8.948815e-01,NaN,0,0,1,1
4,172,1,46,NaN,NaN,2,NaN,5.650398e-01,NaN,0,0,1,1
4,173,1,118,NaN,NaN,1,NaN,1.528413e+00,NaN,2,0,3,1
4,174,1,3,NaN,NaN,2,NaN,5.815216e-01,NaN,0,0,1,1
4,175,1,113,NaN,NaN,1,NaN,5.127086e-01,NaN,1,0,3,1
4,176,1,58,NaN,NaN,1,NaN,3.824383e-01,NaN,2,0,2,1
4,177,1,126,NaN,NaN,2,NaN,7.612963e-01,NaN,0,0,3,1
4,178,1,140,NaN,NaN,1,NaN,2.852207e-01,NaN,0,0,3,1
4,179,1,30,NaN,NaN,1,NaN,3.881022e-01,NaN,1,0,1,1
4,180,1,121,NaN,NaN,1,NaN,3.589001e-01,NaN,2,1,3,1
4,181,1,132,NaN,NaN,1,NaN,6.830140e-01,NaN,0,0,3,1
4,182,1,128,NaN,NaN,1,NaN,1.017529e+00,NaN,1,0,3,1
4,183,1,10,NaN,NaN,1,NaN,3.473239e-01,NaN,0,1,1,1
4,184,1,134,NaN,NaN,1,NaN,3.197872e-01,NaN,1,0,3,1
4,185,1,31,NaN,NaN,1,NaN,4.210722e-01,NaN,0,0,1,1
4,186,1,1,NaN,NaN,1,NaN,6.303287e-01,NaN,1,0,1,1
4,187,1,109,NaN,NaN,1,NaN,5.196221e-01,NaN,1,0,3,1
4,188,1,101,NaN,NaN,2,NaN,7.250141e-01,NaN,2,1,3,1
4,189,1,54,NaN,NaN,1,NaN,5.543583e-01,NaN,2,1,2,1
4,190,1,73,NaN,NaN,1,NaN,5.181769e-01,NaN,0,0,2,1
4,191,1,57,NaN,NaN,1,NaN,5.081292e-01,NaN,0,0,2,1
4,192,1,97,NaN,NaN,2,NaN,3.777753e-01,NaN,0,0,3,1
4,193,1,97,NaN,NaN,2,NaN,6.135544e-01,NaN,1,0,3,1
4,194,1,49,NaN,NaN,1,NaN,3.189526e-01,NaN,0,0,2,1
4,195,1,84,NaN,NaN,1,NaN,4.125775e-01,NaN,0,0,2,1
4,196,1,21,NaN,NaN,1,NaN,4.386129e-01,NaN,0,0,1,1
4,197,1,55,NaN,NaN,1,NaN,3.672411e-01,NaN,0,0,2,1
4,198,1,81,NaN,NaN,1,NaN,3.867695e-01,NaN,1,0,2,1
4,199,1,139,NaN,NaN,1,NaN,4.455147e-01,NaN,2,0,3,1
4,200,1,114,NaN,NaN,1,NaN,9.502019e-01,NaN,0,0,3,1
4,201,1,13,NaN,NaN,1,NaN,3.065559e-01,NaN,1,0,1,1
4,202,1,37,NaN,NaN,1,NaN,5.924739e-01,NaN,1,0,1,1
4,203,1,63,NaN,NaN,1,NaN,3.551128e-01,NaN,0,0,2,1
4,204,1,69,NaN,NaN,1,NaN,3.589910e-01,NaN,2,0,2,1
4,205,1,26,NaN,NaN,1,NaN,3.634523e-01,NaN,2,1,1,1
4,206,1,86,NaN,NaN,1,NaN,3.268064e-01,NaN,0,1,2,1
4,207,1,29,NaN,NaN,1,NaN,7.724801e-01,NaN,0,0,1,1
4,208,1,25,NaN,NaN,1,NaN,7.995378e-01,NaN,2,0,1,1
4,209,1,38,NaN,NaN,1,NaN,6.980922e-01,NaN,2,0,1,1
4,210,1,111,NaN,NaN,1,NaN,9.204351e-01,NaN,0,0,3,1
4,211,1,22,NaN,NaN,1,NaN,6.533972e-01,NaN,0,0,1,1
4,212,1,59,NaN,NaN,1,NaN,2.535383e-01,NaN,2,0,2,1
4,213,1,64,NaN,NaN,1,NaN,4.294204e-01,NaN,1,0,2,1
4,214,1,50,NaN,NaN,1,NaN,5.668074e-01,NaN,0,0,2,1
4,215,1,125,NaN,NaN,1,NaN,1.243616e-04,NaN,2,0,3,1
4,216,1,41,NaN,NaN,1,NaN,4.048608e-01,NaN,0,0,1,1
4,217,1,129,NaN,NaN,2,NaN,5.348760e-01,NaN,0,0,3,1
4,218,1,67,NaN,NaN,1,NaN,2.915553e-01,NaN,0,1,2,1
4,219,1,7,NaN,NaN,1,NaN,3.227773e-01,NaN,1,0,1,1
4,220,1,38,NaN,NaN,1,NaN,5.119863e-01,NaN,0,0,1,1
4,221,1,123,NaN,NaN,1,NaN,9.734600e-01,NaN,0,0,3,1
4,222,1,120,NaN,NaN,1,NaN,3.207763e-01,NaN,0,1,3,1
4,223,1,124,NaN,NaN,1,NaN,2.703118e-01,NaN,2,1,3,1
4,224,1,106,NaN,NaN,1,NaN,4.377593e-01,NaN,1,1,3,1
4,225,1,74,NaN,NaN,1,NaN,3.025960e-01,NaN,0,1,2,1
4,226,1,114,NaN,NaN,1,NaN,2.611006e-01,NaN,1,0,3,1
4,227,1,95,NaN,NaN,1,NaN,3.009760e-01,NaN,0,0,2,1
4,228,1,68,NaN,NaN,1,NaN,3.713420e-01,NaN,0,0,2,1
4,229,1,26,NaN,NaN,1,NaN,3.825886e-01,NaN,0,1,1,1
4,230,1,139,NaN,NaN,1,NaN,3.536332e-01,NaN,0,0,3,1
4,231,1,61,NaN,NaN,1,NaN,2.777771e-01,NaN,0,0,2,1
4,232,1,98,NaN,NaN,1,NaN,3.332765e-01,NaN,0,1,3,1
4,233,1,36,NaN,NaN,1,NaN,3.863321e-01,NaN,0,0,1,1
4,234,1,91,NaN,NaN,1,NaN,2.689471e-01,NaN,1,0,2,1
4,235,1,36,NaN,NaN,1,NaN,2.286805e-01,NaN,1,0,1,1
4,236,1,74,NaN,NaN,1,NaN,2.376602e-01,NaN,1,1,2,1
4,237,1,42,NaN,NaN,1,NaN,2.705219e-01,NaN,0,0,1,1
4,238,1,83,NaN,NaN,1,NaN,7.334595e-01,NaN,1,0,2,1
4,239,1,44,NaN,NaN,1,NaN,2.748431e-01,NaN,2,0,1,1
4,240,1,128,NaN,NaN,2,NaN,3.220260e-01,NaN,0,0,3,1
4,241,1,90,NaN,NaN,1,NaN,4.313930e-01,NaN,1,1,2,1
4,242,1,101,NaN,NaN,1,NaN,1.605056e-01,NaN,0,1,3,1
4,243,1,42,NaN,NaN,1,NaN,4.284460e-01,NaN,2,0,1,1
4,244,1,86,NaN,NaN,1,NaN,1.014616e-01,NaN,1,1,2,1
4,245,1,117,NaN,NaN,2,NaN,1.043828e+00,NaN,2,0,3,1
4,246,1,118,NaN,NaN,1,NaN,3.406567e-01,NaN,0,0,3,1
4,247,1,28,NaN,NaN,1,NaN,3.054128e-01,NaN,0,0,1,1
4,248,1,15,NaN,NaN,2,NaN,3.437367e-01,NaN,0,0,1,1
4,249,1,15,NaN,NaN,1,NaN,2.442351e-01,NaN,2,0,1,1
4,250,1,27,NaN,NaN,1,NaN,3.486370e-01,NaN,1,0,1,1
4,251,1,107,NaN,NaN,1,NaN,2.487030e-01,NaN,1,0,3,1
4,252,1,76,NaN,NaN,1,NaN,3.053537e-01,NaN,2,0,2,1
4,253,1,119,NaN,NaN,1,NaN,4.231960e-01,NaN,0,0,3,1
4,254,1,64,NaN,NaN,1,NaN,5.286332e-01,NaN,0,0,2,1
4,255,1,126,NaN,NaN,2,NaN,8.935169e-01,NaN,1,0,3,1
4,256,1,67,NaN,NaN,1,NaN,2.605968e-01,NaN,1,1,2,1
4,257,1,66,NaN,NaN,1,NaN,3.562088e-01,NaN,1,1,2,1
4,258,1,88,NaN,NaN,1,NaN,1.760218e+00,NaN,0,0,2,1
4,259,1,87,NaN,NaN,1,NaN,6.043387e-01,NaN,0,0,2,1
4,260,1,104,NaN,NaN,1,NaN,5.583061e-01,NaN,0,1,3,1
4,261,1,93,NaN,NaN,1,NaN,5.467082e-01,NaN,0,0,2,1
4,262,1,102,NaN,NaN,2,NaN,5.188919e-01,NaN,0,1,3,1
4,263,1,82,NaN,NaN,1,NaN,6.122027e-01,NaN,0,0,2,1
4,264,1,135,NaN,NaN,1,NaN,3.180066e-01,NaN,2,0,3,1
4,265,1,111,NaN,NaN,1,NaN,4.996545e-01,NaN,1,0,3,1
4,266,1,70,NaN,NaN,1,NaN,2.660020e-01,NaN,2,0,2,1
4,267,1,133,NaN,NaN,1,NaN,6.667652e-01,NaN,2,0,3,1
4,268,1,95,NaN,NaN,1,NaN,4.818696e-01,NaN,1,0,2,1
4,269,1,85,NaN,NaN,1,NaN,4.248655e-01,NaN,1,1,2,1
4,270,1,46,NaN,NaN,1,NaN,3.702336e-01,NaN,1,0,1,1
4,271,1,76,NaN,NaN,1,NaN,5.896619e-01,NaN,0,0,2,1
4,272,1,7,NaN,NaN,1,NaN,5.040534e-01,NaN,0,0,1,1
4,273,1,5,NaN,NaN,1,NaN,6.298636e-01,NaN,2,0,1,1
4,274,1,137,NaN,NaN,1,NaN,6.391699e-01,NaN,0,0,3,1
4,275,1,63,NaN,NaN,1,NaN,3.117984e-01,NaN,2,0,2,1
4,276,1,68,NaN,NaN,1,NaN,3.334081e-01,NaN,1,0,2,1
4,277,1,79,NaN,NaN,1,NaN,8.985194e-01,NaN,0,0,2,1
4,278,1,57,NaN,NaN,1,NaN,4.807790e-01,NaN,2,0,2,1
4,279,1,141,NaN,NaN,1,NaN,4.397717e-01,NaN,1,0,3,1
4,280,1,24,NaN,NaN,1,NaN,2.725485e-01,NaN,1,1,1,1
4,281,1,88,NaN,NaN,1,NaN,3.360272e-01,NaN,2,0,2,1
4,282,1,47,NaN,NaN,1,NaN,2.928876e-01,NaN,1,0,1,1
4,283,1,78,NaN,NaN,1,NaN,5.318551e-01,NaN,1,0,2,1
4,284,1,116,NaN,NaN,1,NaN,7.367234e-01,NaN,2,0,3,1
4,285,1,82,NaN,NaN,1,NaN,3.577401e-01,NaN,2,0,2,1
4,286,1,65,NaN,NaN,1,NaN,5.695111e-01,NaN,0,0,2,1
4,287,1,71,NaN,NaN,1,NaN,5.334833e-01,NaN,0,0,2,1
4,288,1,17,NaN,NaN,1,NaN,5.465108e-01,NaN,2,1,1,1
4,360,2,11,40,2,2,1,1.998332e+00,NaN,1,0,1,1
4,361,2,32,6,2,2,1,1.876863e+00,NaN,1,0,1,1
4,362,2,94,15,1,1,1,7.998019e-01,NaN,1,1,2,1
4,363,2,6,8,1,1,1,1.132914e+00,NaN,1,0,1,1
4,364,2,89,66,2,2,1,8.857557e-01,NaN,1,0,2,1
4,365,2,7,61,2,2,1,5.998668e-01,NaN,1,0,1,1
4,366,2,73,72,2,2,1,4.215379e-01,NaN,1,0,2,1
4,367,2,29,45,1,1,1,8.903683e-01,NaN,1,0,1,1
4,368,2,138,24,1,1,1,1.948064e+00,NaN,1,1,3,1
4,369,2,99,17,1,1,1,1.043519e+00,NaN,1,0,3,1
4,370,2,24,29,2,2,1,1.687936e+00,NaN,1,1,1,1
4,371,2,52,4,1,1,1,4.896030e-01,NaN,1,0,2,1
4,372,2,77,21,2,2,1,9.877721e-01,NaN,1,0,2,1
4,373,2,112,32,1,1,1,8.653900e-01,NaN,1,1,3,1
4,374,2,130,14,2,2,1,1.732294e+00,NaN,1,0,3,1
4,375,2,27,65,1,2,0,1.796558e+00,NaN,1,0,1,1
4,376,2,36,10,2,2,1,1.434517e+00,NaN,1,0,1,1
4,377,2,109,47,1,1,1,1.086583e+00,NaN,1,0,3,1
4,378,2,144,57,2,2,1,1.560967e+00,NaN,1,0,3,1
4,379,2,107,44,1,1,1,1.415879e+00,NaN,1,0,3,1
4,380,2,141,43,2,2,1,1.741273e+00,NaN,1,0,3,1
4,381,2,96,1,2,2,1,7.013299e-01,NaN,1,1,2,1
4,382,2,18,13,2,2,1,1.430402e+00,NaN,1,0,1,1
4,383,2,115,28,1,1,1,1.379478e+00,NaN,1,0,3,1
4,384,3,89,66,2,2,1,6.629344e-01,NaN,1,0,2,1
4,385,3,73,72,2,2,1,4.418128e-01,NaN,1,0,2,1
4,386,3,11,40,1,1,1,8.055860e-01,NaN,1,0,1,1
4,387,3,94,15,1,1,1,7.391702e-01,NaN,1,1,2,1
4,388,3,109,47,1,1,1,5.550130e-01,NaN,1,0,3,1
4,389,3,144,57,1,2,0,1.090364e+00,NaN,1,0,3,1
4,390,3,32,6,1,1,1,8.211287e-01,NaN,1,0,1,1
4,391,3,130,14,2,2,1,1.641832e+00,NaN,1,0,3,1
4,392,3,18,13,2,2,1,8.786638e-01,NaN,1,0,1,1
4,393,3,96,1,1,1,1,5.602153e-01,NaN,1,1,2,1
4,394,3,99,17,2,2,1,1.543667e+00,NaN,1,0,3,1
4,395,3,52,4,2,2,1,7.679255e-01,NaN,1,0,2,1
4,396,3,7,61,1,1,1,7.345616e-01,NaN,1,0,1,1
4,397,3,24,29,2,2,1,1.295052e+00,NaN,1,1,1,1
4,398,3,112,32,2,2,1,9.528416e-01,NaN,1,1,3,1
4,399,3,36,10,1,1,1,9.209259e-01,NaN,1,0,1,1
4,400,3,77,21,2,2,1,6.734466e-01,NaN,1,0,2,1
4,401,3,6,8,1,1,1,7.319020e-01,NaN,1,0,1,1
4,402,3,141,43,2,2,1,9.084472e-01,NaN,1,0,3,1
4,403,3,115,28,1,1,1,1.502092e+00,NaN,1,0,3,1
4,404,3,27,65,2,1,0,1.183515e+00,NaN,1,0,1,1
4,405,3,138,24,1,1,1,1.118051e+00,NaN,1,1,3,1
4,406,3,107,44,2,2,1,1.207735e+00,NaN,1,0,3,1
4,407,3,29,45,1,1,1,7.572367e-01,NaN,1,0,1,1
4,432,2,13,46,1,1,1,1.732866e+00,NaN,1,0,1,2
4,433,2,128,53,1,1,1,1.501191e+00,NaN,1,0,3,2
4,434,2,86,60,2,1,0,1.158419e+00,NaN,1,1,2,2
4,435,2,80,62,1,1,1,6.460846e-01,NaN,1,1,2,2
4,436,2,137,26,2,2,1,1.137897e+00,NaN,1,0,3,2
4,437,2,66,48,1,1,1,6.421926e-01,NaN,1,1,2,2
4,438,2,140,25,1,1,1,1.661791e+00,NaN,1,0,3,2
4,439,2,97,30,1,1,1,1.081305e+00,NaN,1,0,3,2
4,440,2,113,58,2,2,1,1.355315e+00,NaN,1,0,3,2
4,441,2,83,9,1,1,1,5.783833e-01,NaN,1,0,2,2
4,442,2,106,64,1,1,1,1.529246e+00,NaN,1,1,3,2
4,443,2,95,51,1,1,1,8.334387e-01,NaN,1,0,2,2
4,444,2,43,36,2,2,1,1.037581e+00,NaN,1,1,1,2
4,445,2,78,34,1,1,1,7.697532e-01,NaN,1,0,2,2
4,446,2,23,63,2,2,1,7.770293e-01,NaN,1,0,1,2
4,447,2,110,50,1,1,1,1.199408e+00,NaN,1,0,3,2
4,448,2,2,71,1,1,1,9.327991e-01,NaN,1,0,1,2
4,449,2,93,52,2,2,1,6.852984e-01,NaN,1,0,2,2
4,450,2,81,18,2,2,1,4.800259e-01,NaN,1,0,2,2
4,451,2,53,67,1,1,1,5.222041e-01,NaN,1,0,2,2
4,452,2,75,11,1,1,1,7.148451e-01,NaN,1,1,2,2
4,453,2,91,69,2,2,1,7.242048e-01,NaN,1,0,2,2
4,454,2,28,19,2,2,1,8.292349e-01,NaN,1,0,1,2
4,455,2,19,41,1,1,1,1.065279e+00,NaN,1,1,1,2
4,456,3,81,18,1,1,1,4.314093e-01,NaN,1,0,2,2
4,457,3,86,60,2,2,1,8.359009e-01,NaN,1,1,2,2
4,458,3,93,52,2,2,1,4.482376e-01,NaN,1,0,2,2
4,459,3,2,71,2,2,1,7.001774e-01,NaN,1,0,1,2
4,460,3,23,63,2,2,1,5.580852e-01,NaN,1,0,1,2
4,461,3,97,30,1,1,1,7.495281e-01,NaN,1,0,3,2
4,462,3,66,48,1,1,1,4.053374e-01,NaN,1,1,2,2
4,463,3,75,11,1,1,1,4.430600e-01,NaN,1,1,2,2
4,464,3,106,64,2,2,1,1.166978e+00,NaN,1,1,3,2
4,465,3,128,53,2,2,1,1.102505e+00,NaN,1,0,3,2
4,466,3,53,67,2,2,1,5.758031e-01,NaN,1,0,2,2
4,467,3,137,26,1,1,1,1.055106e+00,NaN,1,0,3,2
4,468,3,110,50,2,2,1,6.664286e-01,NaN,1,0,3,2
4,469,3,43,36,1,1,1,9.977621e-01,NaN,1,1,1,2
4,470,3,19,41,2,2,1,9.154709e-01,NaN,1,1,1,2
4,471,3,83,9,2,2,1,6.120210e-01,NaN,1,0,2,2
4,472,3,80,62,1,1,1,5.615172e-01,NaN,1,1,2,2
4,473,3,91,69,1,1,1,4.247113e-01,NaN,1,0,2,2
4,474,3,95,51,1,1,1,5.734677e-01,NaN,1,0,2,2
4,475,3,78,34,1,1,1,5.564169e-01,NaN,1,0,2,2
4,476,3,13,46,2,2,1,6.596461e-01,NaN,1,0,1,2
4,477,3,113,58,2,2,1,1.159041e+00,NaN,1,0,3,2
4,478,3,28,19,1,1,1,9.744479e-01,NaN,1,0,1,2
4,479,3,140,25,1,1,1,1.165390e+00,NaN,1,0,3,2
4,504,2,90,23,2,2,1,1.455181e+00,NaN,1,1,2,3
4,505,2,64,55,1,1,1,5.945062e-01,NaN,1,0,2,3
4,506,2,40,5,1,1,1,7.845688e-01,NaN,1,0,1,3
4,507,2,21,56,2,2,1,9.584282e-01,NaN,1,0,1,3
4,508,2,74,27,1,1,1,9.898135e-01,NaN,1,1,2,3
4,509,2,1,35,1,1,1,9.491008e-01,NaN,1,0,1,3
4,510,2,136,39,2,2,1,8.437629e-01,NaN,1,0,3,3
4,511,2,56,54,2,2,1,6.150081e-01,NaN,1,0,2,3
4,512,2,85,38,1,1,1,6.924836e-01,NaN,1,1,2,3
4,513,2,47,2,2,2,1,6.141330e-01,NaN,1,0,1,3
4,514,2,39,31,2,2,1,6.196548e-01,NaN,1,0,1,3
4,515,2,68,33,2,2,1,4.166021e-01,NaN,1,0,2,3
4,516,2,46,7,1,1,1,1.221561e+00,NaN,1,0,1,3
4,517,2,114,16,1,2,0,7.701468e-01,NaN,1,0,3,3
4,518,2,111,68,1,2,0,1.184569e+00,NaN,1,0,3,3
4,519,2,48,70,2,2,1,9.430538e-01,NaN,1,0,1,3
4,520,2,30,42,1,1,1,2.094680e+00,NaN,1,0,1,3
4,521,2,129,12,2,2,1,8.569162e-01,NaN,1,0,3,3
4,522,2,102,20,2,2,1,9.641941e-01,NaN,1,1,3,3
4,523,2,134,22,2,2,1,7.547546e-01,NaN,1,0,3,3
4,524,2,120,59,2,2,1,1.970700e+00,NaN,1,1,3,3
4,525,2,67,3,2,2,1,7.292204e-01,NaN,1,1,2,3
4,526,2,37,37,1,2,0,1.609510e+00,NaN,1,0,1,3
4,527,2,126,49,2,2,1,1.390300e+00,NaN,1,0,3,3
4,528,3,40,5,1,1,1,6.363249e-01,NaN,1,0,1,3
4,529,3,21,56,2,2,1,4.407690e-01,NaN,1,0,1,3
4,530,3,67,3,1,1,1,6.366974e-01,NaN,1,1,2,3
4,531,3,126,49,1,2,0,1.097088e+00,NaN,1,0,3,3
4,532,3,136,39,2,2,1,5.309810e-01,NaN,1,0,3,3
4,533,3,129,12,2,1,0,1.458654e+00,NaN,1,0,3,3
4,534,3,102,20,2,2,1,6.143000e-01,NaN,1,1,3,3
4,535,3,56,54,2,2,1,9.313397e-01,NaN,1,0,2,3
4,536,3,68,33,1,1,1,4.915478e-01,NaN,1,0,2,3
4,537,3,74,27,2,2,1,6.533809e-01,NaN,1,1,2,3
4,538,3,114,16,2,2,1,7.367020e-01,NaN,1,0,3,3
4,539,3,1,35,2,2,1,9.207696e-01,NaN,1,0,1,3
4,540,3,37,37,1,1,1,8.573403e-01,NaN,1,0,1,3
4,541,3,48,70,2,2,1,8.767619e-01,NaN,1,0,1,3
4,542,3,120,59,1,1,1,1.431712e+00,NaN,1,1,3,3
4,543,3,47,2,2,2,1,7.395626e-01,NaN,1,0,1,3
4,544,3,111,68,1,2,0,9.241213e-01,NaN,1,0,3,3
4,545,3,64,55,2,2,1,4.600396e-01,NaN,1,0,2,3
4,546,3,46,7,1,2,0,1.031580e+00,NaN,1,0,1,3
4,547,3,134,22,1,1,1,1.267857e+00,NaN,1,0,3,3
4,548,3,39,31,2,2,1,6.466418e-01,NaN,1,0,1,3
4,549,3,90,23,2,2,1,7.784054e-01,NaN,1,1,2,3
4,550,3,30,42,1,1,1,6.010600e-01,NaN,1,0,1,3
4,551,3,85,38,1,2,0,8.463754e-01,NaN,1,1,2,3
4,576,4,26,24,2,2,1,9.128128e-01,NaN,2,1,1,1
4,577,4,58,26,2,2,1,6.982272e-01,NaN,2,0,2,1
4,578,4,44,49,2,2,1,6.757141e-01,NaN,2,0,1,1
4,579,4,34,44,1,2,0,7.744605e-01,NaN,2,0,1,1
4,580,4,20,3,2,2,1,6.448920e-01,NaN,2,1,1,1
4,581,4,16,9,1,2,0,9.206014e-01,NaN,2,0,1,1
4,582,4,4,60,1,2,0,1.305496e+00,NaN,2,1,1,1
4,583,4,139,31,1,1,1,1.226260e+00,NaN,2,0,3,1
4,584,4,33,58,2,2,1,8.791166e-01,NaN,2,0,1,1
4,585,4,132,8,1,1,1,1.465246e+00,NaN,2,0,3,1
4,586,4,3,55,2,2,1,1.980204e+00,NaN,2,0,1,1
4,587,4,57,28,2,2,1,5.944480e-01,NaN,2,0,2,1
4,588,4,25,53,2,1,0,7.604116e-01,NaN,2,0,1,1
4,589,4,142,7,1,1,1,1.024097e+00,NaN,2,0,3,1
4,590,4,117,67,2,2,1,1.580726e+00,NaN,2,0,3,1
4,591,4,118,69,2,2,1,4.666057e-01,NaN,2,0,3,1
4,592,4,42,12,2,2,1,7.816315e-01,NaN,2,0,1,1
4,593,4,79,5,1,2,0,7.640105e-01,NaN,2,0,2,1
4,594,4,131,65,2,2,1,7.468547e-01,NaN,2,0,3,1
4,595,4,143,70,2,2,1,7.391799e-01,NaN,2,0,3,1
4,596,4,87,35,2,2,1,6.351556e-01,NaN,2,0,2,1
4,597,4,54,32,1,1,1,6.791192e-01,NaN,2,1,2,1
4,598,4,59,25,2,2,1,4.657615e-01,NaN,2,0,2,1
4,599,4,69,61,2,2,1,7.328353e-01,NaN,2,0,2,1
4,624,4,108,62,2,2,1,8.028766e-01,NaN,2,1,3,2
4,625,4,8,18,2,2,1,6.564761e-01,NaN,2,0,1,2
4,626,4,135,6,1,1,1,1.011531e+00,NaN,2,0,3,2
4,627,4,45,30,2,2,1,6.408554e-01,NaN,2,0,1,2
4,628,4,133,37,2,2,1,1.172955e+00,NaN,2,0,3,2
4,629,4,122,63,2,2,1,1.371328e+00,NaN,2,0,3,2
4,630,4,62,64,2,1,0,1.185979e+00,NaN,2,1,2,2
4,631,4,15,54,1,2,0,8.642297e-01,NaN,2,0,1,2
4,632,4,51,20,1,1,1,6.674102e-01,NaN,2,1,2,2
4,633,4,41,68,2,2,1,1.574199e+00,NaN,2,0,1,2
4,634,4,14,21,2,2,1,6.612350e-01,NaN,2,0,1,2
4,635,4,35,59,1,2,0,1.072099e+00,NaN,2,1,1,2
4,636,4,103,52,1,1,1,8.991629e-01,NaN,2,0,3,2
4,637,4,61,17,1,1,1,6.134349e-01,NaN,2,0,2,2
4,638,4,65,19,1,1,1,8.577496e-01,NaN,2,0,2,2
4,639,4,105,72,1,2,0,1.388716e+00,NaN,2,0,3,2
4,640,4,70,10,2,2,1,5.385725e-01,NaN,2,0,2,2
4,641,4,17,15,2,2,1,1.778527e+00,NaN,2,1,1,2
4,642,4,49,22,1,2,0,8.887929e-01,NaN,2,0,2,2
4,643,4,31,39,1,2,0,1.123230e+00,NaN,2,0,1,2
4,644,4,98,48,1,1,1,9.400293e-01,NaN,2,1,3,2
4,645,4,88,46,2,2,1,9.718674e-01,NaN,2,0,2,2
4,646,4,101,11,2,2,1,1.450943e+00,NaN,2,1,3,2
4,647,4,9,4,1,2,0,1.150689e+00,NaN,2,0,1,2
4,672,4,38,47,1,1,1,1.187577e+00,NaN,2,0,1,3
4,673,4,82,42,2,2,1,6.737753e-01,NaN,2,0,2,3
4,674,4,127,29,1,1,1,1.548822e+00,NaN,2,1,3,3
4,675,4,123,56,1,1,1,1.252668e+00,NaN,2,0,3,3
4,676,4,12,23,1,1,1,8.798151e-01,NaN,2,1,1,3
4,677,4,22,16,2,2,1,8.904099e-01,NaN,2,0,1,3
4,678,4,119,66,2,2,1,1.628507e+00,NaN,2,0,3,3
4,679,4,100,51,2,2,1,8.172020e-01,NaN,2,0,3,3
4,680,4,125,71,1,1,1,1.238135e+00,NaN,2,0,3,3
4,681,4,5,34,2,2,1,6.740086e-01,NaN,2,0,1,3
4,682,4,60,50,2,2,1,5.244979e-01,NaN,2,0,2,3
4,683,4,50,43,1,1,1,7.812488e-01,NaN,2,0,2,3
4,684,4,55,57,2,2,1,4.998000e-01,NaN,2,0,2,3
4,685,4,104,1,1,1,1,1.325409e+00,NaN,2,1,3,3
4,686,4,116,33,2,2,1,1.229875e+00,NaN,2,0,3,3
4,687,4,84,45,2,2,1,1.178349e+00,NaN,2,0,2,3
4,688,4,71,2,1,1,1,7.525949e-01,NaN,2,0,2,3
4,689,4,76,40,2,2,1,5.040965e-01,NaN,2,0,2,3
4,690,4,121,27,2,2,1,1.041861e+00,NaN,2,1,3,3
4,691,4,92,13,1,1,1,6.535810e-01,NaN,2,0,2,3
4,692,4,124,36,1,1,1,1.016663e+00,NaN,2,1,3,3
4,693,4,10,38,1,1,1,7.338715e-01,NaN,2,1,1,3
4,694,4,72,41,2,1,0,6.301075e-01,NaN,2,1,2,3
4,695,4,63,14,2,2,1,7.305428e-01,NaN,2,0,2,3
4,696,5,1.114100e+02,68,3,3,1,1.412213e+00,1,1,0,3.100000e+00,1
4,697,5,1.445500e+02,57,3,3,1,8.874416e-01,1,1,0,3.200000e+00,1
4,698,5,4.039000e+01,31,1,1,1,4.010536e-01,1,1,0,1.300000e+00,1
4,699,5,2.865000e+01,19,1,1,1,1.627274e+00,1,1,0,1.200000e+00,1
4,700,5,7.405000e+01,72,2,2,1,3.017774e-01,1,1,0,2.300000e+00,1
4,701,5,1.176000e+01,40,1,1,1,3.276706e-01,1,1,0,1.200000e+00,1
4,702,5,4.079000e+01,5,1,1,1,3.773020e-01,1,1,0,1.200000e+00,1
4,703,5,7.405000e+01,72,2,2,1,2.916310e-01,2,1,0,2.300000e+00,1
4,704,5,1.388000e+01,46,1,1,1,3.174738e-01,1,1,0,1.200000e+00,1
4,705,5,1.892000e+01,13,1,1,1,5.516362e-01,1,1,0,1.200000e+00,1
4,706,5,3.082000e+01,42,1,1,1,7.533184e-01,1,1,0,1.200000e+00,1
4,707,5,4.039000e+01,31,1,1,1,5.069306e-01,2,1,0,1.300000e+00,1
4,708,5,1.282500e+02,53,3,1,0,3.087365e-01,1,1,0,3.100000e+00,1
4,709,5,7.320000e+00,8,1,2,0,3.747103e-01,1,1,0,1.300000e+00,1
4,710,5,9.745000e+01,30,3,1,0,3.526691e-01,1,1,0,3.100000e+00,1
4,711,5,2.422000e+01,63,1,1,1,4.424325e-01,1,1,0,1.300000e+00,1
4,712,5,9.745000e+01,30,3,3,1,4.846931e-01,2,1,0,3.100000e+00,1
4,713,5,2.223000e+01,56,1,0,0,2.500393e+00,1,1,0,1.300000e+00,1
4,714,5,5.417000e+01,67,2,2,1,3.448729e-01,1,1,0,2.300000e+00,1
4,715,5,3.670000e+01,10,1,1,1,4.586949e-01,1,1,0,1.200000e+00,1
4,716,5,2.984000e+01,45,1,1,1,3.325270e-01,1,1,0,1.200000e+00,1
4,717,5,1.073400e+02,44,3,3,1,8.864968e-01,1,1,0,3.100000e+00,1
4,718,5,8.316000e+01,9,2,2,1,1.720225e+00,1,1,0,2.100000e+00,1
4,719,5,3.335000e+01,6,1,4,0,4.585738e-01,1,1,0,1.300000e+00,1
4,720,5,7.714000e+01,21,2,2,1,3.242361e-01,1,1,0,2.100000e+00,1
4,721,5,1.892000e+01,13,1,1,1,4.699291e-01,2,1,0,1.200000e+00,1
4,722,5,1.294200e+02,12,3,3,1,2.957890e-01,1,1,0,3.100000e+00,1
4,723,5,1.405900e+02,25,3,3,1,5.374022e-01,1,1,0,3.200000e+00,1
4,724,5,1.294200e+02,12,3,3,1,3.312677e-01,2,1,0,3.100000e+00,1
4,725,5,9.019000e+01,66,2,2,1,3.806489e-01,1,1,0,2.300000e+00,1
4,726,5,3.833000e+01,37,1,4,0,4.307784e-01,1,1,0,1.300000e+00,1
4,727,5,96,51,2,2,1,3.041762e-01,1,1,0,2.300000e+00,1
4,728,5,3.082000e+01,42,1,1,1,6.017681e-01,2,1,0,1.200000e+00,1
4,729,5,4.771000e+01,2,1,1,1,3.320205e-01,1,1,0,1.200000e+00,1
4,730,5,96,51,2,2,1,2.856626e-01,2,1,0,2.300000e+00,1
4,731,5,4.742000e+01,7,1,4,0,3.354706e-01,1,1,0,1.300000e+00,1
4,732,5,6.916000e+01,33,2,2,1,4.654321e-01,1,1,0,2.300000e+00,1
4,733,5,1.264400e+02,49,3,1,0,9.391425e-01,1,1,0,3.100000e+00,1
4,734,5,3.335000e+01,6,1,1,1,6.771949e-01,2,1,0,1.300000e+00,1
4,735,5,1.133300e+02,58,3,3,1,2.868126e-01,1,1,0,3.100000e+00,1
4,736,5,3.335000e+01,6,1,1,1,3.287159e-01,3,1,0,1.300000e+00,1
4,737,5,7.805000e+01,34,2,2,1,3.705699e-01,1,1,0,2.100000e+00,1
4,738,5,1.264400e+02,49,3,3,1,2.758691e-01,2,1,0,3.100000e+00,1
4,739,5,9.403000e+01,52,2,2,1,6.220535e-01,1,1,0,2.300000e+00,1
4,740,5,2.422000e+01,63,1,1,1,4.717607e-01,2,1,0,1.300000e+00,1
4,741,5,5.615000e+01,54,2,2,1,3.133409e-01,1,1,0,2.100000e+00,1
4,742,5,1.294200e+02,12,3,3,1,3.307814e-01,3,1,0,3.100000e+00,1
4,743,5,96,51,2,2,1,3.170630e-01,3,1,0,2.300000e+00,1
4,744,5,1.892000e+01,13,1,1,1,4.226934e-01,3,1,0,1.200000e+00,1
4,745,5,1.405900e+02,25,3,3,1,3.361981e-01,2,1,0,3.200000e+00,1
4,746,5,4.742000e+01,7,1,1,1,3.941271e-01,2,1,0,1.300000e+00,1
4,747,5,1.282500e+02,53,3,1,0,4.280195e-01,2,1,0,3.100000e+00,1
4,748,5,9.019000e+01,66,2,2,1,7.975402e-01,2,1,0,2.300000e+00,1
4,749,5,1.093800e+02,47,3,1,0,1.127223e+00,1,1,0,3.100000e+00,1
4,750,5,1.073400e+02,44,3,3,1,1.345111e+00,2,1,0,3.100000e+00,1
4,751,5,1.344900e+02,22,3,3,1,3.706798e-01,1,1,0,3.200000e+00,1
4,752,5,1.870000e+00,35,1,2,0,4.603711e-01,1,1,0,1.200000e+00,1
4,753,5,5.209000e+01,4,2,2,1,3.741148e-01,1,1,0,2.100000e+00,1
4,754,5,3.082000e+01,42,1,1,1,3.917877e-01,3,1,0,1.200000e+00,1
4,755,5,7.690000e+00,61,1,1,1,4.421412e-01,1,1,0,1.200000e+00,1
4,756,5,2.831000e+01,65,1,1,1,3.399015e-01,1,1,0,1.300000e+00,1
4,757,5,1.445500e+02,57,3,3,1,3.337688e-01,2,1,0,3.200000e+00,1
4,758,5,1.445500e+02,57,3,3,1,4.955962e-01,3,1,0,3.200000e+00,1
4,759,5,2.831000e+01,65,1,1,1,4.334775e-01,2,1,0,1.300000e+00,1
4,760,5,1.093800e+02,47,3,3,1,1.371484e+00,2,1,0,3.100000e+00,1
4,761,5,2.422000e+01,63,1,1,1,3.650473e-01,3,1,0,1.300000e+00,1
4,762,5,2.984000e+01,45,1,0,0,2.500544e+00,2,1,0,1.200000e+00,1
4,763,5,1.306300e+02,14,3,3,1,3.368383e-01,1,1,0,3.200000e+00,1
4,764,5,9.403000e+01,52,2,2,1,2.428710e-01,2,1,0,2.300000e+00,1
4,765,5,6.403000e+01,55,2,2,1,3.890035e-01,1,1,0,2.100000e+00,1
4,766,5,9.218000e+01,69,2,2,1,4.545230e-01,1,1,0,2.300000e+00,1
4,767,5,3.833000e+01,37,1,1,1,3.120734e-01,2,1,0,1.300000e+00,1
4,768,5,1.363100e+02,39,3,2,0,1.393713e+00,1,1,0,3.100000e+00,1
4,769,5,2.422000e+01,63,1,1,1,4.920476e-01,4,1,0,1.300000e+00,1
4,770,5,2.865000e+01,19,1,1,1,3.416024e-01,2,1,0,1.200000e+00,1
4,771,5,3.250000e+00,71,1,1,1,2.798786e-01,1,1,0,1.300000e+00,1
4,772,5,1.264400e+02,49,3,3,1,3.697027e-01,3,1,0,3.100000e+00,1
4,773,5,1.294200e+02,12,3,3,1,3.870203e-01,4,1,0,3.100000e+00,1
4,774,5,8.108000e+01,18,2,1,0,3.246841e-01,1,1,0,2.100000e+00,1
4,775,5,1.870000e+00,35,1,1,1,3.582252e-01,2,1,0,1.200000e+00,1
4,776,5,1.415000e+02,43,3,3,1,3.842358e-01,1,1,0,3.200000e+00,1
4,777,5,1.870000e+00,35,1,1,1,3.384136e-01,3,1,0,1.200000e+00,1
4,778,5,2.984000e+01,45,1,1,1,3.002787e-01,3,1,0,1.200000e+00,1
4,779,5,1.344900e+02,22,3,3,1,3.021797e-01,2,1,0,3.200000e+00,1
4,780,5,9.218000e+01,69,2,2,1,5.763503e-01,2,1,0,2.300000e+00,1
4,781,5,5.209000e+01,4,2,2,1,4.261058e-01,2,1,0,2.100000e+00,1
4,782,5,9.745000e+01,30,3,3,1,3.082348e-01,3,1,0,3.100000e+00,1
4,783,5,8.316000e+01,9,2,2,1,2.542106e-01,2,1,0,2.100000e+00,1
4,784,5,7.714000e+01,21,2,2,1,3.919242e-01,2,1,0,2.100000e+00,1
4,785,5,7.320000e+00,8,1,1,1,2.978370e-01,2,1,0,1.300000e+00,1
4,786,5,4.943000e+01,70,1,1,1,3.794228e-01,1,1,0,1.300000e+00,1
4,787,5,1.306300e+02,14,3,3,1,2.853819e-01,2,1,0,3.200000e+00,1
4,788,5,9.218000e+01,69,2,2,1,3.270309e-01,3,1,0,2.300000e+00,1
4,789,5,1.870000e+00,35,1,1,1,1.297557e+00,4,1,0,1.200000e+00,1
4,790,5,3.670000e+01,10,1,1,1,6.509619e-01,2,1,0,1.200000e+00,1
4,791,5,6.403000e+01,55,2,2,1,3.167916e-01,2,1,0,2.100000e+00,1
4,792,5,3.670000e+01,10,1,1,1,1.150986e+00,3,1,0,1.200000e+00,1
4,793,5,7.714000e+01,21,2,2,1,3.856599e-01,3,1,0,2.100000e+00,1
4,794,5,1.415000e+02,43,3,3,1,4.672064e-01,2,1,0,3.200000e+00,1
4,795,5,9.403000e+01,52,2,2,1,2.609010e-01,3,1,0,2.300000e+00,1
4,796,5,6.916000e+01,33,2,2,1,4.551219e-01,2,1,0,2.300000e+00,1
4,797,5,1.405900e+02,25,3,3,1,5.767367e-01,3,1,0,3.200000e+00,1
4,798,5,1.282500e+02,53,3,3,1,4.028882e-01,3,1,0,3.100000e+00,1
4,799,5,1.344900e+02,22,3,3,1,3.563863e-01,3,1,0,3.200000e+00,1
4,800,5,4.039000e+01,31,1,1,1,3.664104e-01,3,1,0,1.300000e+00,1
4,801,5,8.108000e+01,18,2,2,1,3.360327e-01,2,1,0,2.100000e+00,1
4,802,5,3.670000e+01,10,1,1,1,5.060078e-01,4,1,0,1.200000e+00,1
4,803,5,8.108000e+01,18,2,2,1,6.595806e-01,3,1,0,2.100000e+00,1
4,804,5,5.417000e+01,67,2,2,1,5.492582e-01,2,1,0,2.300000e+00,1
4,805,5,8.108000e+01,18,2,2,1,7.270911e-01,4,1,0,2.100000e+00,1
4,806,5,9.961000e+01,17,3,3,1,4.651508e-01,1,1,0,3.200000e+00,1
4,807,5,1.133300e+02,58,3,3,1,6.110895e-01,2,1,0,3.100000e+00,1
4,808,5,4.771000e+01,2,1,1,1,5.726871e-01,2,1,0,1.200000e+00,1
4,809,5,7.690000e+00,61,1,1,1,3.981881e-01,2,1,0,1.200000e+00,1
4,810,5,5.615000e+01,54,2,2,1,3.759383e-01,2,1,0,2.100000e+00,1
4,811,5,1.363100e+02,39,3,3,1,3.384161e-01,2,1,0,3.100000e+00,1
4,812,5,1.375800e+02,26,3,3,1,3.315246e-01,1,1,0,3.200000e+00,1
4,813,5,7.320000e+00,8,1,1,1,4.533407e-01,3,1,0,1.300000e+00,1
4,814,5,4.771000e+01,2,1,0,0,2.500301e+00,3,1,0,1.200000e+00,1
4,815,5,3.833000e+01,37,1,1,1,5.133506e-01,3,1,0,1.300000e+00,1
4,816,5,4.079000e+01,5,1,1,1,3.071201e-01,2,1,0,1.200000e+00,1
4,817,5,1.142200e+02,16,3,3,1,6.129812e-01,1,1,0,3.100000e+00,1
4,818,5,3.833000e+01,37,1,1,1,6.783468e-01,4,1,0,1.300000e+00,1
4,819,5,4.943000e+01,70,1,1,1,4.800688e-01,2,1,0,1.300000e+00,1
4,820,5,1.264400e+02,49,3,3,1,5.217100e-01,4,1,0,3.100000e+00,1
4,821,5,1.106000e+02,50,3,2,0,6.994647e-01,1,1,0,3.200000e+00,1
4,822,5,9.218000e+01,69,2,2,1,3.254363e-01,4,1,0,2.300000e+00,1
4,823,5,9.745000e+01,30,3,3,1,3.990813e-01,4,1,0,3.100000e+00,1
4,824,5,6.916000e+01,33,2,2,1,4.091682e-01,3,1,0,2.300000e+00,1
4,825,5,1.106000e+02,50,3,2,0,4.030880e-01,2,1,0,3.200000e+00,1
4,826,5,1.114100e+02,68,3,1,0,7.325175e-01,2,1,0,3.100000e+00,1
4,827,5,1.445500e+02,57,3,3,1,5.746002e-01,4,1,0,3.200000e+00,1
4,828,5,1.375800e+02,26,3,3,1,9.198396e-01,2,1,0,3.200000e+00,1
4,829,5,7.690000e+00,61,1,1,1,4.336182e-01,3,1,0,1.200000e+00,1
4,830,5,5.209000e+01,4,2,2,1,2.599209e-01,3,1,0,2.100000e+00,1
4,831,5,5.417000e+01,67,2,2,1,7.258581e-01,3,1,0,2.300000e+00,1
4,832,5,4.079000e+01,5,1,1,1,5.920250e-01,3,1,0,1.200000e+00,1
4,833,5,6.403000e+01,55,2,2,1,5.217245e-01,3,1,0,2.100000e+00,1
4,834,5,1.176000e+01,40,1,1,1,1.323559e+00,2,1,0,1.200000e+00,1
4,835,5,7.805000e+01,34,2,2,1,3.333936e-01,2,1,0,2.100000e+00,1
4,836,5,7.320000e+00,8,1,1,1,5.828947e-01,4,1,0,1.300000e+00,1
4,837,5,1.155700e+02,28,3,3,1,4.490979e-01,1,1,0,3.200000e+00,1
4,838,5,1.142200e+02,16,3,1,0,3.228440e-01,2,1,0,3.100000e+00,1
4,839,5,5.209000e+01,4,2,2,1,2.920536e-01,4,1,0,2.100000e+00,1
4,840,5,1.388000e+01,46,1,1,1,4.543169e-01,2,1,0,1.200000e+00,1
4,841,5,2.984000e+01,45,1,1,1,4.318575e-01,4,1,0,1.200000e+00,1
4,842,5,8.316000e+01,9,2,1,0,8.738560e-01,3,1,0,2.100000e+00,1
4,843,5,5.417000e+01,67,2,2,1,4.591784e-01,4,1,0,2.300000e+00,1
4,844,5,1.375800e+02,26,3,2,0,1.389061e+00,3,1,0,3.200000e+00,1
4,845,5,7.805000e+01,34,2,2,1,5.589047e-01,3,1,0,2.100000e+00,1
4,846,5,1.073400e+02,44,3,3,1,3.609050e-01,3,1,0,3.100000e+00,1
4,847,5,9.019000e+01,66,2,2,1,2.512084e-01,3,1,0,2.300000e+00,1
4,848,5,1.375800e+02,26,3,3,1,3.810126e-01,4,1,0,3.200000e+00,1
4,849,5,9.961000e+01,17,3,3,1,4.066046e-01,2,1,0,3.200000e+00,1
4,850,5,7.690000e+00,61,1,1,1,3.686528e-01,4,1,0,1.200000e+00,1
4,851,5,9.019000e+01,66,2,2,1,5.784591e-01,4,1,0,2.300000e+00,1
4,852,5,4.079000e+01,5,1,1,1,3.401538e-01,4,1,0,1.200000e+00,1
4,853,5,2.865000e+01,19,1,1,1,3.096200e-01,3,1,0,1.200000e+00,1
4,854,5,3.250000e+00,71,1,1,1,3.196353e-01,2,1,0,1.300000e+00,1
4,855,5,1.415000e+02,43,3,3,1,2.418722e-01,3,1,0,3.200000e+00,1
4,856,5,2.223000e+01,56,1,1,1,8.197979e-01,2,1,0,1.300000e+00,1
4,857,5,1.363100e+02,39,3,3,1,3.250831e-01,3,1,0,3.100000e+00,1
4,858,5,1.282500e+02,53,3,3,1,4.390753e-01,4,1,0,3.100000e+00,1
4,859,5,1.306300e+02,14,3,3,1,5.766283e-01,3,1,0,3.200000e+00,1
4,860,5,1.142200e+02,16,3,3,1,7.309011e-01,3,1,0,3.100000e+00,1
4,861,5,1.155700e+02,28,3,3,1,7.965875e-01,2,1,0,3.200000e+00,1
4,862,5,2.865000e+01,19,1,1,1,7.018898e-01,4,1,0,1.200000e+00,1
4,863,5,4.742000e+01,7,1,1,1,2.879977e-01,3,1,0,1.300000e+00,1
4,864,5,5.615000e+01,54,2,2,1,1.473021e-04,3,1,0,2.100000e+00,1
4,865,5,1.106000e+02,50,3,2,0,4.040029e-01,3,1,0,3.200000e+00,1
4,866,5,4.943000e+01,70,1,1,1,3.973061e-01,3,1,0,1.300000e+00,1
4,867,5,1.133300e+02,58,3,3,1,5.913299e-01,3,1,0,3.100000e+00,1
4,868,5,7.714000e+01,21,2,2,1,7.050849e-01,4,1,0,2.100000e+00,1
4,869,5,3.250000e+00,71,1,0,0,2.500079e+00,3,1,0,1.300000e+00,1
4,870,5,1.093800e+02,47,3,1,0,5.332871e-01,3,1,0,3.100000e+00,1
4,871,5,8.316000e+01,9,2,1,0,1.518671e+00,4,1,0,2.100000e+00,1
4,872,5,1.405900e+02,25,3,3,1,5.049348e-01,4,1,0,3.200000e+00,1
4,873,5,1.388000e+01,46,1,1,1,5.947704e-01,3,1,0,1.200000e+00,1
4,874,5,7.805000e+01,34,2,2,1,2.764444e-01,4,1,0,2.100000e+00,1
4,875,5,1.133300e+02,58,3,3,1,2.704062e-01,4,1,0,3.100000e+00,1
4,876,5,9.961000e+01,17,3,3,1,5.438944e-01,3,1,0,3.200000e+00,1
4,877,5,1.388000e+01,46,1,1,1,5.141544e-01,4,1,0,1.200000e+00,1
4,878,5,1.155700e+02,28,3,3,1,5.476826e-01,3,1,0,3.200000e+00,1
4,879,5,1.176000e+01,40,1,1,1,4.376639e-01,3,1,0,1.200000e+00,1
4,880,5,1.415000e+02,43,3,3,1,7.034905e-01,4,1,0,3.200000e+00,1
4,881,5,96,51,2,2,1,3.617007e-01,4,1,0,2.300000e+00,1
4,882,5,4.771000e+01,2,1,1,1,3.303721e-01,4,1,0,1.200000e+00,1
4,883,5,6.403000e+01,55,2,2,1,3.564467e-01,4,1,0,2.100000e+00,1
4,884,5,1.093800e+02,47,3,3,1,5.020787e-01,4,1,0,3.100000e+00,1
4,885,5,1.363100e+02,39,3,3,1,4.000680e-01,4,1,0,3.100000e+00,1
4,886,5,2.223000e+01,56,1,1,1,5.379522e-01,3,1,0,1.300000e+00,1
4,887,5,9.403000e+01,52,2,2,1,1.430763e-04,4,1,0,2.300000e+00,1
4,888,5,1.073400e+02,44,3,3,1,4.938237e-01,4,1,0,3.100000e+00,1
4,889,5,2.831000e+01,65,1,1,1,6.074085e-01,3,1,0,1.300000e+00,1
4,890,5,1.142200e+02,16,3,3,1,5.055104e-01,4,1,0,3.100000e+00,1
4,891,5,5.615000e+01,54,2,2,1,2.991540e-01,4,1,0,2.100000e+00,1
4,892,5,7.405000e+01,72,2,2,1,4.686822e-01,3,1,0,2.300000e+00,1
4,893,5,9.961000e+01,17,3,3,1,3.349720e-01,4,1,0,3.200000e+00,1
4,894,5,4.039000e+01,31,1,1,1,2.245470e-01,4,1,0,1.300000e+00,1
4,895,5,1.155700e+02,28,3,3,1,2.984700e-01,4,1,0,3.200000e+00,1
4,896,5,1.306300e+02,14,3,3,1,2.843218e-01,4,1,0,3.200000e+00,1
4,897,5,2.831000e+01,65,1,1,1,5.340846e-01,4,1,0,1.300000e+00,1
4,898,5,3.250000e+00,71,1,1,1,3.922097e-01,4,1,0,1.300000e+00,1
4,899,5,6.916000e+01,33,2,2,1,3.542553e-01,4,1,0,2.300000e+00,1
4,900,5,1.344900e+02,22,3,3,1,2.597806e-01,4,1,0,3.200000e+00,1
4,901,5,7.405000e+01,72,2,2,1,4.141384e-01,4,1,0,2.300000e+00,1
4,902,5,4.742000e+01,7,1,1,1,6.873956e-01,4,1,0,1.300000e+00,1
4,903,5,1.176000e+01,40,1,1,1,2.655528e-01,4,1,0,1.200000e+00,1
4,904,5,1.106000e+02,50,3,3,1,2.753623e-01,4,1,0,3.200000e+00,1
4,905,5,1.892000e+01,13,1,1,1,7.968429e-01,4,1,0,1.200000e+00,1
4,906,5,4.943000e+01,70,1,1,1,6.468112e-01,4,1,0,1.300000e+00,1
4,907,5,3.335000e+01,6,1,1,1,3.042272e-01,4,1,0,1.300000e+00,1
4,908,5,3.082000e+01,42,1,1,1,3.463743e-01,4,1,0,1.200000e+00,1
4,909,5,2.223000e+01,56,1,1,1,3.556712e-01,4,1,0,1.300000e+00,1
4,910,5,1.114100e+02,68,3,3,1,3.976756e-01,3,1,0,3.100000e+00,1
4,911,5,1.114100e+02,68,3,3,1,4.232850e-01,4,1,0,3.100000e+00,1
4,912,6,121,27,2,2,1,1.037427e+00,NaN,2,1,3,1
4,913,6,131,65,1,2,0,9.627359e-01,NaN,2,0,3,1
4,914,6,104,1,2,2,1,2.770623e+00,NaN,2,1,3,1
4,915,6,101,11,1,1,1,1.138089e+00,NaN,2,1,3,1
4,916,6,127,29,2,2,1,1.306448e+00,NaN,2,1,3,1
4,917,6,125,71,1,1,1,1.293352e+00,NaN,2,0,3,1
4,918,6,51,20,2,2,1,8.241056e-01,NaN,2,1,2,1
4,919,6,15,54,2,2,1,1.932995e+00,NaN,2,0,1,1
4,920,6,118,69,2,2,1,1.254750e+00,NaN,2,0,3,1
4,921,6,3,55,2,1,0,9.947433e-01,NaN,2,0,1,1
4,922,6,59,25,2,2,1,8.098100e-01,NaN,2,0,2,1
4,923,6,57,28,1,1,1,7.117225e-01,NaN,2,0,2,1
4,924,6,22,16,1,1,1,9.139076e-01,NaN,2,0,1,1
4,925,6,49,22,1,2,0,7.715893e-01,NaN,2,0,2,1
4,926,6,60,50,2,2,1,8.991569e-01,NaN,2,0,2,1
4,927,6,41,68,2,2,1,7.739066e-01,NaN,2,0,1,1
4,928,6,124,36,1,1,1,8.930798e-01,NaN,2,1,3,1
4,929,6,142,7,1,1,1,9.525639e-01,NaN,2,0,3,1
4,930,6,54,32,2,2,1,7.527498e-01,NaN,2,1,2,1
4,931,6,117,67,2,2,1,1.905780e+00,NaN,2,0,3,1
4,932,6,88,46,1,1,1,1.131881e+00,NaN,2,0,2,1
4,933,6,31,39,1,1,1,1.133019e+00,NaN,2,0,1,1
4,934,6,44,49,2,2,1,9.743486e-01,NaN,2,0,1,1
4,935,6,55,57,1,1,1,1.173692e+00,NaN,2,0,2,1
4,936,6,84,45,1,1,1,7.733536e-01,NaN,2,0,2,1
4,937,6,38,47,1,1,1,8.048766e-01,NaN,2,0,1,1
4,938,6,70,10,2,1,0,1.027145e+00,NaN,2,0,2,1
4,939,6,92,13,1,1,1,1.144586e+00,NaN,2,0,2,1
4,940,6,108,62,2,2,1,1.065501e+00,NaN,2,1,3,1
4,941,6,119,66,1,1,1,9.177293e-01,NaN,2,0,3,1
4,942,6,34,44,2,2,1,1.279441e+00,NaN,2,0,1,1
4,943,6,133,37,2,2,1,1.490841e+00,NaN,2,0,3,1
4,944,6,12,23,1,1,1,9.334858e-01,NaN,2,1,1,1
4,945,6,132,8,2,2,1,2.590911e+00,NaN,2,0,3,1
4,946,6,63,14,2,2,1,1.029933e+00,NaN,2,0,2,1
4,947,6,26,24,2,2,1,1.394986e+00,NaN,2,1,1,1
4,948,6,143,70,1,2,0,9.535805e-01,NaN,2,0,3,1
4,949,6,87,35,1,1,1,7.455018e-01,NaN,2,0,2,1
4,950,6,100,51,2,2,1,1.274417e+00,NaN,2,0,3,1
4,951,6,61,17,1,1,1,6.218247e-01,NaN,2,0,2,1
4,952,6,98,48,1,1,1,1.035940e+00,NaN,2,1,3,1
4,953,6,35,59,2,1,0,1.080991e+00,NaN,2,1,1,1
4,954,6,135,6,1,1,1,1.036400e+00,NaN,2,0,3,1
4,955,6,14,21,2,2,1,1.681616e+00,NaN,2,0,1,1
4,956,6,42,12,2,2,1,1.637174e+00,NaN,2,0,1,1
4,957,6,50,43,1,1,1,6.898355e-01,NaN,2,0,2,1
4,958,6,116,33,2,1,0,1.780569e+00,NaN,2,0,3,1
4,959,6,62,64,2,1,0,1.131721e+00,NaN,2,1,2,1
4,960,6,33,58,2,2,1,8.368587e-01,NaN,2,0,1,1
4,961,6,25,53,2,2,1,1.362084e+00,NaN,2,0,1,1
4,962,6,10,38,1,1,1,1.785707e+00,NaN,2,1,1,1
4,963,6,123,56,1,1,1,1.297083e+00,NaN,2,0,3,1
4,964,6,20,3,1,1,1,7.237198e-01,NaN,2,1,1,1
4,965,6,69,61,2,2,1,6.129751e-01,NaN,2,0,2,1
4,966,6,72,41,2,2,1,8.349794e-01,NaN,2,1,2,1
4,967,6,105,72,1,1,1,8.562654e-01,NaN,2,0,3,1
4,968,6,79,5,2,2,1,7.721137e-01,NaN,2,0,2,1
4,969,6,103,52,2,2,1,1.747673e+00,NaN,2,0,3,1
4,970,6,65,19,1,1,1,7.641240e-01,NaN,2,0,2,1
4,971,6,71,2,1,1,1,1.044205e+00,NaN,2,0,2,1
4,972,6,9,4,2,1,0,9.212085e-01,NaN,2,0,1,1
4,973,6,45,30,1,2,0,1.154662e+00,NaN,2,0,1,1
4,974,6,8,18,1,1,1,1.578910e+00,NaN,2,0,1,1
4,975,6,17,15,2,2,1,1.025735e+00,NaN,2,1,1,1
4,976,6,5,34,2,2,1,8.872511e-01,NaN,2,0,1,1
4,977,6,58,26,2,2,1,7.140335e-01,NaN,2,0,2,1
4,978,6,16,9,1,1,1,1.460196e+00,NaN,2,0,1,1
4,979,6,76,40,1,1,1,9.362819e-01,NaN,2,0,2,1
4,980,6,122,63,2,2,1,9.375143e-01,NaN,2,0,3,1
4,981,6,4,60,1,2,0,1.154502e+00,NaN,2,1,1,1
4,982,6,82,42,2,2,1,8.346356e-01,NaN,2,0,2,1
4,983,6,139,31,2,2,1,1.064130e+00,NaN,2,0,3,1
4,984,6,64,55,2,2,1,6.678041e-01,NaN,1,0,2,1
4,985,6,43,36,2,2,1,1.215862e+00,NaN,1,1,1,1
4,986,6,1,35,2,2,1,9.338982e-01,NaN,1,0,1,1
4,987,6,97,30,1,1,1,1.270883e+00,NaN,1,0,3,1
4,988,6,67,3,2,2,1,6.425940e-01,NaN,1,1,2,1
4,989,6,29,45,2,2,1,1.023772e+00,NaN,1,0,1,1
4,990,6,89,66,2,2,1,6.692002e-01,NaN,1,0,2,1
4,991,6,21,56,1,1,1,9.047680e-01,NaN,1,0,1,1
4,992,6,13,46,2,2,1,1.003322e+00,NaN,1,0,1,1
4,993,6,30,42,1,1,1,1.289085e+00,NaN,1,0,1,1
4,994,6,126,49,1,2,0,1.148616e+00,NaN,1,0,3,1
4,995,6,46,7,2,2,1,9.966917e-01,NaN,1,0,1,1
4,996,6,93,52,2,2,1,9.474590e-01,NaN,1,0,2,1
4,997,6,129,12,1,1,1,1.676335e+00,NaN,1,0,3,1
4,998,6,6,8,2,2,1,1.087769e+00,NaN,1,0,1,1
4,999,6,24,29,2,2,1,1.138587e+00,NaN,1,1,1,1
4,1000,6,86,60,2,2,1,1.211188e+00,NaN,1,1,2,1
4,1001,6,47,2,1,1,1,8.092157e-01,NaN,1,0,1,1
4,1002,6,83,9,1,1,1,7.512852e-01,NaN,1,0,2,1
4,1003,6,95,51,1,1,1,7.524105e-01,NaN,1,0,2,1
4,1004,6,81,18,1,1,1,7.849606e-01,NaN,1,0,2,1
4,1005,6,74,27,2,2,1,6.726216e-01,NaN,1,1,2,1
4,1006,6,39,31,2,2,1,1.060109e+00,NaN,1,0,1,1
4,1007,6,136,39,2,2,1,1.552735e+00,NaN,1,0,3,1
4,1008,6,113,58,1,1,1,1.393106e+00,NaN,1,0,3,1
4,1009,6,11,40,1,1,1,9.679186e-01,NaN,1,0,1,1
4,1010,6,32,6,1,1,1,1.743858e+00,NaN,1,0,1,1
4,1011,6,40,5,2,2,1,1.440538e+00,NaN,1,0,1,1
4,1012,6,28,19,2,2,1,9.814146e-01,NaN,1,0,1,1
4,1013,6,144,57,1,1,1,1.508826e+00,NaN,1,0,3,1
4,1014,6,106,64,1,1,1,1.198913e+00,NaN,1,1,3,1
4,1015,6,110,50,1,1,1,1.405947e+00,NaN,1,0,3,1
4,1016,6,94,15,2,2,1,7.640969e-01,NaN,1,1,2,1
4,1017,6,85,38,2,2,1,8.755720e-01,NaN,1,1,2,1
4,1018,6,109,47,2,2,1,1.150969e+00,NaN,1,0,3,1
4,1019,6,120,59,1,1,1,1.159767e+00,NaN,1,1,3,1
4,1020,6,36,10,1,1,1,1.080037e+00,NaN,1,0,1,1
4,1021,6,2,71,2,2,1,1.186992e+00,NaN,1,0,1,1
4,1022,6,53,67,1,1,1,7.304293e-01,NaN,1,0,2,1
4,1023,6,141,43,2,2,1,8.435878e-01,NaN,1,0,3,1
4,1024,6,138,24,2,1,0,8.331396e-01,NaN,1,1,3,1
4,1025,6,80,62,2,2,1,1.366684e+00,NaN,1,1,2,1
4,1026,6,107,44,1,2,0,1.141970e+00,NaN,1,0,3,1
4,1027,6,130,14,2,1,0,2.015257e+00,NaN,1,0,3,1
4,1028,6,128,53,2,2,1,1.332749e+00,NaN,1,0,3,1
4,1029,6,99,17,2,2,1,2.149933e+00,NaN,1,0,3,1
4,1030,6,37,37,2,2,1,1.086406e+00,NaN,1,0,1,1
4,1031,6,19,41,1,1,1,7.134648e-01,NaN,1,1,1,1
4,1032,6,102,20,1,1,1,7.639182e-01,NaN,1,1,3,1
4,1033,6,52,4,2,2,1,6.193900e-01,NaN,1,0,2,1
4,1034,6,115,28,1,1,1,1.329214e+00,NaN,1,0,3,1
4,1035,6,111,68,1,1,1,1.266824e+00,NaN,1,0,3,1
4,1036,6,114,16,1,1,1,1.462790e+00,NaN,1,0,3,1
4,1037,6,48,70,1,2,0,9.468891e-01,NaN,1,0,1,1
4,1038,6,7,61,2,2,1,9.236610e-01,NaN,1,0,1,1
4,1039,6,23,63,1,1,1,1.404810e+00,NaN,1,0,1,1
4,1040,6,140,25,2,2,1,1.307409e+00,NaN,1,0,3,1
4,1041,6,90,23,2,1,0,1.461402e+00,NaN,1,1,2,1
4,1042,6,78,34,1,1,1,6.974934e-01,NaN,1,0,2,1
4,1043,6,18,13,2,2,1,9.729085e-01,NaN,1,0,1,1
4,1044,6,56,54,1,1,1,7.073949e-01,NaN,1,0,2,1
4,1045,6,68,33,2,2,1,6.295880e-01,NaN,1,0,2,1
4,1046,6,66,48,2,2,1,6.111810e-01,NaN,1,1,2,1
4,1047,6,91,69,1,1,1,5.692228e-01,NaN,1,0,2,1
4,1048,6,27,65,2,1,0,8.250778e-01,NaN,1,0,1,1
4,1049,6,75,11,2,2,1,5.347559e-01,NaN,1,1,2,1
4,1050,6,137,26,2,2,1,1.312420e+00,NaN,1,0,3,1
4,1051,6,77,21,2,2,1,5.784901e-01,NaN,1,0,2,1
4,1052,6,134,22,1,1,1,9.625617e-01,NaN,1,0,3,1
4,1053,6,112,32,1,1,1,1.210230e+00,NaN,1,1,3,1
4,1054,6,73,72,2,2,1,8.400426e-01,NaN,1,0,2,1
4,1055,6,96,1,1,1,1,6.928585e-01,NaN,1,1,2,1
