Subject,Trial,Cond,ImageNum,CueNum,Correct,Resp,Accuracy,RT,CueRep,ImageType,Baseline,Category,Block
20,1,1,69,NaN,NaN,1,NaN,5.228531e+00,NaN,2,0,2,1
20,2,1,2,NaN,NaN,1,NaN,1.128690e+00,NaN,2,0,1,1
20,3,1,37,NaN,NaN,1,NaN,1.756104e+00,NaN,2,0,1,1
20,4,1,93,NaN,NaN,1,NaN,1.543266e+00,NaN,0,0,2,1
20,5,1,138,NaN,NaN,1,NaN,1.859305e+00,NaN,2,0,3,1
20,6,1,19,NaN,NaN,2,NaN,4.740974e-01,NaN,0,0,1,1
20,7,1,21,NaN,NaN,1,NaN,4.731360e-01,NaN,2,1,1,1
20,8,1,19,NaN,NaN,1,NaN,7.124816e-01,NaN,2,0,1,1
20,9,1,57,NaN,NaN,1,NaN,7.716720e-02,NaN,0,0,2,1
20,10,1,117,NaN,NaN,2,NaN,9.961986e-01,NaN,0,0,3,1
20,11,1,50,NaN,NaN,1,NaN,5.896725e-01,NaN,1,0,2,1
20,12,1,4,NaN,NaN,1,NaN,3.040506e-01,NaN,1,0,1,1
20,13,1,40,NaN,NaN,2,NaN,3.573270e-01,NaN,0,0,1,1
20,14,1,104,NaN,NaN,1,NaN,4.249321e-01,NaN,1,0,3,1
20,15,1,36,NaN,NaN,2,NaN,3.691625e-01,NaN,0,0,1,1
20,16,1,42,NaN,NaN,2,NaN,3.489171e-01,NaN,0,0,1,1
20,17,1,114,NaN,NaN,1,NaN,2.808604e-01,NaN,0,0,3,1
20,18,1,119,NaN,NaN,1,NaN,1.222797e+00,NaN,0,0,3,1
20,19,1,55,NaN,NaN,1,NaN,2.795923e-01,NaN,0,1,2,1
20,20,1,76,NaN,NaN,1,NaN,2.297246e-01,NaN,2,0,2,1
20,21,1,20,NaN,NaN,1,NaN,3.497257e-01,NaN,1,0,1,1
20,22,1,80,NaN,NaN,1,NaN,2.897973e-01,NaN,0,0,2,1
20,23,1,109,NaN,NaN,1,NaN,3.113066e-01,NaN,0,1,3,1
20,24,1,87,NaN,NaN,1,NaN,2.847777e-01,NaN,0,1,2,1
20,25,1,31,NaN,NaN,1,NaN,1.282830e-04,NaN,0,0,1,1
20,26,1,89,NaN,NaN,1,NaN,2.610568e-01,NaN,0,0,2,1
20,27,1,23,NaN,NaN,2,NaN,1.836898e+00,NaN,2,0,1,1
20,28,1,11,NaN,NaN,2,NaN,3.882015e-01,NaN,2,0,1,1
20,29,1,66,NaN,NaN,1,NaN,2.862141e-01,NaN,2,0,2,1
20,30,1,9,NaN,NaN,1,NaN,2.849899e-01,NaN,0,0,1,1
20,31,1,85,NaN,NaN,1,NaN,2.510734e-01,NaN,1,1,2,1
20,32,1,22,NaN,NaN,2,NaN,3.307727e-01,NaN,2,1,1,1
20,33,1,116,NaN,NaN,1,NaN,3.277787e-01,NaN,2,1,3,1
20,34,1,67,NaN,NaN,1,NaN,2.604296e-01,NaN,2,1,2,1
20,35,1,135,NaN,NaN,1,NaN,2.756083e-01,NaN,1,0,3,1
20,36,1,101,NaN,NaN,1,NaN,8.106045e-01,NaN,0,0,3,1
20,37,1,50,NaN,NaN,1,NaN,4.276312e-01,NaN,0,0,2,1
20,38,1,97,NaN,NaN,2,NaN,1.180287e+00,NaN,1,0,3,1
20,39,1,96,NaN,NaN,1,NaN,3.740804e-01,NaN,0,1,2,1
20,40,1,75,NaN,NaN,1,NaN,2.485038e-01,NaN,0,0,2,1
20,41,1,59,NaN,NaN,1,NaN,2.803050e-01,NaN,1,0,2,1
20,42,1,53,NaN,NaN,1,NaN,2.460311e-01,NaN,2,1,2,1
20,43,1,68,NaN,NaN,1,NaN,4.296888e-01,NaN,1,0,2,1
20,44,1,133,NaN,NaN,2,NaN,1.285848e-04,NaN,0,1,3,1
20,45,1,27,NaN,NaN,1,NaN,1.276793e-04,NaN,0,0,1,1
20,46,1,71,NaN,NaN,1,NaN,2.816162e-01,NaN,2,0,2,1
20,47,1,51,NaN,NaN,1,NaN,2.005739e-01,NaN,2,0,2,1
20,48,1,15,NaN,NaN,2,NaN,2.740620e-01,NaN,0,0,1,1
20,49,1,92,NaN,NaN,1,NaN,2.652409e-01,NaN,1,0,2,1
20,50,1,58,NaN,NaN,1,NaN,3.277712e-01,NaN,0,0,2,1
20,51,1,65,NaN,NaN,1,NaN,2.684595e-01,NaN,0,0,2,1
20,52,1,111,NaN,NaN,1,NaN,3.392931e-01,NaN,0,0,3,1
20,53,1,41,NaN,NaN,2,NaN,2.397733e-01,NaN,0,1,1,1
20,54,1,3,NaN,NaN,2,NaN,3.039422e-01,NaN,0,0,1,1
20,55,1,54,NaN,NaN,1,NaN,2.369843e-01,NaN,0,1,2,1
20,56,1,31,NaN,NaN,1,NaN,2.371406e-01,NaN,1,0,1,1
20,57,1,120,NaN,NaN,1,NaN,2.370356e-01,NaN,1,0,3,1
20,58,1,38,NaN,NaN,1,NaN,2.609080e-01,NaN,1,0,1,1
20,59,1,128,NaN,NaN,1,NaN,2.603022e-01,NaN,2,0,3,1
20,60,1,10,NaN,NaN,1,NaN,2.688585e-01,NaN,0,0,1,1
20,61,1,33,NaN,NaN,1,NaN,2.350863e-01,NaN,0,0,1,1
20,62,1,1,NaN,NaN,1,NaN,2.028900e-01,NaN,0,0,1,1
20,63,1,103,NaN,NaN,2,NaN,1.084850e+00,NaN,0,0,3,1
20,64,1,74,NaN,NaN,1,NaN,2.757523e-01,NaN,0,0,2,1
20,65,1,74,NaN,NaN,1,NaN,2.414072e-01,NaN,2,0,2,1
20,66,1,120,NaN,NaN,1,NaN,1.765446e-02,NaN,0,0,3,1
20,67,1,127,NaN,NaN,1,NaN,2.665959e-01,NaN,0,0,3,1
20,68,1,115,NaN,NaN,2,NaN,4.974854e-01,NaN,0,0,3,1
20,69,1,47,NaN,NaN,2,NaN,2.469882e-01,NaN,1,1,1,1
20,70,1,116,NaN,NaN,1,NaN,2.390187e-01,NaN,0,1,3,1
20,71,1,125,NaN,NaN,1,NaN,2.789485e-01,NaN,0,0,3,1
20,72,1,139,NaN,NaN,1,NaN,2.451814e-01,NaN,0,0,3,1
20,73,1,3,NaN,NaN,2,NaN,3.165052e-01,NaN,1,0,1,1
20,74,1,76,NaN,NaN,1,NaN,2.340799e-01,NaN,0,0,2,1
20,75,1,106,NaN,NaN,1,NaN,2.182257e-01,NaN,2,0,3,1
20,76,1,78,NaN,NaN,1,NaN,2.277249e-01,NaN,0,0,2,1
20,77,1,126,NaN,NaN,2,NaN,3.242553e-01,NaN,1,1,3,1
20,78,1,65,NaN,NaN,1,NaN,2.167198e-01,NaN,2,0,2,1
20,79,1,6,NaN,NaN,1,NaN,4.583584e-01,NaN,0,0,1,1
20,80,1,55,NaN,NaN,1,NaN,2.651881e-01,NaN,2,1,2,1
20,81,1,4,NaN,NaN,1,NaN,2.478886e-01,NaN,0,0,1,1
20,82,1,43,NaN,NaN,1,NaN,4.317538e-01,NaN,2,0,1,1
20,83,1,10,NaN,NaN,1,NaN,1.603417e-01,NaN,2,0,1,1
20,84,1,40,NaN,NaN,2,NaN,6.352866e-01,NaN,1,0,1,1
20,85,1,98,NaN,NaN,2,NaN,7.873451e-01,NaN,2,0,3,1
20,86,1,5,NaN,NaN,1,NaN,3.018149e-01,NaN,2,1,1,1
20,87,1,124,NaN,NaN,1,NaN,2.749699e-01,NaN,1,1,3,1
20,88,1,130,NaN,NaN,2,NaN,1.838974e-02,NaN,0,0,3,1
20,89,1,124,NaN,NaN,1,NaN,7.633958e-01,NaN,0,1,3,1
20,90,1,85,NaN,NaN,1,NaN,2.464521e-01,NaN,0,1,2,1
20,91,1,56,NaN,NaN,1,NaN,2.460154e-01,NaN,2,1,2,1
20,92,1,143,NaN,NaN,1,NaN,3.740907e-01,NaN,1,1,3,1
20,93,1,127,NaN,NaN,1,NaN,2.646949e-01,NaN,1,0,3,1
20,94,1,114,NaN,NaN,1,NaN,2.315761e-01,NaN,1,0,3,1
20,95,1,63,NaN,NaN,1,NaN,3.124183e-01,NaN,0,0,2,1
20,96,1,35,NaN,NaN,2,NaN,1.252646e-04,NaN,0,0,1,1
20,97,1,13,NaN,NaN,2,NaN,2.465575e-01,NaN,1,0,1,1
20,98,1,75,NaN,NaN,1,NaN,1.819738e-01,NaN,1,0,2,1
20,99,1,82,NaN,NaN,1,NaN,3.203075e-01,NaN,0,0,2,1
20,100,1,138,NaN,NaN,1,NaN,3.084515e-01,NaN,0,0,3,1
20,101,1,28,NaN,NaN,2,NaN,1.831609e-02,NaN,0,0,1,1
20,102,1,100,NaN,NaN,2,NaN,1.552384e-01,NaN,1,0,3,1
20,103,1,41,NaN,NaN,2,NaN,3.983320e-01,NaN,2,1,1,1
20,104,1,134,NaN,NaN,2,NaN,2.242082e-01,NaN,1,1,3,1
20,105,1,133,NaN,NaN,2,NaN,1.771485e-01,NaN,1,1,3,1
20,106,1,38,NaN,NaN,1,NaN,2.596040e-01,NaN,0,0,1,1
20,107,1,9,NaN,NaN,1,NaN,2.515847e-01,NaN,1,0,1,1
20,108,1,126,NaN,NaN,2,NaN,2.590746e-01,NaN,0,1,3,1
20,109,1,83,NaN,NaN,1,NaN,1.779949e-01,NaN,0,0,2,1
20,110,1,112,NaN,NaN,1,NaN,3.006274e-01,NaN,0,0,3,1
20,111,1,141,NaN,NaN,1,NaN,2.424881e-01,NaN,1,1,3,1
20,112,1,64,NaN,NaN,1,NaN,2.346000e-01,NaN,1,0,2,1
20,113,1,91,NaN,NaN,1,NaN,2.583800e-01,NaN,0,0,2,1
20,114,1,108,NaN,NaN,2,NaN,2.416387e-01,NaN,2,0,3,1
20,115,1,20,NaN,NaN,1,NaN,2.177581e-01,NaN,0,0,1,1
20,116,1,129,NaN,NaN,2,NaN,2.427519e-01,NaN,1,0,3,1
20,117,1,94,NaN,NaN,1,NaN,1.546157e-01,NaN,2,0,2,1
20,118,1,48,NaN,NaN,1,NaN,2.299580e-01,NaN,2,0,1,1
20,119,1,110,NaN,NaN,1,NaN,2.379894e-01,NaN,0,1,3,1
20,120,1,30,NaN,NaN,2,NaN,2.141179e-02,NaN,0,0,1,1
20,121,1,86,NaN,NaN,1,NaN,2.225058e-01,NaN,0,0,2,1
20,122,1,131,NaN,NaN,1,NaN,2.478442e-01,NaN,2,1,3,1
20,123,1,56,NaN,NaN,1,NaN,2.319112e-01,NaN,0,1,2,1
20,124,1,88,NaN,NaN,1,NaN,1.273775e-04,NaN,1,0,2,1
20,125,1,104,NaN,NaN,1,NaN,1.252646e-04,NaN,0,0,3,1
20,126,1,6,NaN,NaN,1,NaN,3.153591e-01,NaN,1,0,1,1
20,127,1,94,NaN,NaN,1,NaN,1.764606e-01,NaN,0,0,2,1
20,128,1,49,NaN,NaN,1,NaN,3.390088e-01,NaN,1,0,2,1
20,129,1,62,NaN,NaN,1,NaN,2.225978e-01,NaN,0,1,2,1
20,130,1,37,NaN,NaN,2,NaN,3.141575e-02,NaN,0,0,1,1
20,131,1,14,NaN,NaN,1,NaN,2.477178e-01,NaN,0,0,1,1
20,132,1,57,NaN,NaN,1,NaN,2.470531e-01,NaN,1,0,2,1
20,133,1,32,NaN,NaN,2,NaN,2.551597e-01,NaN,1,1,1,1
20,134,1,121,NaN,NaN,1,NaN,2.945220e-01,NaN,0,0,3,1
20,135,1,61,NaN,NaN,1,NaN,2.019838e-02,NaN,2,0,2,1
20,136,1,112,NaN,NaN,1,NaN,2.534268e-01,NaN,1,0,3,1
20,137,1,24,NaN,NaN,2,NaN,5.085135e-01,NaN,2,1,1,1
20,138,1,137,NaN,NaN,1,NaN,2.586161e-01,NaN,2,0,3,1
20,139,1,72,NaN,NaN,1,NaN,2.819198e-01,NaN,0,1,2,1
20,140,1,135,NaN,NaN,1,NaN,2.800961e-01,NaN,0,0,3,1
20,141,1,51,NaN,NaN,1,NaN,2.465355e-01,NaN,0,0,2,1
20,142,1,61,NaN,NaN,1,NaN,2.144538e-01,NaN,0,0,2,1
20,143,1,122,NaN,NaN,2,NaN,5.030063e-01,NaN,0,0,3,1
20,144,1,103,NaN,NaN,2,NaN,2.289571e-01,NaN,2,0,3,1
20,145,1,77,NaN,NaN,1,NaN,2.373619e-01,NaN,1,1,2,1
20,146,1,90,NaN,NaN,1,NaN,2.370371e-01,NaN,1,1,2,1
20,147,1,15,NaN,NaN,2,NaN,2.452203e-01,NaN,1,0,1,1
20,148,1,98,NaN,NaN,2,NaN,3.973893e-01,NaN,0,0,3,1
20,149,1,32,NaN,NaN,2,NaN,2.545690e-01,NaN,0,1,1,1
20,150,1,39,NaN,NaN,2,NaN,2.546179e-01,NaN,0,0,1,1
20,151,1,21,NaN,NaN,1,NaN,1.630316e+00,NaN,0,1,1,1
20,152,1,18,NaN,NaN,2,NaN,3.103609e-01,NaN,1,0,1,1
20,153,1,52,NaN,NaN,1,NaN,2.922148e-01,NaN,1,1,2,1
20,154,1,132,NaN,NaN,1,NaN,9.859969e-01,NaN,1,0,3,1
20,155,1,107,NaN,NaN,1,NaN,2.609481e-01,NaN,0,0,3,1
20,156,1,25,NaN,NaN,1,NaN,2.681217e-01,NaN,2,0,1,1
20,157,1,7,NaN,NaN,1,NaN,3.468446e-01,NaN,0,0,1,1
20,158,1,143,NaN,NaN,1,NaN,2.861933e-01,NaN,0,1,3,1
20,159,1,142,NaN,NaN,2,NaN,2.765706e-01,NaN,0,0,3,1
20,160,1,22,NaN,NaN,2,NaN,2.510824e-01,NaN,0,1,1,1
20,161,1,113,NaN,NaN,1,NaN,2.102896e-01,NaN,2,0,3,1
20,162,1,53,NaN,NaN,1,NaN,3.320752e-01,NaN,0,1,2,1
20,163,1,105,NaN,NaN,2,NaN,4.322950e-01,NaN,1,0,3,1
20,164,1,33,NaN,NaN,1,NaN,2.169468e-01,NaN,1,0,1,1
20,165,1,16,NaN,NaN,1,NaN,2.340353e-01,NaN,2,1,1,1
20,166,1,44,NaN,NaN,1,NaN,4.664910e-01,NaN,0,0,1,1
20,167,1,136,NaN,NaN,2,NaN,2.579212e-01,NaN,0,0,3,1
20,168,1,12,NaN,NaN,1,NaN,2.323380e-01,NaN,0,0,1,1
20,169,1,45,NaN,NaN,2,NaN,2.651582e-01,NaN,0,0,1,1
20,170,1,137,NaN,NaN,1,NaN,2.320467e-01,NaN,0,0,3,1
20,171,1,107,NaN,NaN,1,NaN,2.482876e-01,NaN,1,0,3,1
20,172,1,48,NaN,NaN,1,NaN,2.563912e-01,NaN,0,0,1,1
20,173,1,118,NaN,NaN,1,NaN,2.789769e-01,NaN,0,0,3,1
20,174,1,72,NaN,NaN,1,NaN,2.451633e-01,NaN,1,1,2,1
20,175,1,11,NaN,NaN,2,NaN,2.294494e-01,NaN,0,0,1,1
20,176,1,122,NaN,NaN,2,NaN,2.614145e-01,NaN,2,0,3,1
20,177,1,144,NaN,NaN,1,NaN,2.359224e-01,NaN,0,0,3,1
20,178,1,115,NaN,NaN,2,NaN,1.320738e-01,NaN,1,0,3,1
20,179,1,102,NaN,NaN,2,NaN,4.891506e-02,NaN,0,1,3,1
20,180,1,14,NaN,NaN,1,NaN,2.485276e-01,NaN,1,0,1,1
20,181,1,58,NaN,NaN,1,NaN,1.846925e-01,NaN,1,0,2,1
20,182,1,26,NaN,NaN,1,NaN,3.065888e-01,NaN,0,0,1,1
20,183,1,136,NaN,NaN,2,NaN,4.320396e-01,NaN,1,0,3,1
20,184,1,102,NaN,NaN,2,NaN,1.285848e-04,NaN,2,1,3,1
20,185,1,79,NaN,NaN,1,NaN,2.339399e-01,NaN,2,0,2,1
20,186,1,23,NaN,NaN,1,NaN,2.659430e-01,NaN,0,0,1,1
20,187,1,73,NaN,NaN,1,NaN,2.487956e-01,NaN,0,0,2,1
20,188,1,134,NaN,NaN,2,NaN,2.804652e-01,NaN,0,1,3,1
20,189,1,7,NaN,NaN,1,NaN,3.023841e-01,NaN,2,0,1,1
20,190,1,110,NaN,NaN,1,NaN,2.521648e-01,NaN,1,1,3,1
20,191,1,80,NaN,NaN,1,NaN,2.355855e-01,NaN,2,0,2,1
20,192,1,62,NaN,NaN,1,NaN,2.365665e-01,NaN,2,1,2,1
20,193,1,1,NaN,NaN,1,NaN,2.846177e-01,NaN,1,0,1,1
20,194,1,132,NaN,NaN,1,NaN,2.428273e-01,NaN,0,0,3,1
20,195,1,8,NaN,NaN,1,NaN,2.348306e-01,NaN,0,1,1,1
20,196,1,28,NaN,NaN,2,NaN,2.829358e-01,NaN,2,0,1,1
20,197,1,34,NaN,NaN,1,NaN,3.615268e-01,NaN,0,0,1,1
20,198,1,78,NaN,NaN,1,NaN,7.483356e-01,NaN,1,0,2,1
20,199,1,79,NaN,NaN,1,NaN,2.315046e-01,NaN,0,0,2,1
20,200,1,144,NaN,NaN,1,NaN,6.082896e-01,NaN,2,0,3,1
20,201,1,140,NaN,NaN,1,NaN,7.369194e-01,NaN,0,1,3,1
20,202,1,111,NaN,NaN,1,NaN,3.250099e-01,NaN,2,0,3,1
20,203,1,86,NaN,NaN,1,NaN,3.054952e-01,NaN,1,0,2,1
20,204,1,46,NaN,NaN,1,NaN,1.671331e-01,NaN,2,1,1,1
20,205,1,71,NaN,NaN,1,NaN,2.345728e-01,NaN,0,0,2,1
20,206,1,47,NaN,NaN,2,NaN,3.066956e-01,NaN,0,1,1,1
20,207,1,83,NaN,NaN,1,NaN,1.228498e-04,NaN,1,0,2,1
20,208,1,42,NaN,NaN,2,NaN,1.303011e-01,NaN,2,0,1,1
20,209,1,99,NaN,NaN,2,NaN,3.509672e-01,NaN,2,0,3,1
20,210,1,105,NaN,NaN,2,NaN,3.702172e-01,NaN,0,0,3,1
20,211,1,44,NaN,NaN,1,NaN,2.929594e-01,NaN,2,0,1,1
20,212,1,46,NaN,NaN,1,NaN,3.152212e-01,NaN,0,1,1,1
20,213,1,2,NaN,NaN,2,NaN,2.961194e-01,NaN,0,0,1,1
20,214,1,109,NaN,NaN,1,NaN,2.701851e-01,NaN,1,1,3,1
20,215,1,39,NaN,NaN,2,NaN,3.092326e-01,NaN,1,0,1,1
20,216,1,84,NaN,NaN,1,NaN,2.979700e-01,NaN,2,0,2,1
20,217,1,82,NaN,NaN,1,NaN,3.121705e-01,NaN,1,0,2,1
20,218,1,81,NaN,NaN,1,NaN,3.008227e-01,NaN,0,0,2,1
20,219,1,35,NaN,NaN,2,NaN,3.073271e-01,NaN,1,0,1,1
20,220,1,89,NaN,NaN,1,NaN,2.729454e-01,NaN,2,0,2,1
20,221,1,92,NaN,NaN,1,NaN,2.878797e-01,NaN,0,0,2,1
20,222,1,60,NaN,NaN,1,NaN,5.330505e-02,NaN,0,0,2,1
20,223,1,29,NaN,NaN,1,NaN,3.166178e-01,NaN,0,0,1,1
20,224,1,30,NaN,NaN,2,NaN,1.291885e-04,NaN,1,0,1,1
20,225,1,101,NaN,NaN,1,NaN,1.155957e+00,NaN,2,0,3,1
20,226,1,131,NaN,NaN,1,NaN,2.870517e-01,NaN,0,1,3,1
20,227,1,45,NaN,NaN,2,NaN,2.846340e-01,NaN,1,0,1,1
20,228,1,17,NaN,NaN,2,NaN,2.511636e-01,NaN,0,0,1,1
20,229,1,24,NaN,NaN,2,NaN,1.270756e-04,NaN,0,1,1,1
20,230,1,67,NaN,NaN,1,NaN,1.877046e-01,NaN,0,1,2,1
20,231,1,12,NaN,NaN,1,NaN,2.534645e-01,NaN,1,0,1,1
20,232,1,60,NaN,NaN,1,NaN,1.294903e-04,NaN,2,0,2,1
20,233,1,13,NaN,NaN,2,NaN,3.185067e-01,NaN,0,0,1,1
20,234,1,29,NaN,NaN,1,NaN,1.635518e-01,NaN,1,0,1,1
20,235,1,88,NaN,NaN,1,NaN,2.147355e-01,NaN,0,0,2,1
20,236,1,118,NaN,NaN,1,NaN,2.793252e-01,NaN,2,0,3,1
20,237,1,99,NaN,NaN,2,NaN,1.270756e-04,NaN,0,0,3,1
20,238,1,81,NaN,NaN,1,NaN,6.270563e-02,NaN,2,0,2,1
20,239,1,64,NaN,NaN,1,NaN,2.206649e-02,NaN,0,0,2,1
20,240,1,69,NaN,NaN,1,NaN,3.750327e-01,NaN,0,0,2,1
20,241,1,129,NaN,NaN,2,NaN,3.377833e-01,NaN,0,0,3,1
20,242,1,16,NaN,NaN,1,NaN,2.858770e-01,NaN,0,1,1,1
20,243,1,91,NaN,NaN,1,NaN,2.686714e-01,NaN,2,0,2,1
20,244,1,108,NaN,NaN,2,NaN,4.673995e-01,NaN,0,0,3,1
20,245,1,121,NaN,NaN,1,NaN,2.984617e-01,NaN,2,0,3,1
20,246,1,113,NaN,NaN,1,NaN,2.804390e-01,NaN,0,0,3,1
20,247,1,95,NaN,NaN,1,NaN,4.305841e-01,NaN,0,0,2,1
20,248,1,59,NaN,NaN,1,NaN,2.309233e-01,NaN,0,0,2,1
20,249,1,125,NaN,NaN,1,NaN,2.875265e-01,NaN,2,0,3,1
20,250,1,106,NaN,NaN,1,NaN,2.933400e-01,NaN,0,0,3,1
20,251,1,142,NaN,NaN,2,NaN,1.397699e-01,NaN,2,0,3,1
20,252,1,26,NaN,NaN,1,NaN,2.233310e-01,NaN,2,0,1,1
20,253,1,34,NaN,NaN,1,NaN,2.879672e-01,NaN,1,0,1,1
20,254,1,96,NaN,NaN,1,NaN,3.983709e-01,NaN,1,1,2,1
20,255,1,77,NaN,NaN,1,NaN,2.802461e-01,NaN,0,1,2,1
20,256,1,5,NaN,NaN,1,NaN,2.708555e-01,NaN,0,1,1,1
20,257,1,18,NaN,NaN,2,NaN,3.012712e-01,NaN,0,0,1,1
20,258,1,54,NaN,NaN,1,NaN,1.288867e-04,NaN,2,1,2,1
20,259,1,49,NaN,NaN,1,NaN,2.690354e-01,NaN,0,0,2,1
20,260,1,66,NaN,NaN,1,NaN,3.002012e-01,NaN,0,0,2,1
20,261,1,100,NaN,NaN,2,NaN,3.297971e-01,NaN,0,0,3,1
20,262,1,17,NaN,NaN,2,NaN,2.781866e-01,NaN,2,0,1,1
20,263,1,93,NaN,NaN,1,NaN,3.330954e-01,NaN,2,0,2,1
20,264,1,95,NaN,NaN,1,NaN,3.772730e-01,NaN,1,0,2,1
20,265,1,140,NaN,NaN,1,NaN,4.274893e-01,NaN,2,1,3,1
20,266,1,70,NaN,NaN,1,NaN,3.559883e-01,NaN,2,0,2,1
20,267,1,70,NaN,NaN,1,NaN,3.119664e-01,NaN,0,0,2,1
20,268,1,25,NaN,NaN,1,NaN,2.683737e-01,NaN,0,0,1,1
20,269,1,68,NaN,NaN,1,NaN,6.827577e-01,NaN,0,0,2,1
20,270,1,43,NaN,NaN,1,NaN,2.407944e-01,NaN,0,0,1,1
20,271,1,52,NaN,NaN,1,NaN,7.862992e-04,NaN,0,1,2,1
20,272,1,123,NaN,NaN,1,NaN,1.029735e-02,NaN,0,1,3,1
20,273,1,36,NaN,NaN,2,NaN,3.396363e-01,NaN,1,0,1,1
20,274,1,27,NaN,NaN,1,NaN,1.992144e-01,NaN,2,0,1,1
20,275,1,117,NaN,NaN,2,NaN,1.267738e-04,NaN,2,0,3,1
20,276,1,84,NaN,NaN,1,NaN,1.146237e-01,NaN,0,0,2,1
20,277,1,130,NaN,NaN,2,NaN,2.331490e-02,NaN,2,0,3,1
20,278,1,87,NaN,NaN,1,NaN,4.788306e-02,NaN,1,1,2,1
20,279,1,8,NaN,NaN,1,NaN,5.114302e-01,NaN,2,1,1,1
20,280,1,119,NaN,NaN,1,NaN,2.765603e-01,NaN,2,0,3,1
20,281,1,123,NaN,NaN,1,NaN,2.428672e-01,NaN,1,1,3,1
20,282,1,128,NaN,NaN,1,NaN,8.277301e-02,NaN,0,0,3,1
20,283,1,97,NaN,NaN,2,NaN,9.726386e-02,NaN,0,0,3,1
20,284,1,90,NaN,NaN,1,NaN,7.843795e-02,NaN,0,1,2,1
20,285,1,63,NaN,NaN,1,NaN,2.127207e-01,NaN,1,0,2,1
20,286,1,141,NaN,NaN,1,NaN,4.143743e-01,NaN,0,1,3,1
20,287,1,139,NaN,NaN,1,NaN,4.230097e-01,NaN,1,0,3,1
20,288,1,73,NaN,NaN,1,NaN,3.753138e-01,NaN,1,0,2,1
20,391,2,105,11,2,2,1,2.250688e+00,NaN,1,0,3,1
20,392,2,77,16,1,1,1,1.278683e+00,NaN,1,1,2,1
20,393,2,12,8,1,1,1,1.128873e+00,NaN,1,0,1,1
20,394,2,50,53,1,1,1,8.244766e-01,NaN,1,0,2,1
20,395,2,141,35,2,2,1,2.741146e+00,NaN,1,1,3,1
20,396,2,14,57,1,1,1,6.927598e-01,NaN,1,0,1,1
20,397,2,123,19,2,2,1,1.878578e+00,NaN,1,1,3,1
20,398,2,134,47,1,1,1,8.564891e-01,NaN,1,1,3,1
20,399,2,45,48,1,1,1,7.634754e-01,NaN,1,0,1,1
20,400,2,88,44,2,2,1,1.314306e+00,NaN,1,0,2,1
20,401,2,104,38,1,1,1,6.192820e-01,NaN,1,0,3,1
20,402,2,126,36,2,2,1,1.535729e+00,NaN,1,1,3,1
20,403,2,58,66,1,1,1,6.799213e-01,NaN,1,0,2,1
20,404,2,72,39,1,1,1,6.337228e-01,NaN,1,1,2,1
20,405,2,1,61,1,1,1,6.860405e-01,NaN,1,0,1,1
20,406,2,59,67,1,1,1,8.320902e-01,NaN,1,0,2,1
20,407,2,9,46,1,1,1,1.028407e+00,NaN,1,0,1,1
20,408,2,78,51,1,1,1,7.044363e-01,NaN,1,0,2,1
20,409,2,82,63,1,1,1,6.740480e-01,NaN,1,0,2,1
20,410,2,36,49,2,1,0,5.720911e-01,NaN,1,0,1,1
20,411,2,40,18,2,1,0,1.306627e+00,NaN,1,0,1,1
20,412,2,63,42,1,2,0,1.099457e+00,NaN,1,0,2,1
20,413,2,87,62,2,2,1,1.964689e+00,NaN,1,1,2,1
20,414,2,30,45,1,1,1,1.107659e+00,NaN,1,0,1,1
20,415,3,78,51,2,2,1,1.453687e+00,NaN,1,0,2,1
20,416,3,126,36,2,2,1,7.848389e-01,NaN,1,1,3,1
20,417,3,30,45,1,1,1,6.068570e-01,NaN,1,0,1,1
20,418,3,141,35,2,2,1,1.572205e+00,NaN,1,1,3,1
20,419,3,72,39,2,1,0,6.503845e-01,NaN,1,1,2,1
20,420,3,45,48,1,1,1,8.302569e-01,NaN,1,0,1,1
20,421,3,40,18,2,1,0,9.781898e-01,NaN,1,0,1,1
20,422,3,58,66,1,1,1,5.522640e-01,NaN,1,0,2,1
20,423,3,104,38,2,2,1,9.604095e-01,NaN,1,0,3,1
20,424,3,9,46,1,1,1,6.554105e-01,NaN,1,0,1,1
20,425,3,77,16,1,1,1,9.464459e-01,NaN,1,1,2,1
20,426,3,105,11,1,1,1,1.338123e+00,NaN,1,0,3,1
20,427,3,87,62,2,2,1,9.061337e-01,NaN,1,1,2,1
20,428,3,123,19,1,1,1,8.190431e-01,NaN,1,1,3,1
20,429,3,12,8,2,2,1,1.935982e+00,NaN,1,0,1,1
20,430,3,59,67,2,2,1,1.151860e+00,NaN,1,0,2,1
20,431,3,14,57,2,2,1,8.875897e-01,NaN,1,0,1,1
20,432,3,36,49,2,1,0,7.212362e-01,NaN,1,0,1,1
20,433,3,63,42,2,2,1,8.973365e-01,NaN,1,0,2,1
20,434,3,50,53,1,1,1,9.470840e-01,NaN,1,0,2,1
20,435,3,1,61,1,1,1,6.745023e-01,NaN,1,0,1,1
20,436,3,82,63,2,2,1,8.688715e-01,NaN,1,0,2,1
20,437,3,88,44,2,2,1,9.194772e-01,NaN,1,0,2,1
20,438,3,134,47,1,1,1,7.440954e-01,NaN,1,1,3,1
20,463,2,133,5,2,2,1,1.440651e+00,NaN,1,1,3,2
20,464,2,107,70,2,2,1,7.889102e-01,NaN,1,0,3,2
20,465,2,68,17,1,1,1,4.025834e-01,NaN,1,0,2,2
20,466,2,15,40,2,2,1,5.918069e-01,NaN,1,0,1,2
20,467,2,83,72,2,2,1,8.694674e-01,NaN,1,0,2,2
20,468,2,20,30,1,1,1,1.000973e+00,NaN,1,0,1,2
20,469,2,18,24,1,1,1,8.058523e-01,NaN,1,0,1,2
20,470,2,34,29,1,1,1,1.035356e+00,NaN,1,0,1,2
20,471,2,115,26,2,2,1,1.351079e+00,NaN,1,0,3,2
20,472,2,73,37,1,1,1,8.227072e-01,NaN,1,0,2,2
20,473,2,100,69,1,1,1,6.754757e-01,NaN,1,0,3,2
20,474,2,31,21,2,1,0,2.021925e+00,NaN,1,0,1,2
20,475,2,135,22,1,1,1,8.027901e-01,NaN,1,0,3,2
20,476,2,6,31,2,2,1,1.064393e+00,NaN,1,0,1,2
20,477,2,38,59,1,1,1,1.338764e+00,NaN,1,0,1,2
20,478,2,35,55,2,1,0,1.170265e+00,NaN,1,0,1,2
20,479,2,124,65,2,2,1,9.368531e-01,NaN,1,1,3,2
20,480,2,127,58,1,1,1,1.104830e+00,NaN,1,0,3,2
20,481,2,47,34,2,2,1,1.065394e+00,NaN,1,1,1,2
20,482,2,33,9,1,1,1,8.606240e-01,NaN,1,0,1,2
20,483,2,95,23,2,2,1,7.192897e-01,NaN,1,0,2,2
20,484,2,114,7,1,1,1,1.296427e+00,NaN,1,0,3,2
20,485,2,90,27,2,1,0,1.377897e+00,NaN,1,1,2,2
20,486,2,3,28,1,1,1,1.440385e+00,NaN,1,0,1,2
20,487,3,15,40,2,2,1,7.756801e-01,NaN,1,0,1,2
20,488,3,18,24,2,2,1,1.805887e+00,NaN,1,0,1,2
20,489,3,135,22,2,2,1,7.472116e-01,NaN,1,0,3,2
20,490,3,107,70,2,2,1,9.551674e-01,NaN,1,0,3,2
20,491,3,83,72,2,2,1,5.219717e-01,NaN,1,0,2,2
20,492,3,6,31,2,2,1,1.074552e+00,NaN,1,0,1,2
20,493,3,47,34,2,2,1,9.809643e-01,NaN,1,1,1,2
20,494,3,115,26,2,1,0,1.194874e+00,NaN,1,0,3,2
20,495,3,127,58,2,1,0,9.048810e-01,NaN,1,0,3,2
20,496,3,73,37,2,1,0,1.938095e+00,NaN,1,0,2,2
20,497,3,38,59,2,2,1,1.505899e+00,NaN,1,0,1,2
20,498,3,31,21,2,2,1,1.602524e+00,NaN,1,0,1,2
20,499,3,95,23,2,2,1,1.384066e+00,NaN,1,0,2,2
20,500,3,20,30,2,2,1,1.141986e+00,NaN,1,0,1,2
20,501,3,114,7,2,1,0,1.358247e+00,NaN,1,0,3,2
20,502,3,124,65,1,1,1,6.289974e-01,NaN,1,1,3,2
20,503,3,68,17,1,1,1,1.089151e+00,NaN,1,0,2,2
20,504,3,133,5,1,1,1,1.443030e+00,NaN,1,1,3,2
20,505,3,33,9,2,2,1,7.507691e-01,NaN,1,0,1,2
20,506,3,100,69,2,2,1,1.861873e+00,NaN,1,0,3,2
20,507,3,90,27,2,2,1,1.448622e+00,NaN,1,1,2,2
20,508,3,3,28,2,2,1,1.235995e+00,NaN,1,0,1,2
20,509,3,35,55,2,2,1,1.671962e+00,NaN,1,0,1,2
20,510,3,34,29,2,1,0,6.343229e-01,NaN,1,0,1,2
20,535,2,96,68,2,2,1,7.862087e-01,NaN,1,1,2,3
20,536,2,112,50,1,1,1,1.055927e+00,NaN,1,0,3,3
20,537,2,92,2,1,1,1,5.947323e-01,NaN,1,0,2,3
20,538,2,143,25,1,1,1,4.886278e-01,NaN,1,1,3,3
20,539,2,129,56,1,1,1,1.194708e+00,NaN,1,0,3,3
20,540,2,32,15,2,2,1,1.352308e+00,NaN,1,1,1,3
20,541,2,120,71,1,1,1,1.343798e+00,NaN,1,0,3,3
20,542,2,75,13,2,2,1,6.079116e-01,NaN,1,0,2,3
20,543,2,57,41,2,2,1,6.045890e-01,NaN,1,0,2,3
20,544,2,136,54,1,2,0,1.266186e+00,NaN,1,0,3,3
20,545,2,85,52,2,2,1,1.212363e+00,NaN,1,1,2,3
20,546,2,132,12,2,1,0,1.145883e+00,NaN,1,0,3,3
20,547,2,139,3,2,2,1,8.572090e-01,NaN,1,0,3,3
20,548,2,52,4,1,1,1,8.038692e-01,NaN,1,1,2,3
20,549,2,97,10,1,1,1,9.853416e-01,NaN,1,0,3,3
20,550,2,13,43,2,2,1,1.079140e+00,NaN,1,0,1,3
20,551,2,49,20,2,2,1,8.173923e-01,NaN,1,0,2,3
20,552,2,29,6,1,1,1,8.144409e-01,NaN,1,0,1,3
20,553,2,86,33,2,0,0,3.499644e+00,NaN,1,0,2,3
20,554,2,109,60,2,2,1,1.188402e+00,NaN,1,1,3,3
20,555,2,64,1,2,2,1,8.017005e-01,NaN,1,0,2,3
20,556,2,4,64,2,2,1,1.335395e+00,NaN,1,0,1,3
20,557,2,39,14,2,1,0,1.311213e+00,NaN,1,0,1,3
20,558,2,110,32,2,2,1,6.887975e-01,NaN,1,1,3,3
20,559,3,143,25,2,2,1,7.166500e-01,NaN,1,1,3,3
20,560,3,32,15,2,2,1,8.784873e-01,NaN,1,1,1,3
20,561,3,112,50,2,1,0,1.727586e+00,NaN,1,0,3,3
20,562,3,136,54,1,1,1,8.637236e-01,NaN,1,0,3,3
20,563,3,13,43,1,1,1,1.186513e+00,NaN,1,0,1,3
20,564,3,75,13,1,2,0,9.129496e-01,NaN,1,0,2,3
20,565,3,97,10,2,1,0,9.219692e-01,NaN,1,0,3,3
20,566,3,110,32,2,2,1,8.344081e-01,NaN,1,1,3,3
20,567,3,86,33,1,1,1,9.823703e-01,NaN,1,0,2,3
20,568,3,109,60,1,1,1,7.803952e-01,NaN,1,1,3,3
20,569,3,39,14,1,2,0,1.458588e+00,NaN,1,0,1,3
20,570,3,4,64,2,2,1,9.177027e-01,NaN,1,0,1,3
20,571,3,139,3,1,1,1,1.390511e+00,NaN,1,0,3,3
20,572,3,120,71,1,1,1,9.404242e-01,NaN,1,0,3,3
20,573,3,129,56,1,1,1,1.676636e+00,NaN,1,0,3,3
20,574,3,64,1,1,1,1,1.174810e+00,NaN,1,0,2,3
20,575,3,29,6,2,2,1,8.772353e-01,NaN,1,0,1,3
20,576,3,52,4,2,2,1,1.063813e+00,NaN,1,1,2,3
20,577,3,92,2,2,2,1,6.901097e-01,NaN,1,0,2,3
20,578,3,132,12,1,1,1,1.124318e+00,NaN,1,0,3,3
20,579,3,85,52,2,2,1,6.691600e-01,NaN,1,1,2,3
20,580,3,57,41,2,2,1,2.103231e+00,NaN,1,0,2,3
20,581,3,49,20,1,1,1,9.370263e-01,NaN,1,0,2,3
20,582,3,96,68,2,2,1,3.766536e-01,NaN,1,1,2,3
20,607,4,26,56,2,2,1,1.456397e+00,NaN,2,0,1,1
20,608,4,79,43,1,2,0,1.203188e+00,NaN,2,0,2,1
20,609,4,51,26,2,2,1,8.483973e-01,NaN,2,0,2,1
20,610,4,138,59,1,1,1,9.242995e-01,NaN,2,0,3,1
20,611,4,37,22,2,2,1,8.923989e-01,NaN,2,0,1,1
20,612,4,66,58,2,2,1,1.230499e+00,NaN,2,0,2,1
20,613,4,89,31,2,2,1,1.042267e+00,NaN,2,0,2,1
20,614,4,48,38,2,2,1,1.326169e+00,NaN,2,0,1,1
20,615,4,46,36,2,2,1,8.865028e-01,NaN,2,1,1,1
20,616,4,62,35,2,2,1,5.845835e-01,NaN,2,1,2,1
20,617,4,10,20,1,1,1,1.302355e+00,NaN,2,0,1,1
20,618,4,27,10,1,2,0,1.688076e+00,NaN,2,0,1,1
20,619,4,61,69,1,1,1,6.256120e-01,NaN,2,0,2,1
20,620,4,55,19,2,1,0,1.133721e+00,NaN,2,1,2,1
20,621,4,71,40,1,1,1,1.117738e+00,NaN,2,0,2,1
20,622,4,65,12,2,2,1,8.789027e-01,NaN,2,0,2,1
20,623,4,137,45,1,1,1,8.329626e-01,NaN,2,0,3,1
20,624,4,28,3,1,1,1,1.180695e+00,NaN,2,0,1,1
20,625,4,128,9,1,2,0,1.970786e+00,NaN,2,0,3,1
20,626,4,22,39,2,1,0,1.409225e+00,NaN,2,1,1,1
20,627,4,99,44,1,1,1,1.054138e+00,NaN,2,0,3,1
20,628,4,42,11,1,1,1,1.601777e+00,NaN,2,0,1,1
20,629,4,11,66,2,2,1,9.584994e-01,NaN,2,0,1,1
20,630,4,76,8,2,2,1,7.494464e-01,NaN,2,0,2,1
20,655,4,144,46,2,2,1,1.046845e+00,NaN,2,0,3,2
20,656,4,8,16,1,1,1,1.002447e+00,NaN,2,1,1,2
20,657,4,80,30,1,1,1,6.562541e-01,NaN,2,0,2,2
20,658,4,103,51,1,1,1,1.827293e+00,NaN,2,0,3,2
20,659,4,54,47,1,1,1,5.918775e-01,NaN,2,1,2,2
20,660,4,91,49,2,2,1,7.972063e-01,NaN,2,0,2,2
20,661,4,70,28,1,1,1,7.389924e-01,NaN,2,0,2,2
20,662,4,43,71,2,2,1,9.467725e-01,NaN,2,0,1,2
20,663,4,53,5,1,1,1,1.169686e+00,NaN,2,1,2,2
20,664,4,7,42,1,1,1,1.096377e+00,NaN,2,0,1,2
20,665,4,5,27,1,1,1,8.817536e-01,NaN,2,1,1,2
20,666,4,60,70,1,2,0,7.960439e-01,NaN,2,0,2,2
20,667,4,21,52,2,2,1,5.535061e-01,NaN,2,1,1,2
20,668,4,44,7,1,1,1,7.204973e-01,NaN,2,0,1,2
20,669,4,119,21,2,2,1,1.329049e+00,NaN,2,0,3,2
20,670,4,130,29,1,1,1,8.171602e-01,NaN,2,0,3,2
20,671,4,113,17,2,2,1,8.536653e-01,NaN,2,0,3,2
20,672,4,84,24,2,2,1,7.847369e-01,NaN,2,0,2,2
20,673,4,74,64,2,2,1,7.272278e-01,NaN,2,0,2,2
20,674,4,98,63,2,2,1,6.553106e-01,NaN,2,0,3,2
20,675,4,125,14,2,2,1,1.058490e+00,NaN,2,0,3,2
20,676,4,41,65,1,1,1,1.925722e+00,NaN,2,1,1,2
20,677,4,131,15,2,2,1,7.580381e-01,NaN,2,1,3,2
20,678,4,101,1,2,2,1,8.299170e-01,NaN,2,0,3,2
20,703,4,108,23,1,1,1,9.267770e-01,NaN,2,0,3,3
20,704,4,23,2,2,2,1,1.190766e+00,NaN,2,0,1,3
20,705,4,56,25,2,2,1,7.165384e-01,NaN,2,1,2,3
20,706,4,111,33,2,2,1,8.291865e-01,NaN,2,0,3,3
20,707,4,117,53,1,1,1,8.260449e-01,NaN,2,0,3,3
20,708,4,25,54,1,2,0,2.829659e+00,NaN,2,0,1,3
20,709,4,118,41,1,2,0,1.345575e+00,NaN,2,0,3,3
20,710,4,116,4,2,2,1,1.009552e+00,NaN,2,1,3,3
20,711,4,122,57,1,1,1,7.508388e-01,NaN,2,0,3,3
20,712,4,140,34,2,2,1,7.742551e-01,NaN,2,1,3,3
20,713,4,17,72,2,2,1,1.332891e+00,NaN,2,0,1,3
20,714,4,93,55,1,1,1,1.068806e+00,NaN,2,0,2,3
20,715,4,2,67,2,2,1,1.303540e+00,NaN,2,0,1,3
20,716,4,19,37,2,2,1,1.328634e+00,NaN,2,0,1,3
20,717,4,94,61,2,2,1,9.921762e-01,NaN,2,0,2,3
20,718,4,67,32,2,2,1,5.024751e-01,NaN,2,1,2,3
20,719,4,106,13,1,1,1,6.393521e-01,NaN,2,0,3,3
20,720,4,16,68,2,2,1,1.475295e+00,NaN,2,1,1,3
20,721,4,69,50,1,1,1,4.940111e-01,NaN,2,0,2,3
20,722,4,24,60,2,2,1,1.231516e+00,NaN,2,1,1,3
20,723,4,102,62,2,2,1,8.913857e-01,NaN,2,1,3,3
20,724,4,81,48,2,2,1,4.370695e-01,NaN,2,0,2,3
20,725,4,142,18,2,2,1,9.133024e-01,NaN,2,0,3,3
20,726,4,121,6,2,2,1,1.122310e+00,NaN,2,0,3,3
20,727,5,7.606000e+01,13,2,0,0,2.500502e+00,1,1,0,2.300000e+00,1
20,728,5,5.811000e+01,66,2,0,0,2.500466e+00,1,1,0,2.100000e+00,1
20,729,5,5.811000e+01,66,2,2,1,4.168524e-01,2,1,0,2.100000e+00,1
20,730,5,4.142000e+01,18,1,4,0,1.450179e+00,1,1,0,1.300000e+00,1
20,731,5,1.276000e+01,8,1,2,0,1.756495e+00,1,1,0,1.200000e+00,1
20,732,5,9.223000e+01,2,2,1,0,3.669793e-01,1,1,0,2.100000e+00,1
20,733,5,3.700000e+00,28,1,3,0,1.176377e+00,1,1,0,1.200000e+00,1
20,734,5,3.530000e+01,29,1,2,0,2.978837e-01,1,1,0,1.300000e+00,1
20,735,5,4.025000e+01,14,1,2,0,4.113643e-01,1,1,0,1.300000e+00,1
20,736,5,1.076000e+02,70,3,2,0,3.571214e-01,1,1,0,3.200000e+00,1
20,737,5,1.076000e+02,70,3,3,1,3.422113e-01,2,1,0,3.200000e+00,1
20,738,5,1.006100e+02,69,3,2,0,7.922202e-01,1,1,0,3.200000e+00,1
20,739,5,3.593000e+01,55,1,1,1,4.980899e-01,1,1,0,1.200000e+00,1
20,740,5,3.700000e+00,28,1,1,1,3.715655e-01,2,1,0,1.200000e+00,1
20,741,5,4.740000e+00,64,1,2,0,4.447891e-01,1,1,0,1.200000e+00,1
20,742,5,1.326500e+02,12,3,1,0,4.464945e-01,1,1,0,3.200000e+00,1
20,743,5,1.126900e+02,50,3,3,1,8.557646e-01,1,1,0,3.200000e+00,1
20,744,5,1.353700e+02,22,3,1,0,4.970927e-01,1,1,0,3.100000e+00,1
20,745,5,1.276600e+02,58,3,2,0,2.907194e-01,1,1,0,3.200000e+00,1
20,746,5,4.025000e+01,14,1,1,1,3.642123e-01,2,1,0,1.300000e+00,1
20,747,5,9.223000e+01,2,2,2,1,2.296081e-01,2,1,0,2.100000e+00,1
20,748,5,1.076000e+02,70,3,3,1,3.668887e-01,3,1,0,3.200000e+00,1
20,749,5,3.219000e+01,21,1,1,1,4.887769e-01,1,1,0,1.300000e+00,1
20,750,5,8.298000e+01,63,2,3,0,3.624707e-01,1,1,0,2.300000e+00,1
20,751,5,3.219000e+01,21,1,1,1,2.839156e-01,2,1,0,1.300000e+00,1
20,752,5,9.727000e+01,10,3,1,0,4.053748e-01,1,1,0,3.100000e+00,1
20,753,5,7.606000e+01,13,2,1,0,3.187914e-01,2,1,0,2.300000e+00,1
20,754,5,3.938000e+01,59,1,1,1,4.648782e-01,1,1,0,1.300000e+00,1
20,755,5,8.317000e+01,72,2,3,0,3.864717e-01,1,1,0,2.100000e+00,1
20,756,5,1.006100e+02,69,3,3,1,3.715591e-01,2,1,0,3.200000e+00,1
20,757,5,1.006100e+02,69,3,3,1,3.573692e-01,3,1,0,3.200000e+00,1
20,758,5,3.938000e+01,59,1,2,0,3.424972e-01,2,1,0,1.300000e+00,1
20,759,5,6.501000e+01,1,2,1,0,3.443342e-01,1,1,0,2.300000e+00,1
20,760,5,5.117000e+01,53,2,3,0,2.502131e-01,1,1,0,2.300000e+00,1
20,761,5,1.522000e+01,57,1,1,1,3.320676e-01,1,1,0,1.300000e+00,1
20,762,5,6.307000e+01,42,2,2,1,2.936265e-01,1,1,0,2.100000e+00,1
20,763,5,6.501000e+01,1,2,2,1,2.794224e-01,2,1,0,2.300000e+00,1
20,764,5,1.940000e+00,61,1,1,1,3.287150e-01,1,1,0,1.200000e+00,1
20,765,5,5.117000e+01,53,2,2,1,3.462147e-01,2,1,0,2.300000e+00,1
20,766,5,1.204300e+02,71,3,3,1,3.236999e-01,1,1,0,3.100000e+00,1
20,767,5,8.711000e+01,33,2,3,0,4.050495e-01,1,1,0,2.300000e+00,1
20,768,5,4.142000e+01,18,1,3,0,3.105514e-01,2,1,0,1.300000e+00,1
20,769,5,1.884000e+01,24,1,2,0,3.043162e-01,1,1,0,1.200000e+00,1
20,770,5,3.428000e+01,9,1,1,1,2.895253e-01,1,1,0,1.300000e+00,1
20,771,5,3.137000e+01,45,1,3,0,3.392243e-01,1,1,0,1.300000e+00,1
20,772,5,1.044000e+01,46,1,0,0,2.500284e+00,1,1,0,1.300000e+00,1
20,773,5,6.307000e+01,42,2,2,1,4.467441e-01,2,1,0,2.100000e+00,1
20,774,5,1.044000e+01,46,1,1,1,2.720170e-01,2,1,0,1.300000e+00,1
20,775,5,1.292600e+02,56,3,3,1,3.057382e-01,1,1,0,3.100000e+00,1
20,776,5,1.522000e+01,57,1,3,0,2.431485e-01,2,1,0,1.300000e+00,1
20,777,5,8.317000e+01,72,2,2,1,3.010479e-01,2,1,0,2.100000e+00,1
20,778,5,3.137000e+01,45,1,1,1,2.950080e-01,2,1,0,1.300000e+00,1
20,779,5,6.913000e+01,17,2,3,0,2.639198e-01,1,1,0,2.300000e+00,1
20,780,5,4.142000e+01,18,1,1,1,2.976310e-01,3,1,0,1.300000e+00,1
20,781,5,6.307000e+01,42,2,2,1,3.231322e-01,3,1,0,2.100000e+00,1
20,782,5,1.940000e+00,61,1,1,1,2.608102e-01,2,1,0,1.200000e+00,1
20,783,5,2.080000e+01,30,1,3,0,5.181139e-01,1,1,0,1.200000e+00,1
20,784,5,4.910000e+01,20,2,3,0,2.639303e-01,1,1,0,2.100000e+00,1
20,785,5,1.292600e+02,56,3,2,0,2.333084e-01,2,1,0,3.100000e+00,1
20,786,5,1.362500e+02,54,3,3,1,8.510982e-01,1,1,0,3.100000e+00,1
20,787,5,3.428000e+01,9,1,3,0,6.366863e-01,2,1,0,1.300000e+00,1
20,788,5,1.392800e+02,3,3,3,1,3.424045e-01,1,1,0,3.100000e+00,1
20,789,5,1.353700e+02,22,3,2,0,3.519337e-01,2,1,0,3.100000e+00,1
20,790,5,3.137000e+01,45,1,1,1,3.543255e-01,3,1,0,1.300000e+00,1
20,791,5,1.326500e+02,12,3,2,0,5.635333e-01,2,1,0,3.200000e+00,1
20,792,5,1.571000e+01,40,1,1,1,5.567633e-01,1,1,0,1.200000e+00,1
20,793,5,1.044800e+02,38,3,1,0,4.383499e-01,1,1,0,3.100000e+00,1
20,794,5,6.890000e+00,31,1,1,1,3.039519e-01,1,1,0,1.200000e+00,1
20,795,5,1.276600e+02,58,3,2,0,3.769383e-01,2,1,0,3.200000e+00,1
20,796,5,8.298000e+01,63,2,1,0,2.667870e-01,2,1,0,2.300000e+00,1
20,797,5,1.054200e+02,11,3,1,0,2.607583e-01,1,1,0,3.100000e+00,1
20,798,5,9.727000e+01,10,3,2,0,3.905610e-01,2,1,0,3.100000e+00,1
20,799,5,7.319000e+01,37,2,3,0,8.082661e-01,1,1,0,2.100000e+00,1
20,800,5,1.379000e+01,43,1,2,0,4.333236e-01,1,1,0,1.200000e+00,1
20,801,5,1.054200e+02,11,3,1,0,2.833647e-01,2,1,0,3.100000e+00,1
20,802,5,3.691000e+01,49,1,2,0,3.972668e-01,1,1,0,1.200000e+00,1
20,803,5,4.142000e+01,18,1,1,1,2.302840e-01,4,1,0,1.300000e+00,1
20,804,5,3.530000e+01,29,1,3,0,4.078346e-01,2,1,0,1.300000e+00,1
20,805,5,3.021000e+01,6,1,1,1,3.613101e-01,1,1,0,1.300000e+00,1
20,806,5,7.903000e+01,51,2,3,0,3.709032e-01,1,1,0,2.300000e+00,1
20,807,5,1.044000e+01,46,1,1,1,3.161868e-01,3,1,0,1.300000e+00,1
20,808,5,3.593000e+01,55,1,3,0,3.099350e-01,2,1,0,1.200000e+00,1
20,809,5,5.818000e+01,41,2,1,0,2.552623e-01,1,1,0,2.300000e+00,1
20,810,5,1.326500e+02,12,3,3,1,2.972115e-01,3,1,0,3.200000e+00,1
20,811,5,5.811000e+01,66,2,3,0,2.822304e-01,3,1,0,2.100000e+00,1
20,812,5,3.938000e+01,59,1,1,1,2.921013e-01,3,1,0,1.300000e+00,1
20,813,5,3.530000e+01,29,1,1,1,1.165544e+00,3,1,0,1.300000e+00,1
20,814,5,3.137000e+01,45,1,1,1,3.272297e-01,4,1,0,1.300000e+00,1
20,815,5,1.940000e+00,61,1,1,1,3.051599e-01,3,1,0,1.200000e+00,1
20,816,5,3.530000e+01,29,1,1,1,2.983576e-01,4,1,0,1.300000e+00,1
20,817,5,1.353700e+02,22,3,1,0,5.716426e-01,3,1,0,3.100000e+00,1
20,818,5,1.126900e+02,50,3,1,0,3.174844e-01,2,1,0,3.200000e+00,1
20,819,5,1.144400e+02,7,3,1,0,3.909966e-01,1,1,0,3.100000e+00,1
20,820,5,9.727000e+01,10,3,1,0,2.727471e-01,3,1,0,3.100000e+00,1
20,821,5,1.144400e+02,7,3,3,1,3.058689e-01,2,1,0,3.100000e+00,1
20,822,5,6.913000e+01,17,2,2,1,4.597877e-01,2,1,0,2.300000e+00,1
20,823,5,1.155100e+02,26,3,3,1,1.409604e-04,1,1,0,3.200000e+00,1
20,824,5,3.593000e+01,55,1,3,0,5.030429e-01,3,1,0,1.200000e+00,1
20,825,5,7.319000e+01,37,2,1,0,3.367368e-01,2,1,0,2.100000e+00,1
20,826,5,8.711000e+01,33,2,1,0,3.462895e-01,2,1,0,2.300000e+00,1
20,827,5,1.362500e+02,54,3,1,0,2.837629e-01,2,1,0,3.100000e+00,1
20,828,5,4.910000e+01,20,2,2,1,2.856838e-01,2,1,0,2.100000e+00,1
20,829,5,1.379000e+01,43,1,3,0,3.593747e-01,2,1,0,1.200000e+00,1
20,830,5,5.902000e+01,67,2,3,0,2.174484e-01,1,1,0,2.100000e+00,1
20,831,5,4.740000e+00,64,1,1,1,3.948689e-01,2,1,0,1.200000e+00,1
20,832,5,1.276600e+02,58,3,1,0,3.244334e-01,3,1,0,3.200000e+00,1
20,833,5,1.362500e+02,54,3,3,1,2.219579e-01,3,1,0,3.100000e+00,1
20,834,5,8.899000e+01,44,2,3,0,3.914669e-01,1,1,0,2.300000e+00,1
20,835,5,2.080000e+01,30,1,3,0,2.405744e-01,2,1,0,1.200000e+00,1
20,836,5,6.890000e+00,31,1,1,1,1.463935e-04,2,1,0,1.200000e+00,1
20,837,5,1.362500e+02,54,3,3,1,3.081110e-01,4,1,0,3.100000e+00,1
20,838,5,1.054200e+02,11,3,1,0,1.253805e+00,3,1,0,3.100000e+00,1
20,839,5,9.223000e+01,2,2,1,0,2.710360e-01,3,1,0,2.100000e+00,1
20,840,5,1.276000e+01,8,1,1,1,3.364051e-01,2,1,0,1.200000e+00,1
20,841,5,1.276000e+01,8,1,1,1,3.058242e-01,3,1,0,1.200000e+00,1
20,842,5,8.317000e+01,72,2,2,1,5.312295e-01,3,1,0,2.100000e+00,1
20,843,5,6.307000e+01,42,2,3,0,6.048489e-01,4,1,0,2.100000e+00,1
20,844,5,3.938000e+01,59,1,2,0,2.862422e-01,4,1,0,1.300000e+00,1
20,845,5,1.044000e+01,46,1,1,1,2.076262e-01,4,1,0,1.300000e+00,1
20,846,5,1.054200e+02,11,3,1,0,2.652252e-01,4,1,0,3.100000e+00,1
20,847,5,1.884000e+01,24,1,3,0,2.426948e-01,2,1,0,1.200000e+00,1
20,848,5,1.884000e+01,24,1,1,1,2.682367e-01,3,1,0,1.200000e+00,1
20,849,5,1.144400e+02,7,3,2,0,2.939510e-01,3,1,0,3.100000e+00,1
20,850,5,6.890000e+00,31,1,1,1,2.560151e-01,3,1,0,1.200000e+00,1
20,851,5,1.392800e+02,3,3,2,0,2.495343e-01,2,1,0,3.100000e+00,1
20,852,5,5.818000e+01,41,2,2,1,2.907031e-01,2,1,0,2.300000e+00,1
20,853,5,1.126900e+02,50,3,3,1,3.324494e-01,3,1,0,3.200000e+00,1
20,854,5,3.691000e+01,49,1,3,0,3.179357e-01,2,1,0,1.200000e+00,1
20,855,5,1.522000e+01,57,1,3,0,2.312951e-01,3,1,0,1.300000e+00,1
20,856,5,3.428000e+01,9,1,1,1,3.126927e-01,3,1,0,1.300000e+00,1
20,857,5,1.392800e+02,3,3,3,1,3.863060e-01,3,1,0,3.100000e+00,1
20,858,5,5.117000e+01,53,2,2,1,2.596206e-01,3,1,0,2.300000e+00,1
20,859,5,7.319000e+01,37,2,1,0,7.816720e-01,3,1,0,2.100000e+00,1
20,860,5,3.593000e+01,55,1,3,0,4.950933e-01,4,1,0,1.200000e+00,1
20,861,5,4.025000e+01,14,1,1,1,2.726946e-01,3,1,0,1.300000e+00,1
20,862,5,1.276000e+01,8,1,3,0,3.058490e-01,4,1,0,1.200000e+00,1
20,863,5,1.571000e+01,40,1,3,0,3.314721e-01,2,1,0,1.200000e+00,1
20,864,5,6.501000e+01,1,2,1,0,3.328120e-01,3,1,0,2.300000e+00,1
20,865,5,1.292600e+02,56,3,1,0,3.743153e-01,3,1,0,3.100000e+00,1
20,866,5,1.204300e+02,71,3,1,0,3.357072e-01,2,1,0,3.100000e+00,1
20,867,5,1.940000e+00,61,1,1,1,2.575491e-01,4,1,0,1.200000e+00,1
20,868,5,8.317000e+01,72,2,2,1,2.673088e-01,4,1,0,2.100000e+00,1
20,869,5,1.571000e+01,40,1,1,1,2.607643e-01,3,1,0,1.200000e+00,1
20,870,5,4.025000e+01,14,1,1,1,2.868483e-01,4,1,0,1.300000e+00,1
20,871,5,9.727000e+01,10,3,2,0,2.481548e-01,4,1,0,3.100000e+00,1
20,872,5,1.276600e+02,58,3,1,0,3.138538e-01,4,1,0,3.200000e+00,1
20,873,5,1.006100e+02,69,3,3,1,5.392154e-01,4,1,0,3.200000e+00,1
20,874,5,4.740000e+00,64,1,3,0,2.526408e-01,3,1,0,1.200000e+00,1
20,875,5,4.910000e+01,20,2,2,1,2.302302e-01,3,1,0,2.100000e+00,1
20,876,5,3.700000e+00,28,1,1,1,4.638037e-01,3,1,0,1.200000e+00,1
20,877,5,1.204300e+02,71,3,3,1,2.251022e-01,3,1,0,3.100000e+00,1
20,878,5,8.298000e+01,63,2,3,0,4.828934e-01,3,1,0,2.300000e+00,1
20,879,5,4.740000e+00,64,1,1,1,2.926763e-01,4,1,0,1.200000e+00,1
20,880,5,1.379000e+01,43,1,1,1,8.460396e-01,3,1,0,1.200000e+00,1
20,881,5,9.608000e+01,23,2,3,0,2.315435e-01,1,1,0,2.300000e+00,1
20,882,5,8.298000e+01,63,2,2,1,3.210169e-01,4,1,0,2.300000e+00,1
20,883,5,5.811000e+01,66,2,1,0,3.064484e-01,4,1,0,2.100000e+00,1
20,884,5,5.818000e+01,41,2,2,1,2.602645e-01,3,1,0,2.300000e+00,1
20,885,5,2.080000e+01,30,1,3,0,4.537161e-01,3,1,0,1.200000e+00,1
20,886,5,3.691000e+01,49,1,1,1,2.791190e-01,3,1,0,1.200000e+00,1
20,887,5,7.903000e+01,51,2,3,0,3.046268e-01,2,1,0,2.300000e+00,1
20,888,5,1.292600e+02,56,3,3,1,2.900729e-01,4,1,0,3.100000e+00,1
20,889,5,1.044800e+02,38,3,1,0,2.675322e-01,2,1,0,3.100000e+00,1
20,890,5,7.606000e+01,13,2,1,0,1.333120e-01,3,1,0,2.300000e+00,1
20,891,5,2.080000e+01,30,1,3,0,2.875607e-01,4,1,0,1.200000e+00,1
20,892,5,8.899000e+01,44,2,2,1,1.629949e-04,2,1,0,2.300000e+00,1
20,893,5,1.392800e+02,3,3,3,1,5.628067e-01,4,1,0,3.100000e+00,1
20,894,5,5.902000e+01,67,2,3,0,6.516709e-01,2,1,0,2.100000e+00,1
20,895,5,1.884000e+01,24,1,3,0,3.975997e-01,4,1,0,1.200000e+00,1
20,896,5,6.913000e+01,17,2,2,1,2.471585e-01,3,1,0,2.300000e+00,1
20,897,5,9.608000e+01,23,2,2,1,3.124865e-01,2,1,0,2.300000e+00,1
20,898,5,3.021000e+01,6,1,3,0,3.700204e-01,2,1,0,1.300000e+00,1
20,899,5,5.902000e+01,67,2,2,1,1.427714e-04,3,1,0,2.100000e+00,1
20,900,5,3.219000e+01,21,1,1,1,3.888843e-01,3,1,0,1.300000e+00,1
20,901,5,5.902000e+01,67,2,2,1,1.182005e-01,4,1,0,2.100000e+00,1
20,902,5,8.711000e+01,33,2,2,1,2.481844e-01,3,1,0,2.300000e+00,1
20,903,5,3.021000e+01,6,1,1,1,3.057313e-01,3,1,0,1.300000e+00,1
20,904,5,1.522000e+01,57,1,3,0,2.752902e-01,4,1,0,1.300000e+00,1
20,905,5,1.155100e+02,26,3,1,0,1.808467e-01,2,1,0,3.200000e+00,1
20,906,5,1.353700e+02,22,3,1,0,2.704456e-01,4,1,0,3.100000e+00,1
20,907,5,5.818000e+01,41,2,2,1,3.517308e-01,4,1,0,2.300000e+00,1
20,908,5,1.155100e+02,26,3,3,1,2.821100e-01,3,1,0,3.200000e+00,1
20,909,5,1.379000e+01,43,1,1,1,1.267101e+00,4,1,0,1.200000e+00,1
20,910,5,4.581000e+01,48,1,1,1,2.289540e-01,1,1,0,1.200000e+00,1
20,911,5,1.571000e+01,40,1,1,1,3.103335e-01,4,1,0,1.200000e+00,1
20,912,5,7.319000e+01,37,2,2,1,2.321282e-01,4,1,0,2.100000e+00,1
20,913,5,1.155100e+02,26,3,3,1,3.055752e-01,4,1,0,3.200000e+00,1
20,914,5,7.903000e+01,51,2,3,0,2.672141e-01,3,1,0,2.300000e+00,1
20,915,5,8.899000e+01,44,2,2,1,3.487598e-01,3,1,0,2.300000e+00,1
20,916,5,4.910000e+01,20,2,2,1,3.341464e-01,4,1,0,2.100000e+00,1
20,917,5,3.021000e+01,6,1,3,0,3.681764e-01,4,1,0,1.300000e+00,1
20,918,5,3.700000e+00,28,1,3,0,4.420668e-01,4,1,0,1.200000e+00,1
20,919,5,3.691000e+01,49,1,1,1,2.675932e-01,4,1,0,1.200000e+00,1
20,920,5,8.899000e+01,44,2,2,1,3.018046e-01,4,1,0,2.300000e+00,1
20,921,5,3.428000e+01,9,1,1,1,2.635138e-01,4,1,0,1.300000e+00,1
20,922,5,1.204300e+02,71,3,3,1,5.768204e-01,4,1,0,3.100000e+00,1
20,923,5,6.913000e+01,17,2,3,0,4.262593e-01,4,1,0,2.300000e+00,1
20,924,5,6.890000e+00,31,1,1,1,3.240582e-01,4,1,0,1.200000e+00,1
20,925,5,8.711000e+01,33,2,2,1,4.779936e-01,4,1,0,2.300000e+00,1
20,926,5,3.219000e+01,21,1,1,1,2.395366e-01,4,1,0,1.300000e+00,1
20,927,5,4.581000e+01,48,1,3,0,1.617121e+00,2,1,0,1.200000e+00,1
20,928,5,1.144400e+02,7,3,1,0,5.155231e-01,4,1,0,3.100000e+00,1
20,929,5,1.326500e+02,12,3,3,1,4.204890e-01,4,1,0,3.200000e+00,1
20,930,5,7.903000e+01,51,2,2,1,3.100841e-01,4,1,0,2.300000e+00,1
20,931,5,4.581000e+01,48,1,3,0,4.400125e-01,3,1,0,1.200000e+00,1
20,932,5,1.044800e+02,38,3,3,1,1.051380e-01,3,1,0,3.100000e+00,1
20,933,5,1.044800e+02,38,3,3,1,2.747058e-01,4,1,0,3.100000e+00,1
20,934,5,9.608000e+01,23,2,2,1,3.320253e-01,3,1,0,2.300000e+00,1
20,935,5,9.608000e+01,23,2,2,1,1.577377e-01,4,1,0,2.300000e+00,1
20,936,5,9.223000e+01,2,2,1,0,4.788559e-01,4,1,0,2.100000e+00,1
20,937,5,5.117000e+01,53,2,2,1,2.245966e-01,4,1,0,2.300000e+00,1
20,938,5,6.501000e+01,1,2,2,1,3.620961e-01,4,1,0,2.300000e+00,1
20,939,5,1.126900e+02,50,3,3,1,2.997309e-01,4,1,0,3.200000e+00,1
20,940,5,7.606000e+01,13,2,2,1,1.412622e-04,4,1,0,2.300000e+00,1
20,941,5,4.581000e+01,48,1,3,0,5.024392e-01,4,1,0,1.200000e+00,1
20,942,5,1.076000e+02,70,3,2,0,3.844231e-01,4,1,0,3.200000e+00,1
20,943,6,56,25,1,0,0,3.499924e+00,NaN,2,1,2,1
20,944,6,116,4,1,0,0,3.500114e+00,NaN,2,1,3,1
20,945,6,61,69,1,0,0,3.499583e+00,NaN,2,0,2,1
20,946,6,11,66,1,0,0,3.499700e+00,NaN,2,0,1,1
20,947,6,84,24,2,0,0,3.499748e+00,NaN,2,0,2,1
20,948,6,53,5,1,0,0,3.499993e+00,NaN,2,1,2,1
20,949,6,101,1,2,0,0,3.499776e+00,NaN,2,0,3,1
20,950,6,89,31,1,0,0,3.499877e+00,NaN,2,0,2,1
20,951,6,65,12,1,0,0,3.499804e+00,NaN,2,0,2,1
20,952,6,42,11,2,0,0,3.499593e+00,NaN,2,0,1,1
20,953,6,118,41,1,0,0,3.499752e+00,NaN,2,0,3,1
20,954,6,51,26,1,0,0,3.499905e+00,NaN,2,0,2,1
20,955,6,80,30,1,0,0,3.500092e+00,NaN,2,0,2,1
20,956,6,5,27,1,0,0,3.499888e+00,NaN,2,1,1,1
20,957,6,106,13,2,0,0,3.500001e+00,NaN,2,0,3,1
20,958,6,122,57,1,0,0,3.499691e+00,NaN,2,0,3,1
20,959,6,108,23,2,0,0,3.499631e+00,NaN,2,0,3,1
20,960,6,91,49,1,0,0,3.499798e+00,NaN,2,0,2,1
20,961,6,41,65,1,0,0,3.499635e+00,NaN,2,1,1,1
20,962,6,81,48,2,0,0,3.499936e+00,NaN,2,0,2,1
20,963,6,98,63,2,0,0,3.499677e+00,NaN,2,0,3,1
20,964,6,76,8,2,0,0,3.500053e+00,NaN,2,0,2,1
20,965,6,21,52,1,0,0,3.499662e+00,NaN,2,1,1,1
20,966,6,111,33,2,0,0,3.499695e+00,NaN,2,0,3,1
20,967,6,24,60,1,0,0,3.499693e+00,NaN,2,1,1,1
20,968,6,142,18,1,0,0,3.499710e+00,NaN,2,0,3,1
20,969,6,144,46,2,0,0,3.499931e+00,NaN,2,0,3,1
20,970,6,46,36,1,0,0,3.500044e+00,NaN,2,1,1,1
20,971,6,22,39,2,0,0,3.499806e+00,NaN,2,1,1,1
20,972,6,16,68,1,0,0,3.499786e+00,NaN,2,1,1,1
20,973,6,69,50,1,0,0,3.499848e+00,NaN,2,0,2,1
20,974,6,66,58,2,0,0,3.499700e+00,NaN,2,0,2,1
20,975,6,37,22,1,0,0,3.499897e+00,NaN,2,0,1,1
20,976,6,26,56,1,0,0,3.499616e+00,NaN,2,0,1,1
20,977,6,27,10,2,0,0,3.499809e+00,NaN,2,0,1,1
20,978,6,70,28,2,0,0,3.499588e+00,NaN,2,0,2,1
20,979,6,102,62,1,0,0,3.499870e+00,NaN,2,1,3,1
20,980,6,2,67,2,0,0,3.499852e+00,NaN,2,0,1,1
20,981,6,55,19,2,0,0,3.499792e+00,NaN,2,1,2,1
20,982,6,67,32,1,0,0,3.499866e+00,NaN,2,1,2,1
20,983,6,117,53,1,0,0,3.499539e+00,NaN,2,0,3,1
20,984,6,74,64,2,0,0,3.500090e+00,NaN,2,0,2,1
20,985,6,138,59,1,0,0,3.499627e+00,NaN,2,0,3,1
20,986,6,119,21,1,0,0,3.499942e+00,NaN,2,0,3,1
20,987,6,93,55,1,0,0,3.499658e+00,NaN,2,0,2,1
20,988,6,60,70,1,0,0,3.499996e+00,NaN,2,0,2,1
20,989,6,99,44,2,0,0,3.499943e+00,NaN,2,0,3,1
20,990,6,28,3,1,0,0,3.499532e+00,NaN,2,0,1,1
20,991,6,19,37,1,0,0,3.499636e+00,NaN,2,0,1,1
20,992,6,8,16,1,0,0,3.499648e+00,NaN,2,1,1,1
20,993,6,130,29,1,0,0,3.500106e+00,NaN,2,0,3,1
20,994,6,17,72,1,0,0,3.499911e+00,NaN,2,0,1,1
20,995,6,44,7,1,0,0,3.499660e+00,NaN,2,0,1,1
20,996,6,121,6,2,0,0,3.499745e+00,NaN,2,0,3,1
20,997,6,23,2,2,0,0,3.499856e+00,NaN,2,0,1,1
20,998,6,125,14,2,0,0,3.500002e+00,NaN,2,0,3,1
20,999,6,54,47,1,0,0,3.499548e+00,NaN,2,1,2,1
20,1000,6,79,43,1,0,0,3.499541e+00,NaN,2,0,2,1
20,1001,6,131,15,2,0,0,3.499642e+00,NaN,2,1,3,1
20,1002,6,94,61,1,0,0,3.499837e+00,NaN,2,0,2,1
20,1003,6,62,35,2,0,0,3.499701e+00,NaN,2,1,2,1
20,1004,6,140,34,2,0,0,3.500108e+00,NaN,2,1,3,1
20,1005,6,43,71,2,0,0,3.499728e+00,NaN,2,0,1,1
20,1006,6,113,17,2,2,1,1.497615e+00,NaN,2,0,3,1
20,1007,6,137,45,1,1,1,2.868082e+00,NaN,2,0,3,1
20,1008,6,128,9,1,2,0,1.567938e+00,NaN,2,0,3,1
20,1009,6,48,38,1,2,0,1.895279e+00,NaN,2,0,1,1
20,1010,6,25,54,1,1,1,2.981771e-01,NaN,2,0,1,1
20,1011,6,10,20,1,1,1,9.168150e-01,NaN,2,0,1,1
20,1012,6,103,51,1,2,0,1.230795e+00,NaN,2,0,3,1
20,1013,6,71,40,2,2,1,1.907902e+00,NaN,2,0,2,1
20,1014,6,7,42,1,1,1,1.141720e+00,NaN,2,0,1,1
20,1015,6,92,2,2,2,1,5.905343e-01,NaN,1,0,2,1
20,1016,6,40,18,2,1,0,8.054608e-01,NaN,1,0,1,1
20,1017,6,18,24,2,2,1,8.834083e-01,NaN,1,0,1,1
20,1018,6,88,44,2,2,1,6.146575e-01,NaN,1,0,2,1
20,1019,6,3,28,2,1,0,1.308647e+00,NaN,1,0,1,1
20,1020,6,105,11,2,2,1,8.305234e-01,NaN,1,0,3,1
20,1021,6,64,1,1,1,1,6.601953e-01,NaN,1,0,2,1
20,1022,6,90,27,1,1,1,7.682117e-01,NaN,1,1,2,1
20,1023,6,97,10,1,1,1,1.584360e+00,NaN,1,0,3,1
20,1024,6,39,14,2,1,0,1.231284e+00,NaN,1,0,1,1
20,1025,6,58,66,1,1,1,5.726652e-01,NaN,1,0,2,1
20,1026,6,109,60,2,2,1,7.958544e-01,NaN,1,1,3,1
20,1027,6,82,63,1,1,1,7.711803e-01,NaN,1,0,2,1
20,1028,6,6,31,1,1,1,8.816841e-01,NaN,1,0,1,1
20,1029,6,95,23,2,2,1,6.929925e-01,NaN,1,0,2,1
20,1030,6,129,56,2,2,1,1.263983e+00,NaN,1,0,3,1
20,1031,6,86,33,2,2,1,8.673382e-01,NaN,1,0,2,1
20,1032,6,36,49,2,2,1,1.367470e+00,NaN,1,0,1,1
20,1033,6,72,39,2,1,0,5.433796e-01,NaN,1,1,2,1
20,1034,6,32,15,1,1,1,1.944646e+00,NaN,1,1,1,1
20,1035,6,20,30,2,2,1,7.770396e-01,NaN,1,0,1,1
20,1036,6,134,47,1,1,1,1.136379e+00,NaN,1,1,3,1
20,1037,6,127,58,2,2,1,1.185709e+00,NaN,1,0,3,1
20,1038,6,136,54,2,1,0,6.015944e-01,NaN,1,0,3,1
20,1039,6,77,16,1,1,1,1.071633e+00,NaN,1,1,2,1
20,1040,6,13,43,2,2,1,8.112332e-01,NaN,1,0,1,1
20,1041,6,124,65,2,2,1,7.776509e-01,NaN,1,1,3,1
20,1042,6,104,38,1,1,1,1.320979e+00,NaN,1,0,3,1
20,1043,6,132,12,2,2,1,9.623962e-01,NaN,1,0,3,1
20,1044,6,73,37,2,2,1,1.554282e+00,NaN,1,0,2,1
20,1045,6,133,5,2,2,1,1.034793e+00,NaN,1,1,3,1
20,1046,6,52,4,2,2,1,6.078634e-01,NaN,1,1,2,1
20,1047,6,4,64,2,2,1,8.060509e-01,NaN,1,0,1,1
20,1048,6,120,71,2,2,1,1.084307e+00,NaN,1,0,3,1
20,1049,6,112,50,2,1,0,7.835323e-01,NaN,1,0,3,1
20,1050,6,35,55,2,2,1,2.190573e+00,NaN,1,0,1,1
20,1051,6,63,42,1,1,1,6.375686e-01,NaN,1,0,2,1
20,1052,6,114,7,1,2,0,7.623236e-01,NaN,1,0,3,1
20,1053,6,100,69,2,2,1,7.228215e-01,NaN,1,0,3,1
20,1054,6,33,9,1,1,1,7.001299e-01,NaN,1,0,1,1
20,1055,6,78,51,2,2,1,1.246729e+00,NaN,1,0,2,1
20,1056,6,139,3,1,1,1,8.511685e-01,NaN,1,0,3,1
20,1057,6,110,32,1,1,1,1.160298e+00,NaN,1,1,3,1
20,1058,6,68,17,2,1,0,5.760217e-01,NaN,1,0,2,1
20,1059,6,12,8,1,2,0,1.327748e+00,NaN,1,0,1,1
20,1060,6,31,21,2,1,0,1.113164e+00,NaN,1,0,1,1
20,1061,6,47,34,1,1,1,1.426792e+00,NaN,1,1,1,1
20,1062,6,14,57,2,2,1,9.925783e-01,NaN,1,0,1,1
20,1063,6,75,13,1,2,0,6.318007e-01,NaN,1,0,2,1
20,1064,6,57,41,2,2,1,5.973686e-01,NaN,1,0,2,1
20,1065,6,135,22,1,1,1,5.722900e-01,NaN,1,0,3,1
20,1066,6,1,61,1,1,1,1.267584e+00,NaN,1,0,1,1
20,1067,6,107,70,2,2,1,7.838145e-01,NaN,1,0,3,1
20,1068,6,126,36,1,1,1,1.031182e+00,NaN,1,1,3,1
20,1069,6,115,26,1,1,1,2.108388e+00,NaN,1,0,3,1
20,1070,6,123,19,2,2,1,1.110999e+00,NaN,1,1,3,1
20,1071,6,38,59,2,1,0,2.016961e+00,NaN,1,0,1,1
20,1072,6,49,20,2,2,1,7.983123e-01,NaN,1,0,2,1
20,1073,6,45,48,1,2,0,1.660522e+00,NaN,1,0,1,1
20,1074,6,34,29,1,1,1,1.121045e+00,NaN,1,0,1,1
20,1075,6,30,45,2,1,0,1.714684e+00,NaN,1,0,1,1
20,1076,6,85,52,2,2,1,5.164951e-01,NaN,1,1,2,1
20,1077,6,9,46,1,1,1,7.021622e-01,NaN,1,0,1,1
20,1078,6,141,35,2,2,1,9.926661e-01,NaN,1,1,3,1
20,1079,6,143,25,1,1,1,6.160717e-01,NaN,1,1,3,1
20,1080,6,59,67,2,2,1,6.218990e-01,NaN,1,0,2,1
20,1081,6,87,62,2,2,1,6.832286e-01,NaN,1,1,2,1
20,1082,6,83,72,2,2,1,6.301967e-01,NaN,1,0,2,1
20,1083,6,15,40,2,2,1,8.749422e-01,NaN,1,0,1,1
20,1084,6,96,68,2,2,1,6.465031e-01,NaN,1,1,2,1
20,1085,6,29,6,2,2,1,8.988529e-01,NaN,1,0,1,1
20,1086,6,50,53,1,1,1,7.338333e-01,NaN,1,0,2,1
