Subject,Trial,Cond,ImageNum,CueNum,Correct,Resp,Accuracy,RT,CueRep,ImageType,Baseline,Category,Block
29,1,1,128,NaN,NaN,2,NaN,2.503664e+00,NaN,2,0,3,1
29,2,1,105,NaN,NaN,1,NaN,2.533344e+00,NaN,0,0,3,1
29,3,1,122,NaN,NaN,2,NaN,1.424700e-04,NaN,0,0,3,1
29,4,1,92,NaN,NaN,1,NaN,1.740488e+00,NaN,0,0,2,1
29,5,1,59,NaN,NaN,1,NaN,1.313736e+00,NaN,0,1,2,1
29,6,1,68,NaN,NaN,1,NaN,1.430485e+00,NaN,0,0,2,1
29,7,1,26,NaN,NaN,1,NaN,4.872912e-01,NaN,0,1,1,1
29,8,1,126,NaN,NaN,2,NaN,1.249630e-04,NaN,2,0,3,1
29,9,1,82,NaN,NaN,1,NaN,6.082189e-01,NaN,0,0,2,1
29,10,1,91,NaN,NaN,1,NaN,7.781332e-01,NaN,2,0,2,1
29,11,1,37,NaN,NaN,1,NaN,5.736731e-01,NaN,0,0,1,1
29,12,1,6,NaN,NaN,1,NaN,9.047621e-01,NaN,0,1,1,1
29,13,1,23,NaN,NaN,1,NaN,1.670844e+00,NaN,2,1,1,1
29,14,1,44,NaN,NaN,1,NaN,5.019348e-01,NaN,0,0,1,1
29,15,1,50,NaN,NaN,1,NaN,6.439079e-01,NaN,2,0,2,1
29,16,1,14,NaN,NaN,1,NaN,7.009594e-01,NaN,2,0,1,1
29,17,1,119,NaN,NaN,1,NaN,6.029083e-01,NaN,0,0,3,1
29,18,1,138,NaN,NaN,1,NaN,7.330452e-01,NaN,0,1,3,1
29,19,1,142,NaN,NaN,1,NaN,9.298512e-01,NaN,1,0,3,1
29,20,1,128,NaN,NaN,1,NaN,1.999176e+00,NaN,0,0,3,1
29,21,1,108,NaN,NaN,1,NaN,1.057304e+00,NaN,0,0,3,1
29,22,1,116,NaN,NaN,1,NaN,6.650250e-01,NaN,0,1,3,1
29,23,1,34,NaN,NaN,1,NaN,5.370934e-01,NaN,0,0,1,1
29,24,1,38,NaN,NaN,1,NaN,6.694833e-01,NaN,2,0,1,1
29,25,1,137,NaN,NaN,1,NaN,7.248593e-01,NaN,1,0,3,1
29,26,1,28,NaN,NaN,2,NaN,6.343458e-01,NaN,0,1,1,1
29,27,1,134,NaN,NaN,2,NaN,1.298728e+00,NaN,1,0,3,1
29,28,1,126,NaN,NaN,1,NaN,1.913257e+00,NaN,0,0,3,1
29,29,1,109,NaN,NaN,1,NaN,5.747863e-01,NaN,0,0,3,1
29,30,1,114,NaN,NaN,1,NaN,1.009848e+00,NaN,1,1,3,1
29,31,1,68,NaN,NaN,1,NaN,8.436846e-01,NaN,2,0,2,1
29,32,1,108,NaN,NaN,1,NaN,7.485892e-01,NaN,1,0,3,1
29,33,1,96,NaN,NaN,1,NaN,2.840637e+00,NaN,2,0,2,1
29,34,1,66,NaN,NaN,1,NaN,3.193098e+00,NaN,0,0,2,1
29,35,1,112,NaN,NaN,1,NaN,1.387217e+00,NaN,1,0,3,1
29,36,1,12,NaN,NaN,2,NaN,4.458281e-01,NaN,0,0,1,1
29,37,1,69,NaN,NaN,1,NaN,1.862100e+00,NaN,0,0,2,1
29,38,1,143,NaN,NaN,1,NaN,1.133485e+00,NaN,2,0,3,1
29,39,1,141,NaN,NaN,1,NaN,9.780778e-01,NaN,1,0,3,1
29,40,1,80,NaN,NaN,1,NaN,6.131592e-01,NaN,0,0,2,1
29,41,1,56,NaN,NaN,1,NaN,2.470933e+00,NaN,0,0,2,1
29,42,1,29,NaN,NaN,1,NaN,2.173836e+00,NaN,0,1,1,1
29,43,1,92,NaN,NaN,1,NaN,5.287405e-01,NaN,2,0,2,1
29,44,1,117,NaN,NaN,2,NaN,2.381820e+00,NaN,0,0,3,1
29,45,1,39,NaN,NaN,2,NaN,3.544487e+00,NaN,1,1,1,1
29,46,1,25,NaN,NaN,1,NaN,2.172798e+00,NaN,0,0,1,1
29,47,1,90,NaN,NaN,1,NaN,4.247740e+00,NaN,1,0,2,1
29,48,1,1,NaN,NaN,1,NaN,4.798095e-01,NaN,2,1,1,1
29,49,1,88,NaN,NaN,1,NaN,3.346221e-01,NaN,2,0,2,1
29,50,1,33,NaN,NaN,1,NaN,4.755357e-01,NaN,2,0,1,1
29,51,1,8,NaN,NaN,1,NaN,2.322617e+00,NaN,0,1,1,1
29,52,1,123,NaN,NaN,1,NaN,1.279860e-01,NaN,0,0,3,1
29,53,1,117,NaN,NaN,1,NaN,1.061245e+00,NaN,1,0,3,1
29,54,1,71,NaN,NaN,1,NaN,1.228766e+00,NaN,0,1,2,1
29,55,1,88,NaN,NaN,1,NaN,1.045516e+00,NaN,0,0,2,1
29,56,1,122,NaN,NaN,1,NaN,1.341767e+00,NaN,2,0,3,1
29,57,1,62,NaN,NaN,1,NaN,8.745595e-01,NaN,0,0,2,1
29,58,1,133,NaN,NaN,2,NaN,5.753507e-02,NaN,1,0,3,1
29,59,1,50,NaN,NaN,1,NaN,8.897479e-01,NaN,0,0,2,1
29,60,1,73,NaN,NaN,1,NaN,5.924039e-01,NaN,0,0,2,1
29,61,1,93,NaN,NaN,1,NaN,1.148812e-01,NaN,0,0,2,1
29,62,1,18,NaN,NaN,1,NaN,4.565438e-01,NaN,0,0,1,1
29,63,1,95,NaN,NaN,1,NaN,3.968065e+00,NaN,2,0,2,1
29,64,1,39,NaN,NaN,2,NaN,2.597220e-01,NaN,0,1,1,1
29,65,1,115,NaN,NaN,2,NaN,1.219808e+00,NaN,0,0,3,1
29,66,1,60,NaN,NaN,1,NaN,5.888216e-01,NaN,0,0,2,1
29,67,1,53,NaN,NaN,1,NaN,4.716905e-01,NaN,0,0,2,1
29,68,1,66,NaN,NaN,1,NaN,3.108037e-01,NaN,2,0,2,1
29,69,1,83,NaN,NaN,1,NaN,9.297619e-02,NaN,0,0,2,1
29,70,1,40,NaN,NaN,1,NaN,5.157583e-01,NaN,1,0,1,1
29,71,1,120,NaN,NaN,1,NaN,9.852082e-01,NaN,1,0,3,1
29,72,1,127,NaN,NaN,1,NaN,1.346217e-04,NaN,0,0,3,1
29,73,1,55,NaN,NaN,1,NaN,1.030248e+00,NaN,1,0,2,1
29,74,1,83,NaN,NaN,1,NaN,3.273878e-01,NaN,1,0,2,1
29,75,1,135,NaN,NaN,1,NaN,1.468288e+00,NaN,2,0,3,1
29,76,1,78,NaN,NaN,1,NaN,6.838039e-01,NaN,0,1,2,1
29,77,1,102,NaN,NaN,2,NaN,7.548132e-01,NaN,0,1,3,1
29,78,1,22,NaN,NaN,1,NaN,6.148118e-01,NaN,1,0,1,1
29,79,1,109,NaN,NaN,1,NaN,4.965518e-01,NaN,2,0,3,1
29,80,1,52,NaN,NaN,1,NaN,5.988271e-01,NaN,0,0,2,1
29,81,1,16,NaN,NaN,1,NaN,1.320995e+00,NaN,0,0,1,1
29,82,1,124,NaN,NaN,1,NaN,4.864856e-01,NaN,2,0,3,1
29,83,1,65,NaN,NaN,1,NaN,4.608088e-01,NaN,1,0,2,1
29,84,1,80,NaN,NaN,1,NaN,8.369119e-01,NaN,1,0,2,1
29,85,1,97,NaN,NaN,1,NaN,1.141127e+00,NaN,2,1,3,1
29,86,1,3,NaN,NaN,2,NaN,1.281616e+00,NaN,1,0,1,1
29,87,1,139,NaN,NaN,1,NaN,1.304792e+00,NaN,2,0,3,1
29,88,1,99,NaN,NaN,2,NaN,5.985491e-01,NaN,0,0,3,1
29,89,1,51,NaN,NaN,1,NaN,4.169994e-01,NaN,1,0,2,1
29,90,1,48,NaN,NaN,1,NaN,5.786242e-01,NaN,2,0,1,1
29,91,1,127,NaN,NaN,1,NaN,1.005295e+00,NaN,1,0,3,1
29,92,1,55,NaN,NaN,1,NaN,5.751328e-01,NaN,0,0,2,1
29,93,1,90,NaN,NaN,1,NaN,3.708468e-01,NaN,0,0,2,1
29,94,1,120,NaN,NaN,1,NaN,4.056166e-01,NaN,0,0,3,1
29,95,1,102,NaN,NaN,2,NaN,4.879351e-01,NaN,1,1,3,1
29,96,1,104,NaN,NaN,2,NaN,1.982932e-01,NaN,0,0,3,1
29,97,1,5,NaN,NaN,1,NaN,6.004927e-01,NaN,2,0,1,1
29,98,1,140,NaN,NaN,1,NaN,6.352631e-01,NaN,2,0,3,1
29,99,1,13,NaN,NaN,1,NaN,1.108036e+00,NaN,0,0,1,1
29,100,1,131,NaN,NaN,1,NaN,9.697216e-01,NaN,0,0,3,1
29,101,1,104,NaN,NaN,1,NaN,8.209097e-01,NaN,1,0,3,1
29,102,1,31,NaN,NaN,1,NaN,1.237551e-04,NaN,2,0,1,1
29,103,1,1,NaN,NaN,1,NaN,1.424960e+00,NaN,0,1,1,1
29,104,1,61,NaN,NaN,1,NaN,1.619294e-01,NaN,1,0,2,1
29,105,1,43,NaN,NaN,1,NaN,2.614253e-01,NaN,1,0,1,1
29,106,1,27,NaN,NaN,1,NaN,6.940804e-02,NaN,2,0,1,1
29,107,1,41,NaN,NaN,1,NaN,2.136017e-02,NaN,0,0,1,1
29,108,1,12,NaN,NaN,1,NaN,1.398199e+00,NaN,2,0,1,1
29,109,1,24,NaN,NaN,1,NaN,1.864657e+00,NaN,1,1,1,1
29,110,1,51,NaN,NaN,1,NaN,7.837964e-01,NaN,0,0,2,1
29,111,1,43,NaN,NaN,1,NaN,1.246603e-04,NaN,0,0,1,1
29,112,1,121,NaN,NaN,2,NaN,1.757337e+00,NaN,0,1,3,1
29,113,1,64,NaN,NaN,1,NaN,5.210493e-01,NaN,2,0,2,1
29,114,1,138,NaN,NaN,1,NaN,8.705193e-01,NaN,2,1,3,1
29,115,1,13,NaN,NaN,1,NaN,1.093432e+00,NaN,1,0,1,1
29,116,1,97,NaN,NaN,1,NaN,7.800496e-01,NaN,0,1,3,1
29,117,1,132,NaN,NaN,1,NaN,2.766920e+00,NaN,0,0,3,1
29,118,1,34,NaN,NaN,1,NaN,8.665350e-01,NaN,1,0,1,1
29,119,1,58,NaN,NaN,1,NaN,1.577934e+00,NaN,1,0,2,1
29,120,1,21,NaN,NaN,1,NaN,6.208613e-01,NaN,0,0,1,1
29,121,1,21,NaN,NaN,1,NaN,7.026044e-01,NaN,2,0,1,1
29,122,1,110,NaN,NaN,1,NaN,1.292683e+00,NaN,2,1,3,1
29,123,1,74,NaN,NaN,1,NaN,6.672723e-01,NaN,0,0,2,1
29,124,1,10,NaN,NaN,1,NaN,1.075279e+00,NaN,2,1,1,1
29,125,1,118,NaN,NaN,1,NaN,1.889666e+00,NaN,1,0,3,1
29,126,1,79,NaN,NaN,1,NaN,8.644420e-01,NaN,0,0,2,1
29,127,1,30,NaN,NaN,1,NaN,5.625043e-02,NaN,0,0,1,1
29,128,1,35,NaN,NaN,2,NaN,1.072247e+00,NaN,0,1,1,1
29,129,1,96,NaN,NaN,1,NaN,3.992994e-01,NaN,0,0,2,1
29,130,1,14,NaN,NaN,1,NaN,1.137720e+00,NaN,0,0,1,1
29,131,1,8,NaN,NaN,1,NaN,8.624957e-01,NaN,2,1,1,1
29,132,1,87,NaN,NaN,1,NaN,1.335009e-01,NaN,2,0,2,1
29,133,1,35,NaN,NaN,1,NaN,1.594442e+00,NaN,1,1,1,1
29,134,1,78,NaN,NaN,1,NaN,6.609118e-01,NaN,2,1,2,1
29,135,1,111,NaN,NaN,1,NaN,9.728526e-01,NaN,2,0,3,1
29,136,1,65,NaN,NaN,1,NaN,2.164701e-01,NaN,0,0,2,1
29,137,1,56,NaN,NaN,1,NaN,4.180906e-01,NaN,2,0,2,1
29,138,1,144,NaN,NaN,1,NaN,5.074223e-01,NaN,1,1,3,1
29,139,1,27,NaN,NaN,1,NaN,7.696427e-01,NaN,0,0,1,1
29,140,1,7,NaN,NaN,2,NaN,3.410631e-01,NaN,0,0,1,1
29,141,1,19,NaN,NaN,1,NaN,1.198314e-04,NaN,0,1,1,1
29,142,1,3,NaN,NaN,2,NaN,1.160424e-01,NaN,0,0,1,1
29,143,1,62,NaN,NaN,1,NaN,7.780813e-01,NaN,1,0,2,1
29,144,1,11,NaN,NaN,2,NaN,6.370932e-01,NaN,0,0,1,1
29,145,1,85,NaN,NaN,1,NaN,2.778238e-01,NaN,2,0,2,1
29,146,1,103,NaN,NaN,1,NaN,7.407250e-01,NaN,2,0,3,1
29,147,1,57,NaN,NaN,1,NaN,7.695881e-01,NaN,1,1,2,1
29,148,1,49,NaN,NaN,1,NaN,4.208775e-01,NaN,2,0,2,1
29,149,1,101,NaN,NaN,2,NaN,1.526084e+00,NaN,1,0,3,1
29,150,1,105,NaN,NaN,1,NaN,1.876406e-01,NaN,1,0,3,1
29,151,1,103,NaN,NaN,1,NaN,4.221114e-01,NaN,0,0,3,1
29,152,1,77,NaN,NaN,1,NaN,4.712045e-01,NaN,0,0,2,1
29,153,1,2,NaN,NaN,2,NaN,6.548113e-01,NaN,0,0,1,1
29,154,1,84,NaN,NaN,1,NaN,5.188727e-01,NaN,0,0,2,1
29,155,1,59,NaN,NaN,1,NaN,6.760251e-01,NaN,1,1,2,1
29,156,1,15,NaN,NaN,1,NaN,8.034623e-01,NaN,0,0,1,1
29,157,1,18,NaN,NaN,1,NaN,5.495978e-01,NaN,2,0,1,1
29,158,1,42,NaN,NaN,1,NaN,1.049396e+00,NaN,0,0,1,1
29,159,1,63,NaN,NaN,1,NaN,4.497170e-01,NaN,0,1,2,1
29,160,1,81,NaN,NaN,1,NaN,1.234533e-04,NaN,1,0,2,1
29,161,1,64,NaN,NaN,1,NaN,1.964508e-01,NaN,0,0,2,1
29,162,1,136,NaN,NaN,1,NaN,1.237551e-04,NaN,0,0,3,1
29,163,1,118,NaN,NaN,1,NaN,1.453329e-01,NaN,0,0,3,1
29,164,1,73,NaN,NaN,1,NaN,6.294252e-01,NaN,2,0,2,1
29,165,1,29,NaN,NaN,1,NaN,4.624735e-01,NaN,2,1,1,1
29,166,1,22,NaN,NaN,1,NaN,6.780432e-01,NaN,0,0,1,1
29,167,1,69,NaN,NaN,1,NaN,1.092591e-01,NaN,2,0,2,1
29,168,1,72,NaN,NaN,1,NaN,8.432820e-01,NaN,0,1,2,1
29,169,1,52,NaN,NaN,1,NaN,9.558788e-01,NaN,1,0,2,1
29,170,1,37,NaN,NaN,1,NaN,1.080042e+00,NaN,1,0,1,1
29,171,1,76,NaN,NaN,1,NaN,1.988978e-01,NaN,0,0,2,1
29,172,1,125,NaN,NaN,1,NaN,9.850153e-01,NaN,2,0,3,1
29,173,1,84,NaN,NaN,1,NaN,2.837822e-01,NaN,2,0,2,1
29,174,1,123,NaN,NaN,1,NaN,3.387275e-01,NaN,1,0,3,1
29,175,1,20,NaN,NaN,1,NaN,1.435988e-01,NaN,0,0,1,1
29,176,1,136,NaN,NaN,1,NaN,5.323047e-01,NaN,2,0,3,1
29,177,1,2,NaN,NaN,1,NaN,5.210176e-01,NaN,1,0,1,1
29,178,1,48,NaN,NaN,1,NaN,1.228498e-04,NaN,0,0,1,1
29,179,1,30,NaN,NaN,1,NaN,4.566983e-01,NaN,1,0,1,1
29,180,1,5,NaN,NaN,1,NaN,9.124102e-01,NaN,0,0,1,1
29,181,1,100,NaN,NaN,2,NaN,1.638398e+00,NaN,2,1,3,1
29,182,1,137,NaN,NaN,1,NaN,6.149241e-01,NaN,0,0,3,1
29,183,1,130,NaN,NaN,2,NaN,8.960301e-01,NaN,0,0,3,1
29,184,1,53,NaN,NaN,1,NaN,7.746813e-01,NaN,1,0,2,1
29,185,1,86,NaN,NaN,1,NaN,2.041640e+00,NaN,1,0,2,1
29,186,1,74,NaN,NaN,1,NaN,1.434102e+00,NaN,1,0,2,1
29,187,1,54,NaN,NaN,1,NaN,6.835790e-01,NaN,0,0,2,1
29,188,1,11,NaN,NaN,1,NaN,1.354186e+00,NaN,1,0,1,1
29,189,1,32,NaN,NaN,1,NaN,7.419912e-01,NaN,2,0,1,1
29,190,1,42,NaN,NaN,1,NaN,3.622229e-01,NaN,2,0,1,1
29,191,1,82,NaN,NaN,1,NaN,7.102564e-01,NaN,2,0,2,1
29,192,1,139,NaN,NaN,1,NaN,2.840270e-01,NaN,0,0,3,1
29,193,1,144,NaN,NaN,1,NaN,7.552765e-01,NaN,0,1,3,1
29,194,1,36,NaN,NaN,1,NaN,5.192310e-01,NaN,0,0,1,1
29,195,1,67,NaN,NaN,1,NaN,4.846930e-01,NaN,2,1,2,1
29,196,1,91,NaN,NaN,1,NaN,6.596275e-01,NaN,0,0,2,1
29,197,1,111,NaN,NaN,1,NaN,5.793565e-01,NaN,0,0,3,1
29,198,1,113,NaN,NaN,1,NaN,1.702406e+00,NaN,2,1,3,1
29,199,1,134,NaN,NaN,1,NaN,4.846085e-01,NaN,0,0,3,1
29,200,1,85,NaN,NaN,1,NaN,5.557394e-01,NaN,0,0,2,1
29,201,1,40,NaN,NaN,1,NaN,6.311438e-01,NaN,0,0,1,1
29,202,1,61,NaN,NaN,1,NaN,4.164479e-01,NaN,0,0,2,1
29,203,1,44,NaN,NaN,1,NaN,2.521772e+00,NaN,2,0,1,1
29,204,1,130,NaN,NaN,2,NaN,1.228498e-04,NaN,2,0,3,1
29,205,1,140,NaN,NaN,1,NaN,1.056210e-01,NaN,0,0,3,1
29,206,1,142,NaN,NaN,1,NaN,1.999279e+00,NaN,0,0,3,1
29,207,1,89,NaN,NaN,1,NaN,3.135046e-01,NaN,0,0,2,1
29,208,1,71,NaN,NaN,1,NaN,4.150718e-01,NaN,1,1,2,1
29,209,1,81,NaN,NaN,1,NaN,1.448880e+00,NaN,0,0,2,1
29,210,1,119,NaN,NaN,1,NaN,1.384810e+00,NaN,1,0,3,1
29,211,1,9,NaN,NaN,1,NaN,1.235127e-01,NaN,0,0,1,1
29,212,1,25,NaN,NaN,1,NaN,8.485310e-01,NaN,1,0,1,1
29,213,1,58,NaN,NaN,1,NaN,7.290419e-01,NaN,0,0,2,1
29,214,1,41,NaN,NaN,1,NaN,5.097960e-01,NaN,1,0,1,1
29,215,1,57,NaN,NaN,1,NaN,5.558103e-01,NaN,0,1,2,1
29,216,1,4,NaN,NaN,1,NaN,1.282546e-01,NaN,2,1,1,1
29,217,1,129,NaN,NaN,1,NaN,4.605205e-01,NaN,2,0,3,1
29,218,1,49,NaN,NaN,1,NaN,5.168184e-01,NaN,0,0,2,1
29,219,1,133,NaN,NaN,1,NaN,9.943631e-01,NaN,0,0,3,1
29,220,1,106,NaN,NaN,1,NaN,2.533098e+00,NaN,0,1,3,1
29,221,1,32,NaN,NaN,1,NaN,1.649662e+00,NaN,0,0,1,1
29,222,1,94,NaN,NaN,1,NaN,5.067329e-02,NaN,2,1,2,1
29,223,1,10,NaN,NaN,1,NaN,9.220894e-01,NaN,0,1,1,1
29,224,1,125,NaN,NaN,1,NaN,1.833433e-01,NaN,0,0,3,1
29,225,1,33,NaN,NaN,1,NaN,1.017962e+00,NaN,0,0,1,1
29,226,1,20,NaN,NaN,1,NaN,1.246613e-04,NaN,1,0,1,1
29,227,1,121,NaN,NaN,1,NaN,1.861968e+00,NaN,1,1,3,1
29,228,1,106,NaN,NaN,1,NaN,1.037352e+00,NaN,1,1,3,1
29,229,1,9,NaN,NaN,1,NaN,4.303209e-01,NaN,2,0,1,1
29,230,1,63,NaN,NaN,1,NaN,2.790369e-01,NaN,2,1,2,1
29,231,1,114,NaN,NaN,1,NaN,3.438031e+00,NaN,0,1,3,1
29,232,1,132,NaN,NaN,1,NaN,9.182101e-01,NaN,2,0,3,1
29,233,1,4,NaN,NaN,1,NaN,8.436300e-01,NaN,0,1,1,1
29,234,1,28,NaN,NaN,1,NaN,6.204671e-01,NaN,2,1,1,1
29,235,1,101,NaN,NaN,1,NaN,1.125549e+00,NaN,0,0,3,1
29,236,1,113,NaN,NaN,1,NaN,2.030596e-01,NaN,0,1,3,1
29,237,1,141,NaN,NaN,1,NaN,5.890145e-01,NaN,0,0,3,1
29,238,1,76,NaN,NaN,1,NaN,1.249630e-04,NaN,1,0,2,1
29,239,1,129,NaN,NaN,1,NaN,5.938500e-01,NaN,0,0,3,1
29,240,1,75,NaN,NaN,1,NaN,4.602643e-01,NaN,2,0,2,1
29,241,1,87,NaN,NaN,1,NaN,1.628392e+00,NaN,0,0,2,1
29,242,1,98,NaN,NaN,1,NaN,5.490663e-01,NaN,1,1,3,1
29,243,1,45,NaN,NaN,2,NaN,5.693217e-01,NaN,1,0,1,1
29,244,1,16,NaN,NaN,1,NaN,1.556762e+00,NaN,1,0,1,1
29,245,1,47,NaN,NaN,1,NaN,2.509125e-02,NaN,1,1,1,1
29,246,1,115,NaN,NaN,2,NaN,3.781822e-01,NaN,2,0,3,1
29,247,1,45,NaN,NaN,1,NaN,9.973900e-01,NaN,0,0,1,1
29,248,1,60,NaN,NaN,1,NaN,5.114881e-01,NaN,1,0,2,1
29,249,1,93,NaN,NaN,1,NaN,4.769015e-01,NaN,2,0,2,1
29,250,1,116,NaN,NaN,1,NaN,6.203488e-01,NaN,2,1,3,1
29,251,1,54,NaN,NaN,1,NaN,6.373787e-01,NaN,1,0,2,1
29,252,1,19,NaN,NaN,1,NaN,4.622579e-01,NaN,1,1,1,1
29,253,1,47,NaN,NaN,1,NaN,1.240568e-04,NaN,0,1,1,1
29,254,1,98,NaN,NaN,1,NaN,8.879812e-01,NaN,0,1,3,1
29,255,1,23,NaN,NaN,1,NaN,1.107994e-01,NaN,0,1,1,1
29,256,1,70,NaN,NaN,1,NaN,1.255665e-04,NaN,0,1,2,1
29,257,1,70,NaN,NaN,1,NaN,1.322078e-04,NaN,1,1,2,1
29,258,1,26,NaN,NaN,1,NaN,1.209261e+00,NaN,1,1,1,1
29,259,1,24,NaN,NaN,1,NaN,5.633522e-01,NaN,0,1,1,1
29,260,1,89,NaN,NaN,1,NaN,3.666527e-01,NaN,1,0,2,1
29,261,1,124,NaN,NaN,1,NaN,4.186173e-01,NaN,0,0,3,1
29,262,1,7,NaN,NaN,1,NaN,6.201145e-01,NaN,1,0,1,1
29,263,1,86,NaN,NaN,1,NaN,9.733105e-01,NaN,0,0,2,1
29,264,1,112,NaN,NaN,1,NaN,1.368451e+00,NaN,0,0,3,1
29,265,1,135,NaN,NaN,1,NaN,9.639679e-01,NaN,0,0,3,1
29,266,1,46,NaN,NaN,2,NaN,1.918646e-01,NaN,1,1,1,1
29,267,1,36,NaN,NaN,1,NaN,2.025105e-01,NaN,2,0,1,1
29,268,1,95,NaN,NaN,1,NaN,1.828541e+00,NaN,0,0,2,1
29,269,1,72,NaN,NaN,1,NaN,1.165671e+00,NaN,2,1,2,1
29,270,1,6,NaN,NaN,1,NaN,4.089692e-01,NaN,1,1,1,1
29,271,1,15,NaN,NaN,1,NaN,2.271077e-01,NaN,2,0,1,1
29,272,1,131,NaN,NaN,1,NaN,4.930616e-01,NaN,2,0,3,1
29,273,1,75,NaN,NaN,1,NaN,2.507069e-01,NaN,0,0,2,1
29,274,1,100,NaN,NaN,1,NaN,3.871324e-01,NaN,0,1,3,1
29,275,1,94,NaN,NaN,1,NaN,9.978759e-01,NaN,0,1,2,1
29,276,1,17,NaN,NaN,1,NaN,5.683296e-01,NaN,2,0,1,1
29,277,1,38,NaN,NaN,1,NaN,8.755380e-01,NaN,0,0,1,1
29,278,1,107,NaN,NaN,1,NaN,1.370924e+00,NaN,1,0,3,1
29,279,1,17,NaN,NaN,1,NaN,3.022220e+00,NaN,0,0,1,1
29,280,1,79,NaN,NaN,1,NaN,1.470838e+00,NaN,1,0,2,1
29,281,1,31,NaN,NaN,1,NaN,1.234533e-04,NaN,0,0,1,1
29,282,1,99,NaN,NaN,2,NaN,4.884080e-01,NaN,1,0,3,1
29,283,1,143,NaN,NaN,1,NaN,1.895036e+00,NaN,0,0,3,1
29,284,1,67,NaN,NaN,1,NaN,4.212427e-01,NaN,0,1,2,1
29,285,1,77,NaN,NaN,1,NaN,4.945895e-01,NaN,1,0,2,1
29,286,1,110,NaN,NaN,1,NaN,6.210596e-01,NaN,0,1,3,1
29,287,1,107,NaN,NaN,1,NaN,9.476461e-02,NaN,0,0,3,1
29,288,1,46,NaN,NaN,2,NaN,1.886765e-01,NaN,0,1,1,1
29,344,2,41,72,1,0,0,3.499848e+00,NaN,1,0,1,1
29,345,2,53,12,1,1,1,9.795143e-01,NaN,1,0,2,1
29,346,2,70,56,1,2,0,1.385547e+00,NaN,1,1,2,1
29,347,2,24,49,2,2,1,2.167986e+00,NaN,1,1,1,1
29,348,2,7,61,1,1,1,8.784318e-01,NaN,1,0,1,1
29,349,2,118,18,2,2,1,1.649052e+00,NaN,1,0,3,1
29,350,2,65,46,2,2,1,2.060674e+00,NaN,1,0,2,1
29,351,2,142,29,2,0,0,3.500074e+00,NaN,1,0,3,1
29,352,2,6,54,1,2,0,3.008612e+00,NaN,1,1,1,1
29,353,2,141,25,2,1,0,2.286077e+00,NaN,1,0,3,1
29,354,2,71,51,1,0,0,3.499837e+00,NaN,1,1,2,1
29,355,2,62,38,2,2,1,9.771306e-01,NaN,1,0,2,1
29,356,2,25,53,2,2,1,1.111961e+00,NaN,1,0,1,1
29,357,2,59,27,2,2,1,9.364601e-01,NaN,1,1,2,1
29,358,2,144,19,1,1,1,1.000782e+00,NaN,1,1,3,1
29,359,2,104,23,1,0,0,3.499962e+00,NaN,1,0,3,1
29,360,2,114,47,2,2,1,2.543613e+00,NaN,1,1,3,1
29,361,2,46,58,1,2,0,2.848001e+00,NaN,1,1,1,1
29,362,2,35,5,1,2,0,3.483081e+00,NaN,1,1,1,1
29,363,2,89,16,2,0,0,3.499831e+00,NaN,1,0,2,1
29,364,2,11,11,1,0,0,3.499616e+00,NaN,1,0,1,1
29,365,2,40,9,2,1,0,7.028054e-01,NaN,1,0,1,1
29,366,2,105,62,2,0,0,3.499744e+00,NaN,1,0,3,1
29,367,2,43,40,1,0,0,3.500019e+00,NaN,1,0,1,1
29,368,3,144,19,1,1,1,1.353655e+00,NaN,1,1,3,1
29,369,3,62,38,2,2,1,4.566413e-01,NaN,1,0,2,1
29,370,3,105,62,2,2,1,9.004886e-01,NaN,1,0,3,1
29,371,3,46,58,1,1,1,1.350098e+00,NaN,1,1,1,1
29,372,3,7,61,1,1,1,5.736305e-01,NaN,1,0,1,1
29,373,3,71,51,2,2,1,9.237498e-01,NaN,1,1,2,1
29,374,3,43,40,2,2,1,1.460175e+00,NaN,1,0,1,1
29,375,3,114,47,2,2,1,1.039186e+00,NaN,1,1,3,1
29,376,3,41,72,2,2,1,2.491164e+00,NaN,1,0,1,1
29,377,3,118,18,1,1,1,2.868838e+00,NaN,1,0,3,1
29,378,3,89,16,1,1,1,1.415545e+00,NaN,1,0,2,1
29,379,3,53,12,1,1,1,5.164260e-01,NaN,1,0,2,1
29,380,3,104,23,2,2,1,1.933348e+00,NaN,1,0,3,1
29,381,3,6,54,1,1,1,1.749175e+00,NaN,1,1,1,1
29,382,3,35,5,2,2,1,1.172739e+00,NaN,1,1,1,1
29,383,3,59,27,1,1,1,7.229951e-01,NaN,1,1,2,1
29,384,3,40,9,2,1,0,1.531612e+00,NaN,1,0,1,1
29,385,3,70,56,1,2,0,7.156129e-01,NaN,1,1,2,1
29,386,3,25,53,2,2,1,1.044617e+00,NaN,1,0,1,1
29,387,3,11,11,2,2,1,1.432773e+00,NaN,1,0,1,1
29,388,3,142,29,2,2,1,2.036749e+00,NaN,1,0,3,1
29,389,3,141,25,2,2,1,9.605574e-01,NaN,1,0,3,1
29,390,3,65,46,2,2,1,7.839301e-01,NaN,1,0,2,1
29,391,3,24,49,2,2,1,9.898623e-01,NaN,1,1,1,1
29,416,2,101,20,2,2,1,1.632211e+00,NaN,1,0,3,2
29,417,2,137,59,1,2,0,1.220280e+00,NaN,1,0,3,2
29,418,2,79,1,2,2,1,1.569199e+00,NaN,1,0,2,2
29,419,2,52,45,2,2,1,7.200880e-01,NaN,1,0,2,2
29,420,2,102,6,2,2,1,1.009355e+00,NaN,1,1,3,2
29,421,2,117,52,2,2,1,2.230234e+00,NaN,1,0,3,2
29,422,2,77,41,2,1,0,1.474350e+00,NaN,1,0,2,2
29,423,2,39,22,2,2,1,2.484620e+00,NaN,1,1,1,2
29,424,2,60,30,2,2,1,9.669742e-01,NaN,1,0,2,2
29,425,2,30,3,1,1,1,1.053480e+00,NaN,1,0,1,2
29,426,2,13,71,1,0,0,3.499736e+00,NaN,1,0,1,2
29,427,2,54,28,1,0,0,3.499883e+00,NaN,1,0,2,2
29,428,2,90,60,1,1,1,8.673521e-01,NaN,1,0,2,2
29,429,2,47,55,1,1,1,1.485823e+00,NaN,1,1,1,2
29,430,2,2,42,1,1,1,1.080548e+00,NaN,1,0,1,2
29,431,2,57,24,1,1,1,8.104753e-01,NaN,1,1,2,2
29,432,2,58,44,1,1,1,1.295462e+00,NaN,1,0,2,2
29,433,2,99,39,1,1,1,1.657193e+00,NaN,1,0,3,2
29,434,2,74,57,1,1,1,1.188255e+00,NaN,1,0,2,2
29,435,2,55,66,2,2,1,1.130028e+00,NaN,1,0,2,2
29,436,2,107,70,1,1,1,2.474763e+00,NaN,1,0,3,2
29,437,2,19,67,2,0,0,3.500032e+00,NaN,1,1,1,2
29,438,2,106,43,1,1,1,1.958424e+00,NaN,1,1,3,2
29,439,2,16,50,1,1,1,1.933139e+00,NaN,1,0,1,2
29,440,3,117,52,2,2,1,8.918765e-01,NaN,1,0,3,2
29,441,3,19,67,2,2,1,1.285946e+00,NaN,1,1,1,2
29,442,3,137,59,2,2,1,1.408344e+00,NaN,1,0,3,2
29,443,3,74,57,1,1,1,5.731388e-01,NaN,1,0,2,2
29,444,3,107,70,1,1,1,1.819832e+00,NaN,1,0,3,2
29,445,3,57,24,2,2,1,6.966551e-01,NaN,1,1,2,2
29,446,3,77,41,2,2,1,6.099023e-01,NaN,1,0,2,2
29,447,3,47,55,1,1,1,5.191395e-01,NaN,1,1,1,2
29,448,3,90,60,2,2,1,7.364917e-01,NaN,1,0,2,2
29,449,3,30,3,2,2,1,1.392105e+00,NaN,1,0,1,2
29,450,3,54,28,1,1,1,6.942060e-01,NaN,1,0,2,2
29,451,3,102,6,1,1,1,1.704488e+00,NaN,1,1,3,2
29,452,3,58,44,2,2,1,9.053610e-01,NaN,1,0,2,2
29,453,3,16,50,1,1,1,7.623487e-01,NaN,1,0,1,2
29,454,3,13,71,1,1,1,4.492512e-01,NaN,1,0,1,2
29,455,3,106,43,2,1,0,8.209502e-01,NaN,1,1,3,2
29,456,3,52,45,2,2,1,7.936283e-01,NaN,1,0,2,2
29,457,3,39,22,2,2,1,1.767202e+00,NaN,1,1,1,2
29,458,3,55,66,1,1,1,1.022343e+00,NaN,1,0,2,2
29,459,3,101,20,2,2,1,9.307812e-01,NaN,1,0,3,2
29,460,3,79,1,2,2,1,1.155222e+00,NaN,1,0,2,2
29,461,3,2,42,2,2,1,9.306110e-01,NaN,1,0,1,2
29,462,3,99,39,1,1,1,1.323177e+00,NaN,1,0,3,2
29,463,3,60,30,2,2,1,7.793397e-01,NaN,1,0,2,2
29,488,2,20,14,1,1,1,1.587819e+00,NaN,1,0,1,3
29,489,2,61,63,1,1,1,7.616092e-01,NaN,1,0,2,3
29,490,2,112,32,1,1,1,1.168777e+00,NaN,1,0,3,3
29,491,2,86,34,2,2,1,1.695334e+00,NaN,1,0,2,3
29,492,2,83,35,1,1,1,7.927961e-01,NaN,1,0,2,3
29,493,2,45,36,1,1,1,8.307703e-01,NaN,1,0,1,3
29,494,2,134,68,1,1,1,2.554478e+00,NaN,1,0,3,3
29,495,2,98,31,2,0,0,3.499731e+00,NaN,1,1,3,3
29,496,2,123,65,2,2,1,1.339591e+00,NaN,1,0,3,3
29,497,2,22,17,2,2,1,1.131211e+00,NaN,1,0,1,3
29,498,2,37,33,2,2,1,1.875491e+00,NaN,1,0,1,3
29,499,2,26,69,1,1,1,7.417374e-01,NaN,1,1,1,3
29,500,2,81,7,1,1,1,1.054013e+00,NaN,1,0,2,3
29,501,2,80,2,1,1,1,8.094853e-01,NaN,1,0,2,3
29,502,2,51,26,2,1,0,7.027728e-01,NaN,1,0,2,3
29,503,2,34,48,1,1,1,1.496221e+00,NaN,1,0,1,3
29,504,2,119,8,2,2,1,1.561302e+00,NaN,1,0,3,3
29,505,2,133,10,2,2,1,1.112409e+00,NaN,1,0,3,3
29,506,2,127,37,2,1,0,1.881220e+00,NaN,1,0,3,3
29,507,2,76,64,2,2,1,1.443584e+00,NaN,1,0,2,3
29,508,2,121,13,2,2,1,1.143819e+00,NaN,1,1,3,3
29,509,2,108,4,1,1,1,1.304499e+00,NaN,1,0,3,3
29,510,2,3,15,2,2,1,1.776530e+00,NaN,1,0,1,3
29,511,2,120,21,1,1,1,2.751451e+00,NaN,1,0,3,3
29,512,3,86,34,1,1,1,7.708507e-01,NaN,1,0,2,3
29,513,3,3,15,2,2,1,8.892039e-01,NaN,1,0,1,3
29,514,3,34,48,2,2,1,9.626048e-01,NaN,1,0,1,3
29,515,3,76,64,2,2,1,5.292902e-01,NaN,1,0,2,3
29,516,3,61,63,2,2,1,7.056153e-01,NaN,1,0,2,3
29,517,3,112,32,1,1,1,2.786951e+00,NaN,1,0,3,3
29,518,3,26,69,2,2,1,9.209034e-01,NaN,1,1,1,3
29,519,3,98,31,2,2,1,1.441558e+00,NaN,1,1,3,3
29,520,3,127,37,1,2,0,1.261612e+00,NaN,1,0,3,3
29,521,3,83,35,1,1,1,8.411147e-01,NaN,1,0,2,3
29,522,3,119,8,2,2,1,4.929625e-01,NaN,1,0,3,3
29,523,3,121,13,1,1,1,1.134698e+00,NaN,1,1,3,3
29,524,3,123,65,2,2,1,7.990518e-01,NaN,1,0,3,3
29,525,3,22,17,1,1,1,1.052528e+00,NaN,1,0,1,3
29,526,3,81,7,2,2,1,6.238824e-01,NaN,1,0,2,3
29,527,3,134,68,2,2,1,1.372562e+00,NaN,1,0,3,3
29,528,3,20,14,2,2,1,2.146868e+00,NaN,1,0,1,3
29,529,3,51,26,1,1,1,4.903254e-01,NaN,1,0,2,3
29,530,3,45,36,2,2,1,1.588396e+00,NaN,1,0,1,3
29,531,3,133,10,1,1,1,1.562098e+00,NaN,1,0,3,3
29,532,3,80,2,2,2,1,5.693776e-01,NaN,1,0,2,3
29,533,3,120,21,1,1,1,1.440204e+00,NaN,1,0,3,3
29,534,3,37,33,1,1,1,1.068004e+00,NaN,1,0,1,3
29,535,3,108,4,1,1,1,1.463667e+00,NaN,1,0,3,3
29,560,4,69,71,1,1,1,8.175061e-01,NaN,2,0,2,1
29,561,4,12,25,1,1,1,1.614052e+00,NaN,2,0,1,1
29,562,4,96,59,2,2,1,5.869937e-01,NaN,2,0,2,1
29,563,4,140,28,2,2,1,1.032991e+00,NaN,2,0,3,1
29,564,4,33,7,2,2,1,1.717112e+00,NaN,2,0,1,1
29,565,4,15,18,1,1,1,1.389632e+00,NaN,2,0,1,1
29,566,4,103,15,2,2,1,8.512950e-01,NaN,2,0,3,1
29,567,4,72,58,1,1,1,9.189870e-01,NaN,2,1,2,1
29,568,4,14,4,1,1,1,1.344201e+00,NaN,2,0,1,1
29,569,4,42,2,2,2,1,9.038720e-01,NaN,2,0,1,1
29,570,4,91,29,2,2,1,7.930334e-01,NaN,2,0,2,1
29,571,4,122,17,2,2,1,7.675159e-01,NaN,2,0,3,1
29,572,4,64,33,1,1,1,9.984817e-01,NaN,2,0,2,1
29,573,4,143,16,2,2,1,1.036175e+00,NaN,2,0,3,1
29,574,4,129,66,2,2,1,1.432049e+00,NaN,2,0,3,1
29,575,4,4,19,2,2,1,1.100682e+00,NaN,2,1,1,1
29,576,4,124,72,1,1,1,7.344165e-01,NaN,2,0,3,1
29,577,4,116,54,1,1,1,1.638668e+00,NaN,2,1,3,1
29,578,4,93,37,1,1,1,1.106243e+00,NaN,2,0,2,1
29,579,4,78,31,1,2,0,2.003688e+00,NaN,2,1,2,1
29,580,4,29,56,2,2,1,1.480674e+00,NaN,2,1,1,1
29,581,4,88,68,1,1,1,1.154846e+00,NaN,2,0,2,1
29,582,4,73,61,2,1,0,2.041790e+00,NaN,2,0,2,1
29,583,4,66,42,2,2,1,1.773834e+00,NaN,2,0,2,1
29,608,4,84,52,1,1,1,8.478313e-01,NaN,2,0,2,2
29,609,4,139,64,1,1,1,6.839062e-01,NaN,2,0,3,2
29,610,4,94,6,1,1,1,1.318020e+00,NaN,2,1,2,2
29,611,4,92,8,1,1,1,1.110450e+00,NaN,2,0,2,2
29,612,4,32,38,2,1,0,8.080413e-01,NaN,2,0,1,2
29,613,4,63,69,1,1,1,1.549438e+00,NaN,2,1,2,2
29,614,4,132,26,1,1,1,2.797400e+00,NaN,2,0,3,2
29,615,4,82,21,1,1,1,6.982911e-01,NaN,2,0,2,2
29,616,4,5,20,1,1,1,7.162507e-01,NaN,2,0,1,2
29,617,4,23,27,2,2,1,1.532444e+00,NaN,2,1,1,2
29,618,4,113,22,1,1,1,1.532664e+00,NaN,2,1,3,2
29,619,4,130,34,1,1,1,2.060873e+00,NaN,2,0,3,2
29,620,4,131,30,2,2,1,1.032690e+00,NaN,2,0,3,2
29,621,4,136,12,2,2,1,2.612470e+00,NaN,2,0,3,2
29,622,4,100,49,1,2,0,8.975840e-01,NaN,2,1,3,2
29,623,4,97,5,1,1,1,2.899203e+00,NaN,2,1,3,2
29,624,4,67,67,2,2,1,7.727115e-01,NaN,2,1,2,2
29,625,4,128,57,1,1,1,2.251165e+00,NaN,2,0,3,2
29,626,4,31,60,2,2,1,9.024530e-01,NaN,2,0,1,2
29,627,4,68,48,1,1,1,5.683691e-01,NaN,2,0,2,2
29,628,4,138,24,2,2,1,7.827985e-01,NaN,2,1,3,2
29,629,4,9,70,2,2,1,1.909135e+00,NaN,2,0,1,2
29,630,4,115,50,1,1,1,1.622585e+00,NaN,2,0,3,2
29,631,4,111,36,2,2,1,1.490897e+00,NaN,2,0,3,2
29,656,4,48,44,1,2,0,7.975163e-01,NaN,2,0,1,3
29,657,4,36,63,2,2,1,1.890724e+00,NaN,2,0,1,3
29,658,4,75,11,2,2,1,9.008520e-01,NaN,2,0,2,3
29,659,4,56,14,2,2,1,9.743672e-01,NaN,2,0,2,3
29,660,4,85,10,2,2,1,7.244267e-01,NaN,2,0,2,3
29,661,4,135,45,1,1,1,8.545235e-01,NaN,2,0,3,3
29,662,4,126,41,1,1,1,1.256372e+00,NaN,2,0,3,3
29,663,4,17,32,2,1,0,1.411692e+00,NaN,2,0,1,3
29,664,4,1,13,1,1,1,8.407329e-01,NaN,2,1,1,3
29,665,4,50,3,2,2,1,8.526400e-01,NaN,2,0,2,3
29,666,4,27,1,1,1,1,1.263763e+00,NaN,2,0,1,3
29,667,4,87,39,2,2,1,3.090851e+00,NaN,2,0,2,3
29,668,4,44,35,2,1,0,2.187958e+00,NaN,2,0,1,3
29,669,4,28,51,2,2,1,1.297694e+00,NaN,2,1,1,3
29,670,4,8,47,2,2,1,9.480771e-01,NaN,2,1,1,3
29,671,4,110,55,2,2,1,1.307712e+00,NaN,2,1,3,3
29,672,4,21,23,1,1,1,1.228515e+00,NaN,2,0,1,3
29,673,4,38,46,2,2,1,1.368385e+00,NaN,2,0,1,3
29,674,4,49,40,2,2,1,7.514063e-01,NaN,2,0,2,3
29,675,4,125,53,1,2,0,7.031142e-01,NaN,2,0,3,3
29,676,4,10,43,2,2,1,1.384586e+00,NaN,2,1,1,3
29,677,4,95,62,1,2,0,1.166558e+00,NaN,2,0,2,3
29,678,4,109,9,2,2,1,1.701256e+00,NaN,2,0,3,3
29,679,4,18,65,1,1,1,2.751494e+00,NaN,2,0,1,3
29,680,5,6.232000e+01,38,2,3,0,9.706144e-01,1,1,0,2.100000e+00,1
29,681,5,2.056000e+01,14,1,1,1,4.609582e-01,1,1,0,1.200000e+00,1
29,682,5,1.348800e+02,68,3,2,0,8.227995e-01,1,1,0,3.200000e+00,1
29,683,5,1.279300e+02,37,3,2,0,2.328595e+00,1,1,0,3.200000e+00,1
29,684,5,9.987000e+01,39,3,0,0,2.500456e+00,1,1,0,3.200000e+00,1
29,685,5,4.109000e+01,9,1,1,1,5.011844e-01,1,1,0,1.300000e+00,1
29,686,5,1.178400e+02,52,3,2,0,5.269566e-01,1,1,0,3.200000e+00,1
29,687,5,5.629000e+01,66,2,2,1,8.328654e-01,1,1,0,2.300000e+00,1
29,688,5,5.436000e+01,12,2,2,1,3.943642e-01,1,1,0,2.300000e+00,1
29,689,5,8.344000e+01,35,2,0,0,2.500199e+00,1,1,0,2.100000e+00,1
29,690,5,1.369000e+01,71,1,1,1,6.301297e-01,1,1,0,1.200000e+00,1
29,691,5,6.131000e+01,30,2,2,1,1.079559e+00,1,1,0,2.300000e+00,1
29,692,5,8.730000e+01,34,2,2,1,1.937112e+00,1,1,0,2.300000e+00,1
29,693,5,3.468000e+01,48,1,1,1,1.035387e+00,1,1,0,1.200000e+00,1
29,694,5,9.031000e+01,60,2,2,1,6.369045e-01,1,1,0,2.100000e+00,1
29,695,5,8.133000e+01,7,2,3,0,4.946031e-01,1,1,0,2.100000e+00,1
29,696,5,3.050000e+01,3,1,1,1,3.445497e-01,1,1,0,1.200000e+00,1
29,697,5,1.369000e+01,71,1,1,1,6.339914e-01,2,1,0,1.200000e+00,1
29,698,5,1.348800e+02,68,3,3,1,1.291787e+00,2,1,0,3.200000e+00,1
29,699,5,1.208200e+02,21,3,3,1,4.457783e-01,1,1,0,3.200000e+00,1
29,700,5,7.927000e+01,1,2,3,0,1.391128e+00,1,1,0,2.100000e+00,1
29,701,5,7.927000e+01,1,2,3,0,2.480642e+00,2,1,0,2.100000e+00,1
29,702,5,1.081400e+02,4,3,1,0,7.312888e-01,1,1,0,3.100000e+00,1
29,703,5,1.338500e+02,10,3,0,0,2.500060e+00,1,1,0,3.200000e+00,1
29,704,5,7.739000e+01,64,2,2,1,7.022784e-01,1,1,0,2.300000e+00,1
29,705,5,8.730000e+01,34,2,0,0,2.500571e+00,2,1,0,2.300000e+00,1
29,706,5,6.131000e+01,30,2,2,1,5.784180e-01,2,1,0,2.300000e+00,1
29,707,5,1.379600e+02,59,3,3,1,3.561764e-01,1,1,0,3.200000e+00,1
29,708,5,5.436000e+01,12,2,2,1,4.135321e-01,2,1,0,2.300000e+00,1
29,709,5,1.181500e+02,18,3,3,1,5.353657e-01,1,1,0,3.100000e+00,1
29,710,5,7.528000e+01,57,2,2,1,3.609566e-01,1,1,0,2.300000e+00,1
29,711,5,1.042100e+02,23,3,3,1,5.706266e-01,1,1,0,3.100000e+00,1
29,712,5,5.232000e+01,26,2,2,1,5.085684e-01,1,1,0,2.300000e+00,1
29,713,5,1.231800e+02,65,3,3,1,1.246171e+00,1,1,0,3.100000e+00,1
29,714,5,1.070900e+02,70,3,1,0,1.375753e+00,1,1,0,3.100000e+00,1
29,715,5,7.927000e+01,1,2,0,0,2.500277e+00,3,1,0,2.100000e+00,1
29,716,5,4.611000e+01,36,1,3,0,5.719372e-01,1,1,0,1.300000e+00,1
29,717,5,3.050000e+01,3,1,0,0,2.500581e+00,2,1,0,1.200000e+00,1
29,718,5,7.730000e+00,61,1,1,1,3.192879e-01,1,1,0,1.200000e+00,1
29,719,5,4.224000e+01,72,1,3,0,5.451146e-01,1,1,0,1.300000e+00,1
29,720,5,2.322000e+01,17,1,1,1,7.784438e-01,1,1,0,1.300000e+00,1
29,721,5,1.081400e+02,4,3,1,0,6.597277e-01,2,1,0,3.100000e+00,1
29,722,5,4.030000e+00,15,1,0,0,2.500217e+00,1,1,0,1.300000e+00,1
29,723,5,7.826000e+01,41,2,3,0,4.400251e-01,1,1,0,2.300000e+00,1
29,724,5,5.436000e+01,12,2,3,0,8.571833e-01,3,1,0,2.300000e+00,1
29,725,5,5.540000e+01,28,2,2,1,1.490995e+00,1,1,0,2.300000e+00,1
29,726,5,5.848000e+01,44,2,1,0,4.206873e-01,1,1,0,2.100000e+00,1
29,727,5,5.540000e+01,28,2,2,1,9.737590e-01,2,1,0,2.300000e+00,1
29,728,5,5.629000e+01,66,2,2,1,7.357011e-01,2,1,0,2.300000e+00,1
29,729,5,1.279300e+02,37,3,3,1,6.335218e-01,2,1,0,3.200000e+00,1
29,730,5,1.715000e+01,50,1,3,0,1.019224e+00,1,1,0,1.300000e+00,1
29,731,5,9.043000e+01,16,2,3,0,4.688698e-01,1,1,0,2.300000e+00,1
29,732,5,8.042000e+01,2,2,1,0,1.399067e+00,1,1,0,2.100000e+00,1
29,733,5,8.042000e+01,2,2,2,1,5.441632e-01,2,1,0,2.100000e+00,1
29,734,5,9.987000e+01,39,3,1,0,1.074260e+00,2,1,0,3.200000e+00,1
29,735,5,4.030000e+00,15,1,3,0,8.598757e-01,2,1,0,1.300000e+00,1
29,736,5,1.199200e+02,8,3,3,1,6.133750e-01,1,1,0,3.200000e+00,1
29,737,5,1.178400e+02,52,3,3,1,1.311258e+00,2,1,0,3.200000e+00,1
29,738,5,2.056000e+01,14,1,1,1,5.605173e-01,2,1,0,1.200000e+00,1
29,739,5,1.208200e+02,21,3,3,1,5.226895e-01,2,1,0,3.200000e+00,1
29,740,5,4.349000e+01,40,1,1,1,6.921610e-01,1,1,0,1.200000e+00,1
29,741,5,4.611000e+01,36,1,3,0,7.337760e-01,2,1,0,1.300000e+00,1
29,742,5,1.175000e+01,11,1,1,1,4.556862e-01,1,1,0,1.200000e+00,1
29,743,5,1.379600e+02,59,3,1,0,3.933697e-01,2,1,0,3.200000e+00,1
29,744,5,5.629000e+01,66,2,3,0,3.706340e-01,3,1,0,2.300000e+00,1
29,745,5,5.848000e+01,44,2,1,0,4.605362e-01,2,1,0,2.100000e+00,1
29,746,5,1.379600e+02,59,3,2,0,1.214247e+00,3,1,0,3.200000e+00,1
29,747,5,3.468000e+01,48,1,1,1,4.401115e-01,2,1,0,1.200000e+00,1
29,748,5,6.538000e+01,46,2,1,0,4.251054e-01,1,1,0,2.100000e+00,1
29,749,5,1.042100e+02,23,3,3,1,1.202918e+00,2,1,0,3.100000e+00,1
29,750,5,1.178400e+02,52,3,1,0,1.404614e+00,3,1,0,3.200000e+00,1
29,751,5,5.540000e+01,28,2,0,0,2.500121e+00,3,1,0,2.300000e+00,1
29,752,5,2.660000e+00,42,1,1,1,1.608443e+00,1,1,0,1.200000e+00,1
29,753,5,3.050000e+01,3,1,1,1,1.306244e+00,3,1,0,1.200000e+00,1
29,754,5,1.010500e+02,20,3,3,1,9.240867e-01,1,1,0,3.100000e+00,1
29,755,5,9.031000e+01,60,2,2,1,4.297477e-01,2,1,0,2.100000e+00,1
29,756,5,2.660000e+00,42,1,1,1,5.992237e-01,2,1,0,1.200000e+00,1
29,757,5,8.133000e+01,7,2,2,1,4.806465e-01,2,1,0,2.100000e+00,1
29,758,5,8.730000e+01,34,2,2,1,4.340158e-01,3,1,0,2.300000e+00,1
29,759,5,1.379600e+02,59,3,2,0,4.521109e-01,4,1,0,3.200000e+00,1
29,760,5,1.042100e+02,23,3,2,0,8.774831e-01,3,1,0,3.100000e+00,1
29,761,5,6.232000e+01,38,2,2,1,1.095644e+00,2,1,0,2.100000e+00,1
29,762,5,6.232000e+01,38,2,2,1,6.169877e-01,3,1,0,2.100000e+00,1
29,763,5,5.335000e+01,45,2,3,0,1.475103e+00,1,1,0,2.300000e+00,1
29,764,5,1.429100e+02,29,3,2,0,1.036771e+00,1,1,0,3.200000e+00,1
29,765,5,8.344000e+01,35,2,1,0,7.340328e-01,2,1,0,2.100000e+00,1
29,766,5,2.056000e+01,14,1,1,1,5.678925e-01,3,1,0,1.200000e+00,1
29,767,5,6.136000e+01,63,2,2,1,5.699767e-01,1,1,0,2.100000e+00,1
29,768,5,6.136000e+01,63,2,1,0,5.635589e-01,2,1,0,2.100000e+00,1
29,769,5,2.625000e+01,53,1,1,1,4.128364e-01,1,1,0,1.300000e+00,1
29,770,5,2.322000e+01,17,1,3,0,4.703090e-01,2,1,0,1.300000e+00,1
29,771,5,1.042100e+02,23,3,1,0,8.557837e-01,4,1,0,3.100000e+00,1
29,772,5,9.987000e+01,39,3,2,0,1.073516e+00,3,1,0,3.200000e+00,1
29,773,5,4.030000e+00,15,1,1,1,9.708973e-01,3,1,0,1.300000e+00,1
29,774,5,1.279300e+02,37,3,3,1,1.244668e+00,3,1,0,3.200000e+00,1
29,775,5,1.199200e+02,8,3,3,1,3.498766e-01,2,1,0,3.200000e+00,1
29,776,5,1.199200e+02,8,3,3,1,1.409603e-04,3,1,0,3.200000e+00,1
29,777,5,8.730000e+01,34,2,2,1,2.105098e+00,4,1,0,2.300000e+00,1
29,778,5,1.369000e+01,71,1,1,1,6.193756e-01,3,1,0,1.200000e+00,1
29,779,5,7.528000e+01,57,2,2,1,5.568448e-01,2,1,0,2.300000e+00,1
29,780,5,5.848000e+01,44,2,1,0,2.062424e+00,3,1,0,2.100000e+00,1
29,781,5,8.344000e+01,35,2,1,0,8.726035e-01,3,1,0,2.100000e+00,1
29,782,5,7.739000e+01,64,2,2,1,1.994057e+00,2,1,0,2.300000e+00,1
29,783,5,2.322000e+01,17,1,3,0,5.005454e-01,3,1,0,1.300000e+00,1
29,784,5,1.059500e+02,62,3,3,1,6.059611e-01,1,1,0,3.200000e+00,1
29,785,5,1.070900e+02,70,3,1,0,4.639395e-01,2,1,0,3.100000e+00,1
29,786,5,6.131000e+01,30,2,1,0,7.454455e-01,3,1,0,2.300000e+00,1
29,787,5,1.010500e+02,20,3,3,1,8.187063e-01,2,1,0,3.100000e+00,1
29,788,5,7.826000e+01,41,2,3,0,9.727539e-01,2,1,0,2.300000e+00,1
29,789,5,6.538000e+01,46,2,1,0,1.318209e+00,2,1,0,2.100000e+00,1
29,790,5,2.660000e+00,42,1,1,1,4.162116e-01,3,1,0,1.200000e+00,1
29,791,5,1.429100e+02,29,3,3,1,1.463927e-04,2,1,0,3.200000e+00,1
29,792,5,6.136000e+01,63,2,2,1,8.594450e-01,3,1,0,2.100000e+00,1
29,793,5,5.335000e+01,45,2,2,1,1.669187e+00,2,1,0,2.300000e+00,1
29,794,5,9.987000e+01,39,3,2,0,3.671091e-01,4,1,0,3.200000e+00,1
29,795,5,4.109000e+01,9,1,1,1,5.768620e-01,2,1,0,1.300000e+00,1
29,796,5,1.178400e+02,52,3,3,1,6.189177e-01,4,1,0,3.200000e+00,1
29,797,5,1.070900e+02,70,3,1,0,7.165951e-01,3,1,0,3.100000e+00,1
29,798,5,1.338500e+02,10,3,0,0,2.500263e+00,2,1,0,3.200000e+00,1
29,799,5,1.231800e+02,65,3,3,1,6.643513e-01,2,1,0,3.100000e+00,1
29,800,5,1.208200e+02,21,3,3,1,4.016921e-01,3,1,0,3.200000e+00,1
29,801,5,1.411200e+02,25,3,1,0,4.115324e-01,1,1,0,3.100000e+00,1
29,802,5,1.199200e+02,8,3,2,0,3.970428e-01,4,1,0,3.200000e+00,1
29,803,5,8.344000e+01,35,2,1,0,1.238456e+00,4,1,0,2.100000e+00,1
29,804,5,2.322000e+01,17,1,0,0,2.500148e+00,4,1,0,1.300000e+00,1
29,805,5,7.927000e+01,1,2,1,0,9.700530e-01,4,1,0,2.100000e+00,1
29,806,5,7.826000e+01,41,2,2,1,4.599365e-01,3,1,0,2.300000e+00,1
29,807,5,1.070900e+02,70,3,2,0,3.898206e-01,4,1,0,3.100000e+00,1
29,808,5,1.175000e+01,11,1,1,1,9.350076e-01,2,1,0,1.200000e+00,1
29,809,5,4.030000e+00,15,1,3,0,1.008760e+00,4,1,0,1.300000e+00,1
29,810,5,9.031000e+01,60,2,2,1,4.349140e-01,3,1,0,2.100000e+00,1
29,811,5,1.348800e+02,68,3,3,1,4.849034e-01,3,1,0,3.200000e+00,1
29,812,5,4.224000e+01,72,1,1,1,1.838580e+00,2,1,0,1.300000e+00,1
29,813,5,5.335000e+01,45,2,2,1,4.166499e-01,3,1,0,2.300000e+00,1
29,814,5,4.349000e+01,40,1,1,1,6.422079e-01,2,1,0,1.200000e+00,1
29,815,5,7.739000e+01,64,2,2,1,1.524324e+00,3,1,0,2.300000e+00,1
29,816,5,8.042000e+01,2,2,2,1,6.305088e-01,3,1,0,2.100000e+00,1
29,817,5,5.232000e+01,26,2,2,1,6.877336e-01,2,1,0,2.300000e+00,1
29,818,5,3.050000e+01,3,1,2,0,4.412965e-01,4,1,0,1.200000e+00,1
29,819,5,4.611000e+01,36,1,3,0,3.555642e-01,3,1,0,1.300000e+00,1
29,820,5,1.121700e+02,32,3,0,0,2.500056e+00,1,1,0,3.100000e+00,1
29,821,5,8.133000e+01,7,2,2,1,6.389507e-01,3,1,0,2.100000e+00,1
29,822,5,1.411200e+02,25,3,3,1,7.364645e-01,2,1,0,3.100000e+00,1
29,823,5,6.538000e+01,46,2,1,0,5.535963e-01,3,1,0,2.100000e+00,1
29,824,5,1.231800e+02,65,3,3,1,4.273221e-01,3,1,0,3.100000e+00,1
29,825,5,3.468000e+01,48,1,1,1,9.970489e-01,3,1,0,1.200000e+00,1
29,826,5,1.175000e+01,11,1,1,1,5.024256e-01,3,1,0,1.200000e+00,1
29,827,5,2.660000e+00,42,1,1,1,6.401949e-01,4,1,0,1.200000e+00,1
29,828,5,4.349000e+01,40,1,1,1,4.579241e-01,3,1,0,1.200000e+00,1
29,829,5,5.335000e+01,45,2,3,0,1.459176e+00,4,1,0,2.300000e+00,1
29,830,5,1.231800e+02,65,3,0,0,2.500342e+00,4,1,0,3.100000e+00,1
29,831,5,3.764000e+01,33,1,2,0,4.792655e-01,1,1,0,1.200000e+00,1
29,832,5,3.764000e+01,33,1,1,1,4.330631e-01,2,1,0,1.200000e+00,1
29,833,5,1.175000e+01,11,1,2,0,4.832574e-01,4,1,0,1.200000e+00,1
29,834,5,8.133000e+01,7,2,2,1,5.243357e-01,4,1,0,2.100000e+00,1
29,835,5,4.349000e+01,40,1,2,0,4.537635e-01,4,1,0,1.200000e+00,1
29,836,5,3.764000e+01,33,1,1,1,4.075520e-01,3,1,0,1.200000e+00,1
29,837,5,5.629000e+01,66,2,3,0,1.112597e+00,4,1,0,2.300000e+00,1
29,838,5,4.109000e+01,9,1,1,1,3.865704e-01,3,1,0,1.300000e+00,1
29,839,5,4.109000e+01,9,1,1,1,4.438450e-01,4,1,0,1.300000e+00,1
29,840,5,1.121700e+02,32,3,1,0,4.618278e-01,2,1,0,3.100000e+00,1
29,841,5,1.010500e+02,20,3,3,1,7.350371e-01,3,1,0,3.100000e+00,1
29,842,5,3.764000e+01,33,1,1,1,5.293853e-01,4,1,0,1.200000e+00,1
29,843,5,9.043000e+01,16,2,2,1,3.382774e-01,2,1,0,2.300000e+00,1
29,844,5,1.059500e+02,62,3,1,0,5.318084e-01,2,1,0,3.200000e+00,1
29,845,5,1.121700e+02,32,3,3,1,4.137860e-01,3,1,0,3.100000e+00,1
29,846,5,7.528000e+01,57,2,2,1,5.512897e-01,3,1,0,2.300000e+00,1
29,847,5,5.232000e+01,26,2,1,0,1.096757e+00,3,1,0,2.300000e+00,1
29,848,5,5.232000e+01,26,2,2,1,4.661804e-01,4,1,0,2.300000e+00,1
29,849,5,7.730000e+00,61,1,1,1,1.612067e+00,2,1,0,1.200000e+00,1
29,850,5,7.730000e+00,61,1,1,1,3.658730e-01,3,1,0,1.200000e+00,1
29,851,5,1.429100e+02,29,3,3,1,8.313694e-01,3,1,0,3.200000e+00,1
29,852,5,4.611000e+01,36,1,1,1,6.973267e-01,4,1,0,1.300000e+00,1
29,853,5,1.338500e+02,10,3,2,0,6.507014e-01,3,1,0,3.200000e+00,1
29,854,5,1.348800e+02,68,3,3,1,4.922420e-01,4,1,0,3.200000e+00,1
29,855,5,1.715000e+01,50,1,3,0,5.341689e-01,2,1,0,1.300000e+00,1
29,856,5,9.031000e+01,60,2,2,1,6.402293e-01,4,1,0,2.100000e+00,1
29,857,5,7.739000e+01,64,2,2,1,5.374795e-01,4,1,0,2.300000e+00,1
29,858,5,7.826000e+01,41,2,1,0,1.155165e+00,4,1,0,2.300000e+00,1
29,859,5,6.232000e+01,38,2,2,1,9.245138e-01,4,1,0,2.100000e+00,1
29,860,5,6.538000e+01,46,2,1,0,5.502365e-01,4,1,0,2.100000e+00,1
29,861,5,5.436000e+01,12,2,1,0,6.478783e-01,4,1,0,2.300000e+00,1
29,862,5,2.625000e+01,53,1,3,0,3.294512e-01,2,1,0,1.300000e+00,1
29,863,5,1.121700e+02,32,3,3,1,7.072742e-01,4,1,0,3.100000e+00,1
29,864,5,6.131000e+01,30,2,2,1,1.468710e+00,4,1,0,2.300000e+00,1
29,865,5,9.043000e+01,16,2,2,1,4.383369e-01,3,1,0,2.300000e+00,1
29,866,5,8.042000e+01,2,2,2,1,5.998310e-01,4,1,0,2.100000e+00,1
29,867,5,1.059500e+02,62,3,0,0,2.500371e+00,3,1,0,3.200000e+00,1
29,868,5,1.338500e+02,10,3,2,0,4.353197e-01,4,1,0,3.200000e+00,1
29,869,5,7.528000e+01,57,2,3,0,6.852600e-01,4,1,0,2.300000e+00,1
29,870,5,4.224000e+01,72,1,1,1,5.031144e-01,3,1,0,1.300000e+00,1
29,871,5,1.208200e+02,21,3,3,1,7.847641e-01,4,1,0,3.200000e+00,1
29,872,5,1.369000e+01,71,1,1,1,3.866718e-01,4,1,0,1.200000e+00,1
29,873,5,7.730000e+00,61,1,1,1,4.518676e-01,4,1,0,1.200000e+00,1
29,874,5,1.429100e+02,29,3,3,1,5.260544e-01,4,1,0,3.200000e+00,1
29,875,5,1.081400e+02,4,3,1,0,7.997666e-01,3,1,0,3.100000e+00,1
29,876,5,1.181500e+02,18,3,3,1,1.009164e+00,2,1,0,3.100000e+00,1
29,877,5,1.715000e+01,50,1,3,0,5.070405e-01,3,1,0,1.300000e+00,1
29,878,5,1.181500e+02,18,3,3,1,1.893140e+00,3,1,0,3.100000e+00,1
29,879,5,2.625000e+01,53,1,3,0,1.470583e+00,3,1,0,1.300000e+00,1
29,880,5,4.224000e+01,72,1,1,1,4.805774e-01,4,1,0,1.300000e+00,1
29,881,5,3.468000e+01,48,1,1,1,6.820604e-01,4,1,0,1.200000e+00,1
29,882,5,2.056000e+01,14,1,1,1,9.313113e-01,4,1,0,1.200000e+00,1
29,883,5,5.540000e+01,28,2,2,1,6.531690e-01,4,1,0,2.300000e+00,1
29,884,5,1.411200e+02,25,3,3,1,7.103853e-01,3,1,0,3.100000e+00,1
29,885,5,1.279300e+02,37,3,3,1,8.404078e-01,4,1,0,3.200000e+00,1
29,886,5,1.081400e+02,4,3,1,0,6.256219e-01,4,1,0,3.100000e+00,1
29,887,5,1.010500e+02,20,3,3,1,5.713525e-01,4,1,0,3.100000e+00,1
29,888,5,1.181500e+02,18,3,3,1,6.051087e-01,4,1,0,3.100000e+00,1
29,889,5,1.411200e+02,25,3,3,1,7.187608e-01,4,1,0,3.100000e+00,1
29,890,5,2.625000e+01,53,1,1,1,6.162923e-01,4,1,0,1.300000e+00,1
29,891,5,9.043000e+01,16,2,1,0,5.380910e-01,4,1,0,2.300000e+00,1
29,892,5,6.136000e+01,63,2,2,1,4.595936e-01,4,1,0,2.100000e+00,1
29,893,5,1.059500e+02,62,3,2,0,3.497867e-01,4,1,0,3.200000e+00,1
29,894,5,1.715000e+01,50,1,3,0,6.311795e-02,4,1,0,1.300000e+00,1
29,895,5,5.848000e+01,44,2,1,0,5.767325e-01,4,1,0,2.100000e+00,1
29,896,6,42,2,2,2,1,2.006143e+00,NaN,2,0,1,1
29,897,6,27,1,1,2,0,1.925014e+00,NaN,2,0,1,1
29,898,6,103,15,2,2,1,1.382715e+00,NaN,2,0,3,1
29,899,6,139,64,2,2,1,1.398180e+00,NaN,2,0,3,1
29,900,6,8,47,2,2,1,1.220757e+00,NaN,2,1,1,1
29,901,6,66,42,2,2,1,1.018459e+00,NaN,2,0,2,1
29,902,6,1,13,1,1,1,9.527381e-01,NaN,2,1,1,1
29,903,6,115,50,2,2,1,1.665368e+00,NaN,2,0,3,1
29,904,6,29,56,2,2,1,1.301095e+00,NaN,2,1,1,1
29,905,6,12,25,1,1,1,2.215195e+00,NaN,2,0,1,1
29,906,6,56,14,1,1,1,9.250103e-01,NaN,2,0,2,1
29,907,6,44,35,2,1,0,1.582620e+00,NaN,2,0,1,1
29,908,6,78,31,1,2,0,9.501200e-01,NaN,2,1,2,1
29,909,6,32,38,2,1,0,1.534868e+00,NaN,2,0,1,1
29,910,6,85,10,1,1,1,8.562120e-01,NaN,2,0,2,1
29,911,6,50,3,1,1,1,7.645029e-01,NaN,2,0,2,1
29,912,6,14,4,1,1,1,7.884804e-01,NaN,2,0,1,1
29,913,6,91,29,1,1,1,6.197825e-01,NaN,2,0,2,1
29,914,6,10,43,2,2,1,1.169673e+00,NaN,2,1,1,1
29,915,6,110,55,1,1,1,1.073810e+00,NaN,2,1,3,1
29,916,6,122,17,1,1,1,1.941393e+00,NaN,2,0,3,1
29,917,6,130,34,1,1,1,1.014160e+00,NaN,2,0,3,1
29,918,6,64,33,2,2,1,8.527897e-01,NaN,2,0,2,1
29,919,6,124,72,1,1,1,1.065164e+00,NaN,2,0,3,1
29,920,6,82,21,1,1,1,8.132945e-01,NaN,2,0,2,1
29,921,6,72,58,1,1,1,5.954121e-01,NaN,2,1,2,1
29,922,6,38,46,1,1,1,9.224682e-01,NaN,2,0,1,1
29,923,6,138,24,1,2,0,1.236071e+00,NaN,2,1,3,1
29,924,6,33,7,2,2,1,8.257286e-01,NaN,2,0,1,1
29,925,6,67,67,2,2,1,1.095375e+00,NaN,2,1,2,1
29,926,6,128,57,1,0,0,3.499677e+00,NaN,2,0,3,1
29,927,6,132,26,2,1,0,1.708748e+00,NaN,2,0,3,1
29,928,6,116,54,1,1,1,1.350851e+00,NaN,2,1,3,1
29,929,6,109,9,1,1,1,1.143532e+00,NaN,2,0,3,1
29,930,6,97,5,2,2,1,1.320271e+00,NaN,2,1,3,1
29,931,6,92,8,1,1,1,7.137620e-01,NaN,2,0,2,1
29,932,6,18,65,1,1,1,1.964125e+00,NaN,2,0,1,1
29,933,6,75,11,2,2,1,7.476686e-01,NaN,2,0,2,1
29,934,6,143,16,2,2,1,7.964695e-01,NaN,2,0,3,1
29,935,6,73,61,1,2,0,6.828467e-01,NaN,2,0,2,1
29,936,6,23,27,2,0,0,3.499882e+00,NaN,2,1,1,1
29,937,6,136,12,1,1,1,1.968800e+00,NaN,2,0,3,1
29,938,6,135,45,1,1,1,9.369850e-01,NaN,2,0,3,1
29,939,6,100,49,1,1,1,1.490580e+00,NaN,2,1,3,1
29,940,6,36,63,1,1,1,1.525023e+00,NaN,2,0,1,1
29,941,6,125,53,1,2,0,8.306942e-01,NaN,2,0,3,1
29,942,6,94,6,1,1,1,8.680318e-01,NaN,2,1,2,1
29,943,6,87,39,2,2,1,6.964665e-01,NaN,2,0,2,1
29,944,6,9,70,2,2,1,1.098907e+00,NaN,2,0,1,1
29,945,6,95,62,2,1,0,9.572268e-01,NaN,2,0,2,1
29,946,6,15,18,1,1,1,1.605392e+00,NaN,2,0,1,1
29,947,6,140,28,1,1,1,3.075891e+00,NaN,2,0,3,1
29,948,6,84,52,1,1,1,6.472360e-01,NaN,2,0,2,1
29,949,6,88,68,2,2,1,1.004313e+00,NaN,2,0,2,1
29,950,6,4,19,1,1,1,8.184675e-01,NaN,2,1,1,1
29,951,6,63,69,2,2,1,7.688353e-01,NaN,2,1,2,1
29,952,6,5,20,2,2,1,1.416862e+00,NaN,2,0,1,1
29,953,6,31,60,2,2,1,7.676309e-01,NaN,2,0,1,1
29,954,6,126,41,2,2,1,2.926993e+00,NaN,2,0,3,1
29,955,6,68,48,1,1,1,6.883161e-01,NaN,2,0,2,1
29,956,6,96,59,2,2,1,6.833046e-01,NaN,2,0,2,1
29,957,6,17,32,2,1,0,1.038614e+00,NaN,2,0,1,1
29,958,6,21,23,2,2,1,1.187855e+00,NaN,2,0,1,1
29,959,6,129,66,1,1,1,3.210505e+00,NaN,2,0,3,1
29,960,6,49,40,1,1,1,6.403395e-01,NaN,2,0,2,1
29,961,6,131,30,2,2,1,7.736756e-01,NaN,2,0,3,1
29,962,6,113,22,1,1,1,1.765261e+00,NaN,2,1,3,1
29,963,6,93,37,2,1,0,6.934115e-01,NaN,2,0,2,1
29,964,6,69,71,2,2,1,6.964215e-01,NaN,2,0,2,1
29,965,6,48,44,1,1,1,9.071044e-01,NaN,2,0,1,1
29,966,6,111,36,2,1,0,1.253313e+00,NaN,2,0,3,1
29,967,6,28,51,1,1,1,1.345989e+00,NaN,2,1,1,1
29,968,6,89,16,1,1,1,9.788194e-01,NaN,1,0,2,1
29,969,6,40,9,2,1,0,1.026205e+00,NaN,1,0,1,1
29,970,6,55,66,2,2,1,5.678376e-01,NaN,1,0,2,1
29,971,6,60,30,2,2,1,6.394850e-01,NaN,1,0,2,1
29,972,6,25,53,1,1,1,2.803988e+00,NaN,1,0,1,1
29,973,6,59,27,2,2,1,1.042677e+00,NaN,1,1,2,1
29,974,6,57,24,1,1,1,7.674993e-01,NaN,1,1,2,1
29,975,6,76,64,1,1,1,8.552606e-01,NaN,1,0,2,1
29,976,6,7,61,2,2,1,2.739616e+00,NaN,1,0,1,1
29,977,6,43,40,2,2,1,1.724449e+00,NaN,1,0,1,1
29,978,6,79,1,2,2,1,6.936101e-01,NaN,1,0,2,1
29,979,6,74,57,1,1,1,9.208594e-01,NaN,1,0,2,1
29,980,6,52,45,1,2,0,9.866242e-01,NaN,1,0,2,1
29,981,6,120,21,2,2,1,1.537838e+00,NaN,1,0,3,1
29,982,6,35,5,1,2,0,1.154754e+00,NaN,1,1,1,1
29,983,6,71,51,1,1,1,8.509288e-01,NaN,1,1,2,1
29,984,6,39,22,2,2,1,1.287055e+00,NaN,1,1,1,1
29,985,6,83,35,1,1,1,8.346290e-01,NaN,1,0,2,1
29,986,6,61,63,1,1,1,7.114852e-01,NaN,1,0,2,1
29,987,6,141,25,1,1,1,2.505744e+00,NaN,1,0,3,1
29,988,6,101,20,1,1,1,1.348349e+00,NaN,1,0,3,1
29,989,6,119,8,2,1,0,1.004371e+00,NaN,1,0,3,1
29,990,6,99,39,1,1,1,8.987319e-01,NaN,1,0,3,1
29,991,6,105,62,2,2,1,1.485791e+00,NaN,1,0,3,1
29,992,6,3,15,1,1,1,1.808984e+00,NaN,1,0,1,1
29,993,6,65,46,1,1,1,7.355408e-01,NaN,1,0,2,1
29,994,6,41,72,1,2,0,1.552513e+00,NaN,1,0,1,1
29,995,6,134,68,2,1,0,8.812939e-01,NaN,1,0,3,1
29,996,6,26,69,1,1,1,1.412662e+00,NaN,1,1,1,1
29,997,6,47,55,2,2,1,1.763015e+00,NaN,1,1,1,1
29,998,6,104,23,2,2,1,2.834664e+00,NaN,1,0,3,1
29,999,6,133,10,1,1,1,1.839748e+00,NaN,1,0,3,1
29,1000,6,80,2,1,1,1,1.933048e+00,NaN,1,0,2,1
29,1001,6,20,14,1,2,0,2.414114e+00,NaN,1,0,1,1
29,1002,6,34,48,1,1,1,1.988488e+00,NaN,1,0,1,1
29,1003,6,22,17,1,1,1,2.578797e+00,NaN,1,0,1,1
29,1004,6,106,43,2,2,1,2.210668e+00,NaN,1,1,3,1
29,1005,6,51,26,2,1,0,6.805298e-01,NaN,1,0,2,1
29,1006,6,16,50,2,2,1,1.068034e+00,NaN,1,0,1,1
29,1007,6,127,37,2,1,0,2.207991e+00,NaN,1,0,3,1
29,1008,6,90,60,1,1,1,7.581422e-01,NaN,1,0,2,1
29,1009,6,117,52,1,1,1,1.342484e+00,NaN,1,0,3,1
29,1010,6,11,11,2,2,1,1.823722e+00,NaN,1,0,1,1
29,1011,6,107,70,2,1,0,8.689093e-01,NaN,1,0,3,1
29,1012,6,142,29,1,1,1,1.921249e+00,NaN,1,0,3,1
29,1013,6,102,6,2,1,0,9.307562e-01,NaN,1,1,3,1
29,1014,6,2,42,2,1,0,1.052479e+00,NaN,1,0,1,1
29,1015,6,114,47,2,2,1,1.201044e+00,NaN,1,1,3,1
29,1016,6,70,56,2,1,0,1.487659e+00,NaN,1,1,2,1
29,1017,6,62,38,1,1,1,1.322526e+00,NaN,1,0,2,1
29,1018,6,123,65,2,2,1,2.396159e+00,NaN,1,0,3,1
29,1019,6,108,4,2,2,1,9.789012e-01,NaN,1,0,3,1
29,1020,6,30,3,2,2,1,1.378195e+00,NaN,1,0,1,1
29,1021,6,81,7,1,1,1,9.621918e-01,NaN,1,0,2,1
29,1022,6,46,58,1,1,1,1.682085e+00,NaN,1,1,1,1
29,1023,6,112,32,1,1,1,1.133435e+00,NaN,1,0,3,1
29,1024,6,45,36,2,2,1,2.350446e+00,NaN,1,0,1,1
29,1025,6,86,34,2,2,1,9.109517e-01,NaN,1,0,2,1
29,1026,6,13,71,2,2,1,7.293796e-01,NaN,1,0,1,1
29,1027,6,37,33,1,1,1,1.418930e+00,NaN,1,0,1,1
29,1028,6,54,28,1,1,1,1.200968e+00,NaN,1,0,2,1
29,1029,6,144,19,2,2,1,2.655209e+00,NaN,1,1,3,1
29,1030,6,24,49,2,2,1,1.307621e+00,NaN,1,1,1,1
29,1031,6,98,31,2,0,0,3.500037e+00,NaN,1,1,3,1
29,1032,6,53,12,2,2,1,1.160190e+00,NaN,1,0,2,1
29,1033,6,58,44,2,2,1,6.880526e-01,NaN,1,0,2,1
29,1034,6,6,54,2,2,1,1.482980e+00,NaN,1,1,1,1
29,1035,6,19,67,2,2,1,1.246225e+00,NaN,1,1,1,1
29,1036,6,77,41,2,2,1,7.303199e-01,NaN,1,0,2,1
29,1037,6,121,13,1,1,1,1.147694e+00,NaN,1,1,3,1
29,1038,6,118,18,1,2,0,9.165279e-01,NaN,1,0,3,1
29,1039,6,137,59,1,1,1,1.270711e+00,NaN,1,0,3,1
