Subject,Trial,Cond,ImageNum,CueNum,Correct,Resp,Accuracy,RT,CueRep,ImageType,Baseline,Category,Block
38,1,1,14,NaN,NaN,1,NaN,6.987904e-01,NaN,0,0,1,1
38,2,1,92,NaN,NaN,1,NaN,5.731971e-01,NaN,0,0,2,1
38,3,1,56,NaN,NaN,1,NaN,4.014300e-01,NaN,2,1,2,1
38,4,1,116,NaN,NaN,1,NaN,2.910298e-01,NaN,1,0,3,1
38,5,1,41,NaN,NaN,2,NaN,3.690234e-01,NaN,1,0,1,1
38,6,1,88,NaN,NaN,1,NaN,5.483563e-01,NaN,0,0,2,1
38,7,1,45,NaN,NaN,1,NaN,5.607426e-01,NaN,2,0,1,1
38,8,1,50,NaN,NaN,1,NaN,1.300506e+00,NaN,1,1,2,1
38,9,1,121,NaN,NaN,2,NaN,1.786872e+00,NaN,1,0,3,1
38,10,1,91,NaN,NaN,1,NaN,3.012907e+00,NaN,0,0,2,1
38,11,1,105,NaN,NaN,1,NaN,1.158434e+00,NaN,0,0,3,1
38,12,1,14,NaN,NaN,1,NaN,1.861975e-01,NaN,2,0,1,1
38,13,1,78,NaN,NaN,1,NaN,1.388951e+00,NaN,0,0,2,1
38,14,1,10,NaN,NaN,1,NaN,8.153268e-01,NaN,1,0,1,1
38,15,1,79,NaN,NaN,1,NaN,4.971791e-01,NaN,0,0,2,1
38,16,1,72,NaN,NaN,1,NaN,1.228517e-04,NaN,1,0,2,1
38,17,1,135,NaN,NaN,1,NaN,1.121364e+00,NaN,1,0,3,1
38,18,1,40,NaN,NaN,2,NaN,1.430745e-01,NaN,0,0,1,1
38,19,1,93,NaN,NaN,1,NaN,3.372836e-03,NaN,2,1,2,1
38,20,1,73,NaN,NaN,1,NaN,2.535622e-01,NaN,0,0,2,1
38,21,1,82,NaN,NaN,1,NaN,4.054817e-01,NaN,0,0,2,1
38,22,1,85,NaN,NaN,1,NaN,4.398699e-01,NaN,2,1,2,1
38,23,1,100,NaN,NaN,2,NaN,2.884155e-01,NaN,0,0,3,1
38,24,1,89,NaN,NaN,1,NaN,3.073796e-02,NaN,2,0,2,1
38,25,1,44,NaN,NaN,2,NaN,3.437600e-01,NaN,1,0,1,1
38,26,1,108,NaN,NaN,1,NaN,9.276688e-02,NaN,0,1,3,1
38,27,1,57,NaN,NaN,1,NaN,1.868652e-01,NaN,0,0,2,1
38,28,1,49,NaN,NaN,1,NaN,1.201350e-04,NaN,2,0,2,1
38,29,1,141,NaN,NaN,1,NaN,1.842497e-01,NaN,0,0,3,1
38,30,1,15,NaN,NaN,1,NaN,8.191953e-01,NaN,1,0,1,1
38,31,1,15,NaN,NaN,1,NaN,1.852771e+00,NaN,0,0,1,1
38,32,1,61,NaN,NaN,1,NaN,1.612854e+00,NaN,0,0,2,1
38,33,1,123,NaN,NaN,1,NaN,5.024693e-01,NaN,1,0,3,1
38,34,1,72,NaN,NaN,1,NaN,2.126330e-01,NaN,0,0,2,1
38,35,1,48,NaN,NaN,1,NaN,8.304198e-01,NaN,0,1,1,1
38,36,1,76,NaN,NaN,1,NaN,1.279514e+00,NaN,2,0,2,1
38,37,1,93,NaN,NaN,1,NaN,1.278311e+00,NaN,0,1,2,1
38,38,1,79,NaN,NaN,1,NaN,3.053086e+00,NaN,2,0,2,1
38,39,1,144,NaN,NaN,1,NaN,4.046102e-01,NaN,1,1,3,1
38,40,1,126,NaN,NaN,1,NaN,6.946808e-01,NaN,1,0,3,1
38,41,1,121,NaN,NaN,1,NaN,9.740379e-01,NaN,0,0,3,1
38,42,1,90,NaN,NaN,1,NaN,2.031985e+00,NaN,2,0,2,1
38,43,1,131,NaN,NaN,1,NaN,1.201044e+00,NaN,0,1,3,1
38,44,1,4,NaN,NaN,1,NaN,3.792741e-01,NaN,2,0,1,1
38,45,1,53,NaN,NaN,1,NaN,4.298407e-01,NaN,0,0,2,1
38,46,1,100,NaN,NaN,2,NaN,4.148576e-01,NaN,1,0,3,1
38,47,1,36,NaN,NaN,1,NaN,3.043844e-01,NaN,1,0,1,1
38,48,1,84,NaN,NaN,1,NaN,2.544155e-01,NaN,0,1,2,1
38,49,1,95,NaN,NaN,1,NaN,2.223705e-01,NaN,1,0,2,1
38,50,1,25,NaN,NaN,1,NaN,2.877973e-01,NaN,1,0,1,1
38,51,1,19,NaN,NaN,1,NaN,3.187191e-01,NaN,1,0,1,1
38,52,1,112,NaN,NaN,1,NaN,3.320556e-01,NaN,0,0,3,1
38,53,1,29,NaN,NaN,1,NaN,2.089414e-01,NaN,1,0,1,1
38,54,1,53,NaN,NaN,1,NaN,3.150644e-01,NaN,2,0,2,1
38,55,1,138,NaN,NaN,1,NaN,1.231534e-04,NaN,0,1,3,1
38,56,1,67,NaN,NaN,1,NaN,8.269908e-02,NaN,0,1,2,1
38,57,1,58,NaN,NaN,1,NaN,1.252657e-04,NaN,0,0,2,1
38,58,1,98,NaN,NaN,1,NaN,8.400306e-02,NaN,0,1,3,1
38,59,1,48,NaN,NaN,1,NaN,5.907021e-02,NaN,1,1,1,1
38,60,1,75,NaN,NaN,1,NaN,8.287898e-02,NaN,0,1,2,1
38,61,1,94,NaN,NaN,1,NaN,2.103873e-03,NaN,2,0,2,1
38,62,1,138,NaN,NaN,1,NaN,2.027263e-02,NaN,1,1,3,1
38,63,1,130,NaN,NaN,2,NaN,7.009003e-02,NaN,0,0,3,1
38,64,1,132,NaN,NaN,1,NaN,1.255684e-04,NaN,0,1,3,1
38,65,1,111,NaN,NaN,1,NaN,1.264736e-04,NaN,1,0,3,1
38,66,1,9,NaN,NaN,1,NaN,1.255684e-04,NaN,2,0,1,1
38,67,1,68,NaN,NaN,1,NaN,2.016970e-02,NaN,1,1,2,1
38,68,1,134,NaN,NaN,2,NaN,1.234552e-04,NaN,1,0,3,1
38,69,1,60,NaN,NaN,1,NaN,1.121732e-01,NaN,1,0,2,1
38,70,1,46,NaN,NaN,1,NaN,1.176846e-01,NaN,1,0,1,1
38,71,1,122,NaN,NaN,2,NaN,1.073708e-01,NaN,0,1,3,1
38,72,1,33,NaN,NaN,1,NaN,1.708483e-02,NaN,0,0,1,1
38,73,1,54,NaN,NaN,1,NaN,1.466973e-04,NaN,0,0,2,1
38,74,1,125,NaN,NaN,1,NaN,2.903555e-02,NaN,0,0,3,1
38,75,1,114,NaN,NaN,1,NaN,1.252666e-04,NaN,1,1,3,1
38,76,1,117,NaN,NaN,1,NaN,1.337184e-04,NaN,1,0,3,1
38,77,1,32,NaN,NaN,2,NaN,1.213420e-04,NaN,2,0,1,1
38,78,1,85,NaN,NaN,1,NaN,9.314539e-02,NaN,0,1,2,1
38,79,1,19,NaN,NaN,1,NaN,3.944231e-03,NaN,0,0,1,1
38,80,1,16,NaN,NaN,1,NaN,1.339499e-01,NaN,1,0,1,1
38,81,1,33,NaN,NaN,1,NaN,1.249649e-04,NaN,2,0,1,1
38,82,1,117,NaN,NaN,1,NaN,6.054316e-01,NaN,0,0,3,1
38,83,1,43,NaN,NaN,1,NaN,1.466973e-04,NaN,0,1,1,1
38,84,1,83,NaN,NaN,1,NaN,6.592243e-02,NaN,0,0,2,1
38,85,1,31,NaN,NaN,1,NaN,1.132270e-01,NaN,1,1,1,1
38,86,1,51,NaN,NaN,1,NaN,1.282850e-04,NaN,0,1,2,1
38,87,1,118,NaN,NaN,1,NaN,5.748823e-02,NaN,0,0,3,1
38,88,1,78,NaN,NaN,1,NaN,1.252666e-04,NaN,2,0,2,1
38,89,1,143,NaN,NaN,1,NaN,4.195000e-01,NaN,2,1,3,1
38,90,1,6,NaN,NaN,1,NaN,5.333147e-01,NaN,0,0,1,1
38,91,1,29,NaN,NaN,1,NaN,4.020149e-01,NaN,0,0,1,1
38,92,1,80,NaN,NaN,1,NaN,2.524001e-01,NaN,0,0,2,1
38,93,1,11,NaN,NaN,1,NaN,3.245442e-01,NaN,0,1,1,1
38,94,1,51,NaN,NaN,1,NaN,1.057985e+00,NaN,2,1,2,1
38,95,1,92,NaN,NaN,1,NaN,3.693871e-01,NaN,2,0,2,1
38,96,1,22,NaN,NaN,1,NaN,3.971815e-01,NaN,2,1,1,1
38,97,1,124,NaN,NaN,1,NaN,1.952212e+00,NaN,0,0,3,1
38,98,1,77,NaN,NaN,1,NaN,3.315159e-01,NaN,2,0,2,1
38,99,1,90,NaN,NaN,1,NaN,3.205577e-01,NaN,0,0,2,1
38,100,1,133,NaN,NaN,2,NaN,2.377043e-01,NaN,0,0,3,1
38,101,1,139,NaN,NaN,1,NaN,6.207841e-02,NaN,0,1,3,1
38,102,1,91,NaN,NaN,1,NaN,2.302086e-01,NaN,1,0,2,1
38,103,1,87,NaN,NaN,1,NaN,3.354372e-01,NaN,1,1,2,1
38,104,1,13,NaN,NaN,1,NaN,2.840179e-01,NaN,0,0,1,1
38,105,1,31,NaN,NaN,1,NaN,1.389841e-01,NaN,0,1,1,1
38,106,1,49,NaN,NaN,1,NaN,9.577689e-02,NaN,0,0,2,1
38,107,1,46,NaN,NaN,1,NaN,1.219455e-04,NaN,0,0,1,1
38,108,1,96,NaN,NaN,1,NaN,3.216872e-02,NaN,1,0,2,1
38,109,1,18,NaN,NaN,1,NaN,2.491733e-01,NaN,0,1,1,1
38,110,1,127,NaN,NaN,1,NaN,3.857478e-01,NaN,2,1,3,1
38,111,1,70,NaN,NaN,1,NaN,3.886926e-01,NaN,0,1,2,1
38,112,1,133,NaN,NaN,1,NaN,4.153505e-01,NaN,1,0,3,1
38,113,1,74,NaN,NaN,1,NaN,1.222482e-04,NaN,1,0,2,1
38,114,1,67,NaN,NaN,1,NaN,5.149174e-02,NaN,1,1,2,1
38,115,1,5,NaN,NaN,1,NaN,2.274017e-01,NaN,0,0,1,1
38,116,1,55,NaN,NaN,1,NaN,3.488555e-01,NaN,0,1,2,1
38,117,1,87,NaN,NaN,1,NaN,2.810076e-01,NaN,0,1,2,1
38,118,1,47,NaN,NaN,1,NaN,2.801443e-01,NaN,0,0,1,1
38,119,1,108,NaN,NaN,1,NaN,5.349356e-01,NaN,2,1,3,1
38,120,1,88,NaN,NaN,1,NaN,4.339844e+00,NaN,2,0,2,1
38,121,1,129,NaN,NaN,1,NaN,8.081501e-01,NaN,2,1,3,1
38,122,1,63,NaN,NaN,1,NaN,2.740443e-01,NaN,2,0,2,1
38,123,1,75,NaN,NaN,1,NaN,9.856318e-01,NaN,1,1,2,1
38,124,1,103,NaN,NaN,1,NaN,1.228081e+00,NaN,2,0,3,1
38,125,1,27,NaN,NaN,0,NaN,9.995419e+00,NaN,2,0,1,1
38,126,1,74,NaN,NaN,1,NaN,1.232321e+00,NaN,0,0,2,1
38,127,1,119,NaN,NaN,1,NaN,6.534002e-01,NaN,1,0,3,1
38,128,1,52,NaN,NaN,1,NaN,6.854971e-02,NaN,0,0,2,1
38,129,1,105,NaN,NaN,1,NaN,3.414065e-01,NaN,1,0,3,1
38,130,1,102,NaN,NaN,1,NaN,7.180343e-01,NaN,0,0,3,1
38,131,1,65,NaN,NaN,1,NaN,2.927826e-01,NaN,1,0,2,1
38,132,1,4,NaN,NaN,1,NaN,3.005739e-01,NaN,0,0,1,1
38,133,1,135,NaN,NaN,1,NaN,1.418354e-01,NaN,0,0,3,1
38,134,1,2,NaN,NaN,1,NaN,1.817601e-01,NaN,1,0,1,1
38,135,1,64,NaN,NaN,1,NaN,1.571553e-01,NaN,0,0,2,1
38,136,1,59,NaN,NaN,1,NaN,2.786819e-01,NaN,1,0,2,1
38,137,1,30,NaN,NaN,1,NaN,6.221105e-01,NaN,0,0,1,1
38,138,1,96,NaN,NaN,1,NaN,4.693229e-01,NaN,0,0,2,1
38,139,1,86,NaN,NaN,1,NaN,1.788944e+00,NaN,0,0,2,1
38,140,1,81,NaN,NaN,1,NaN,1.884120e+00,NaN,1,0,2,1
38,141,1,127,NaN,NaN,1,NaN,1.313135e+00,NaN,0,1,3,1
38,142,1,141,NaN,NaN,1,NaN,6.054884e-01,NaN,1,0,3,1
38,143,1,7,NaN,NaN,1,NaN,1.284214e+00,NaN,0,0,1,1
38,144,1,39,NaN,NaN,1,NaN,3.076341e-01,NaN,1,0,1,1
38,145,1,43,NaN,NaN,1,NaN,4.617637e-01,NaN,2,1,1,1
38,146,1,102,NaN,NaN,1,NaN,3.409221e-01,NaN,1,0,3,1
38,147,1,42,NaN,NaN,1,NaN,2.061392e+00,NaN,0,1,1,1
38,148,1,132,NaN,NaN,1,NaN,2.527505e-01,NaN,1,1,3,1
38,149,1,106,NaN,NaN,1,NaN,2.851897e-01,NaN,2,0,3,1
38,150,1,113,NaN,NaN,1,NaN,5.976627e-01,NaN,1,0,3,1
38,151,1,103,NaN,NaN,1,NaN,4.454628e-01,NaN,0,0,3,1
38,152,1,142,NaN,NaN,1,NaN,3.262517e-01,NaN,0,1,3,1
38,153,1,128,NaN,NaN,1,NaN,3.106013e-01,NaN,1,0,3,1
38,154,1,35,NaN,NaN,1,NaN,5.652440e-01,NaN,1,0,1,1
38,155,1,38,NaN,NaN,1,NaN,3.655817e-01,NaN,0,0,1,1
38,156,1,116,NaN,NaN,1,NaN,3.338498e-01,NaN,0,0,3,1
38,157,1,59,NaN,NaN,1,NaN,3.166780e-01,NaN,0,0,2,1
38,158,1,40,NaN,NaN,1,NaN,3.572671e-01,NaN,2,0,1,1
38,159,1,131,NaN,NaN,2,NaN,3.576827e-01,NaN,2,1,3,1
38,160,1,99,NaN,NaN,1,NaN,3.819307e-01,NaN,0,0,3,1
38,161,1,120,NaN,NaN,1,NaN,1.237179e+00,NaN,2,0,3,1
38,162,1,137,NaN,NaN,1,NaN,1.157741e+00,NaN,0,0,3,1
38,163,1,89,NaN,NaN,1,NaN,5.805446e-01,NaN,0,0,2,1
38,164,1,110,NaN,NaN,1,NaN,3.978676e-01,NaN,2,0,3,1
38,165,1,44,NaN,NaN,1,NaN,1.141501e+00,NaN,0,0,1,1
38,166,1,39,NaN,NaN,1,NaN,8.459745e-01,NaN,0,0,1,1
38,167,1,68,NaN,NaN,1,NaN,3.664809e-01,NaN,0,1,2,1
38,168,1,84,NaN,NaN,1,NaN,2.139989e+00,NaN,1,1,2,1
38,169,1,11,NaN,NaN,1,NaN,4.373992e-01,NaN,2,1,1,1
38,170,1,124,NaN,NaN,1,NaN,1.325168e+00,NaN,2,0,3,1
38,171,1,109,NaN,NaN,1,NaN,6.541919e-01,NaN,2,0,3,1
38,172,1,38,NaN,NaN,1,NaN,2.865522e-01,NaN,1,0,1,1
38,173,1,20,NaN,NaN,1,NaN,1.503192e-04,NaN,0,0,1,1
38,174,1,143,NaN,NaN,1,NaN,4.259964e-02,NaN,0,1,3,1
38,175,1,104,NaN,NaN,1,NaN,3.087962e-01,NaN,1,1,3,1
38,176,1,1,NaN,NaN,1,NaN,2.695951e-01,NaN,2,1,1,1
38,177,1,20,NaN,NaN,1,NaN,2.616776e-01,NaN,2,0,1,1
38,178,1,101,NaN,NaN,2,NaN,1.197040e+00,NaN,2,0,3,1
38,179,1,137,NaN,NaN,1,NaN,2.605828e-01,NaN,2,0,3,1
38,180,1,71,NaN,NaN,1,NaN,3.640481e-01,NaN,2,0,2,1
38,181,1,139,NaN,NaN,1,NaN,1.243304e-01,NaN,2,1,3,1
38,182,1,61,NaN,NaN,1,NaN,3.417721e-01,NaN,2,0,2,1
38,183,1,123,NaN,NaN,1,NaN,3.876739e-01,NaN,0,0,3,1
38,184,1,7,NaN,NaN,1,NaN,3.258472e-01,NaN,1,0,1,1
38,185,1,28,NaN,NaN,1,NaN,3.087938e-01,NaN,1,0,1,1
38,186,1,107,NaN,NaN,1,NaN,3.086471e-01,NaN,0,0,3,1
38,187,1,66,NaN,NaN,1,NaN,2.773996e-01,NaN,1,0,2,1
38,188,1,109,NaN,NaN,1,NaN,5.857437e-01,NaN,0,0,3,1
38,189,1,35,NaN,NaN,1,NaN,4.924763e-01,NaN,0,0,1,1
38,190,1,113,NaN,NaN,1,NaN,7.799715e-01,NaN,0,0,3,1
38,191,1,58,NaN,NaN,1,NaN,5.186579e-01,NaN,1,0,2,1
38,192,1,17,NaN,NaN,1,NaN,1.500913e+00,NaN,2,0,1,1
38,193,1,70,NaN,NaN,1,NaN,1.356504e+00,NaN,1,1,2,1
38,194,1,128,NaN,NaN,1,NaN,7.983802e-01,NaN,0,0,3,1
38,195,1,16,NaN,NaN,1,NaN,1.812461e+00,NaN,0,0,1,1
38,196,1,42,NaN,NaN,0,NaN,9.995233e+00,NaN,1,1,1,1
38,197,1,21,NaN,NaN,0,NaN,9.995362e+00,NaN,2,0,1,1
38,198,1,69,NaN,NaN,1,NaN,7.722020e-01,NaN,0,1,2,1
38,199,1,37,NaN,NaN,1,NaN,1.077375e+00,NaN,0,0,1,1
38,200,1,140,NaN,NaN,1,NaN,4.206555e-01,NaN,0,0,3,1
38,201,1,27,NaN,NaN,1,NaN,2.379322e-01,NaN,0,0,1,1
38,202,1,62,NaN,NaN,1,NaN,1.166794e+00,NaN,0,0,2,1
38,203,1,119,NaN,NaN,1,NaN,1.873696e+00,NaN,0,0,3,1
38,204,1,37,NaN,NaN,1,NaN,2.936921e+00,NaN,2,0,1,1
38,205,1,95,NaN,NaN,1,NaN,5.014861e-01,NaN,0,0,2,1
38,206,1,111,NaN,NaN,1,NaN,4.678628e-01,NaN,0,0,3,1
38,207,1,104,NaN,NaN,1,NaN,2.511921e-01,NaN,0,1,3,1
38,208,1,81,NaN,NaN,1,NaN,4.918663e-01,NaN,0,0,2,1
38,209,1,13,NaN,NaN,1,NaN,5.817670e+00,NaN,2,0,1,1
38,210,1,65,NaN,NaN,1,NaN,5.793919e-01,NaN,0,0,2,1
38,211,1,17,NaN,NaN,1,NaN,5.099418e-01,NaN,0,0,1,1
38,212,1,130,NaN,NaN,1,NaN,6.041470e-01,NaN,1,0,3,1
38,213,1,6,NaN,NaN,1,NaN,3.658154e-01,NaN,1,0,1,1
38,214,1,63,NaN,NaN,0,NaN,9.995529e+00,NaN,0,0,2,1
38,215,1,112,NaN,NaN,1,NaN,1.310017e-04,NaN,2,0,3,1
38,216,1,110,NaN,NaN,1,NaN,1.291903e-04,NaN,0,0,3,1
38,217,1,22,NaN,NaN,1,NaN,5.382079e-01,NaN,0,1,1,1
38,218,1,140,NaN,NaN,1,NaN,2.618717e-01,NaN,2,0,3,1
38,219,1,98,NaN,NaN,1,NaN,2.700472e-01,NaN,2,1,3,1
38,220,1,62,NaN,NaN,1,NaN,1.979861e-01,NaN,1,0,2,1
38,221,1,1,NaN,NaN,1,NaN,5.012640e-01,NaN,0,1,1,1
38,222,1,57,NaN,NaN,1,NaN,9.095981e-01,NaN,1,0,2,1
38,223,1,101,NaN,NaN,1,NaN,4.382526e-01,NaN,0,0,3,1
38,224,1,86,NaN,NaN,1,NaN,2.133523e-01,NaN,2,0,2,1
38,225,1,23,NaN,NaN,1,NaN,2.690354e-01,NaN,1,0,1,1
38,226,1,83,NaN,NaN,1,NaN,1.977507e-01,NaN,2,0,2,1
38,227,1,80,NaN,NaN,1,NaN,5.206344e-02,NaN,1,0,2,1
38,228,1,41,NaN,NaN,1,NaN,1.144422e-01,NaN,0,0,1,1
38,229,1,99,NaN,NaN,1,NaN,3.629602e-01,NaN,2,0,3,1
38,230,1,30,NaN,NaN,1,NaN,2.454042e-01,NaN,2,0,1,1
38,231,1,52,NaN,NaN,1,NaN,2.862793e-01,NaN,1,0,2,1
38,232,1,12,NaN,NaN,1,NaN,1.973200e-01,NaN,0,0,1,1
38,233,1,24,NaN,NaN,1,NaN,5.558053e-01,NaN,1,1,1,1
38,234,1,136,NaN,NaN,1,NaN,3.102402e-01,NaN,2,0,3,1
38,235,1,3,NaN,NaN,1,NaN,4.216688e-01,NaN,0,0,1,1
38,236,1,120,NaN,NaN,1,NaN,2.779281e-01,NaN,0,0,3,1
38,237,1,34,NaN,NaN,1,NaN,3.978643e-01,NaN,2,0,1,1
38,238,1,97,NaN,NaN,1,NaN,4.928186e-01,NaN,2,0,3,1
38,239,1,115,NaN,NaN,1,NaN,2.969750e+00,NaN,0,0,3,1
38,240,1,129,NaN,NaN,1,NaN,1.356796e+00,NaN,0,1,3,1
38,241,1,142,NaN,NaN,1,NaN,9.893777e-01,NaN,2,1,3,1
38,242,1,12,NaN,NaN,1,NaN,2.125086e-01,NaN,2,0,1,1
38,243,1,5,NaN,NaN,1,NaN,9.338524e-01,NaN,1,0,1,1
38,244,1,28,NaN,NaN,0,NaN,9.995628e+00,NaN,0,0,1,1
38,245,1,18,NaN,NaN,0,NaN,9.995520e+00,NaN,2,1,1,1
38,246,1,115,NaN,NaN,1,NaN,1.584692e-04,NaN,2,0,3,1
38,247,1,32,NaN,NaN,1,NaN,2.603103e+00,NaN,0,0,1,1
38,248,1,10,NaN,NaN,1,NaN,6.847720e-01,NaN,0,0,1,1
38,249,1,25,NaN,NaN,1,NaN,7.157216e-01,NaN,0,0,1,1
38,250,1,126,NaN,NaN,1,NaN,3.889145e-01,NaN,0,0,3,1
38,251,1,94,NaN,NaN,1,NaN,2.389675e+00,NaN,0,0,2,1
38,252,1,3,NaN,NaN,1,NaN,3.989575e+00,NaN,2,0,1,1
38,253,1,2,NaN,NaN,1,NaN,1.539923e+00,NaN,0,0,1,1
38,254,1,125,NaN,NaN,1,NaN,4.220377e-01,NaN,2,0,3,1
38,255,1,122,NaN,NaN,1,NaN,4.452340e-01,NaN,1,1,3,1
38,256,1,82,NaN,NaN,1,NaN,6.375789e-01,NaN,1,0,2,1
38,257,1,134,NaN,NaN,1,NaN,3.718556e-01,NaN,0,0,3,1
38,258,1,21,NaN,NaN,1,NaN,1.142389e+00,NaN,0,0,1,1
38,259,1,73,NaN,NaN,1,NaN,4.125385e-01,NaN,2,0,2,1
38,260,1,50,NaN,NaN,1,NaN,4.295874e-01,NaN,0,1,2,1
38,261,1,114,NaN,NaN,1,NaN,1.773218e+00,NaN,0,1,3,1
38,262,1,144,NaN,NaN,1,NaN,1.508670e+00,NaN,0,1,3,1
38,263,1,107,NaN,NaN,1,NaN,3.654260e-01,NaN,1,0,3,1
38,264,1,66,NaN,NaN,1,NaN,7.095549e-01,NaN,0,0,2,1
38,265,1,9,NaN,NaN,1,NaN,1.148078e+00,NaN,0,0,1,1
38,266,1,77,NaN,NaN,1,NaN,1.093307e+00,NaN,0,0,2,1
38,267,1,54,NaN,NaN,1,NaN,8.620192e-01,NaN,2,0,2,1
38,268,1,36,NaN,NaN,1,NaN,5.498091e-01,NaN,0,0,1,1
38,269,1,69,NaN,NaN,1,NaN,7.085681e-01,NaN,2,1,2,1
38,270,1,136,NaN,NaN,1,NaN,3.649228e-01,NaN,0,0,3,1
38,271,1,26,NaN,NaN,1,NaN,2.779752e-01,NaN,0,0,1,1
38,272,1,56,NaN,NaN,1,NaN,2.220011e-01,NaN,0,1,2,1
38,273,1,97,NaN,NaN,1,NaN,3.971945e-01,NaN,0,0,3,1
38,274,1,26,NaN,NaN,1,NaN,5.005082e-01,NaN,2,0,1,1
38,275,1,106,NaN,NaN,1,NaN,3.978027e-01,NaN,0,0,3,1
38,276,1,71,NaN,NaN,1,NaN,2.050077e-01,NaN,0,0,2,1
38,277,1,76,NaN,NaN,1,NaN,3.686901e+00,NaN,0,0,2,1
38,278,1,8,NaN,NaN,1,NaN,1.045751e+00,NaN,0,0,1,1
38,279,1,60,NaN,NaN,1,NaN,2.704843e-01,NaN,0,0,2,1
38,280,1,24,NaN,NaN,1,NaN,6.386628e-01,NaN,0,1,1,1
38,281,1,64,NaN,NaN,1,NaN,5.655471e-01,NaN,2,0,2,1
38,282,1,8,NaN,NaN,1,NaN,1.708746e+00,NaN,2,0,1,1
38,283,1,55,NaN,NaN,1,NaN,1.580286e+00,NaN,1,1,2,1
38,284,1,118,NaN,NaN,1,NaN,7.735262e-01,NaN,2,0,3,1
38,285,1,23,NaN,NaN,1,NaN,3.796969e+00,NaN,0,0,1,1
38,286,1,45,NaN,NaN,1,NaN,5.087015e-01,NaN,0,0,1,1
38,287,1,47,NaN,NaN,1,NaN,3.563386e-01,NaN,1,0,1,1
38,288,1,34,NaN,NaN,1,NaN,5.834394e-01,NaN,0,0,1,1
38,326,2,10,49,2,2,1,2.706524e+00,NaN,1,0,1,1
38,327,2,29,56,2,2,1,2.101154e+00,NaN,1,0,1,1
38,328,2,87,13,2,2,1,2.151257e+00,NaN,1,1,2,1
38,329,2,96,61,1,1,1,6.869167e-01,NaN,1,0,2,1
38,330,2,55,35,1,1,1,1.631903e+00,NaN,1,1,2,1
38,331,2,59,5,1,1,1,8.553710e-01,NaN,1,0,2,1
38,332,2,84,38,1,2,0,9.683245e-01,NaN,1,1,2,1
38,333,2,42,42,1,1,1,1.736285e+00,NaN,1,1,1,1
38,334,2,119,70,1,1,1,1.230775e+00,NaN,1,0,3,1
38,335,2,7,45,2,2,1,1.695538e+00,NaN,1,0,1,1
38,336,2,2,20,1,1,1,1.144024e+00,NaN,1,0,1,1
38,337,2,68,39,1,1,1,6.472431e-01,NaN,1,1,2,1
38,338,2,121,41,1,1,1,8.799915e-01,NaN,1,0,3,1
38,339,2,82,18,2,2,1,1.319983e+00,NaN,1,0,2,1
38,340,2,138,67,1,1,1,1.343200e+00,NaN,1,1,3,1
38,341,2,135,19,1,1,1,8.955064e-01,NaN,1,0,3,1
38,342,2,60,15,2,2,1,1.567961e+00,NaN,1,0,2,1
38,343,2,25,33,2,1,0,1.543580e+00,NaN,1,0,1,1
38,344,2,91,66,2,2,1,1.176311e+00,NaN,1,0,2,1
38,345,2,107,46,1,1,1,1.143811e+00,NaN,1,0,3,1
38,346,2,128,52,1,1,1,9.676710e-01,NaN,1,0,3,1
38,347,2,72,24,1,1,1,1.329402e+00,NaN,1,0,2,1
38,348,2,141,54,1,1,1,2.054648e+00,NaN,1,0,3,1
38,349,2,102,36,1,1,1,1.392118e+00,NaN,1,0,3,1
38,350,3,55,35,1,2,0,2.104305e+00,NaN,1,1,2,1
38,351,3,138,67,1,1,1,6.872716e-01,NaN,1,1,3,1
38,352,3,87,13,2,2,1,2.166945e+00,NaN,1,1,2,1
38,353,3,29,56,2,2,1,1.296053e+00,NaN,1,0,1,1
38,354,3,119,70,1,1,1,8.062509e-01,NaN,1,0,3,1
38,355,3,84,38,1,1,1,1.016180e+00,NaN,1,1,2,1
38,356,3,141,54,1,1,1,6.876492e-01,NaN,1,0,3,1
38,357,3,91,66,2,2,1,6.154164e-01,NaN,1,0,2,1
38,358,3,82,18,1,1,1,1.111666e+00,NaN,1,0,2,1
38,359,3,2,20,2,2,1,2.432191e+00,NaN,1,0,1,1
38,360,3,68,39,2,2,1,8.392089e-01,NaN,1,1,2,1
38,361,3,60,15,2,2,1,1.287795e+00,NaN,1,0,2,1
38,362,3,135,19,2,2,1,1.127214e+00,NaN,1,0,3,1
38,363,3,96,61,2,2,1,5.578886e-01,NaN,1,0,2,1
38,364,3,25,33,2,2,1,1.488020e+00,NaN,1,0,1,1
38,365,3,107,46,1,1,1,9.521986e-01,NaN,1,0,3,1
38,366,3,102,36,2,1,0,9.118263e-01,NaN,1,0,3,1
38,367,3,72,24,2,2,1,8.476462e-01,NaN,1,0,2,1
38,368,3,7,45,2,2,1,1.695168e+00,NaN,1,0,1,1
38,369,3,121,41,2,2,1,1.087709e+00,NaN,1,0,3,1
38,370,3,128,52,1,1,1,1.960009e+00,NaN,1,0,3,1
38,371,3,10,49,1,1,1,1.319700e+00,NaN,1,0,1,1
38,372,3,59,5,2,2,1,8.486733e-01,NaN,1,0,2,1
38,373,3,42,42,1,1,1,1.576133e+00,NaN,1,1,1,1
38,398,2,19,55,2,1,0,1.283888e+00,NaN,1,0,1,2
38,399,2,104,32,1,1,1,1.462761e+00,NaN,1,1,3,2
38,400,2,16,69,2,1,0,9.593111e-01,NaN,1,0,1,2
38,401,2,117,57,1,2,0,4.158453e-01,NaN,1,0,3,2
38,402,2,74,53,2,1,0,2.519214e+00,NaN,1,0,2,2
38,403,2,47,4,2,2,1,5.683606e-01,NaN,1,0,1,2
38,404,2,95,1,2,2,1,2.367975e+00,NaN,1,0,2,2
38,405,2,105,37,2,2,1,4.400259e-01,NaN,1,0,3,2
38,406,2,15,26,1,1,1,1.224264e+00,NaN,1,0,1,2
38,407,2,38,29,1,1,1,7.844177e-01,NaN,1,0,1,2
38,408,2,80,50,2,2,1,5.758651e-01,NaN,1,0,2,2
38,409,2,113,34,2,2,1,8.720079e-01,NaN,1,0,3,2
38,410,2,133,7,2,2,1,9.277222e-01,NaN,1,0,3,2
38,411,2,67,14,1,2,0,3.151539e+00,NaN,1,1,2,2
38,412,2,122,60,2,1,0,2.255581e+00,NaN,1,1,3,2
38,413,2,134,71,1,1,1,7.036465e-01,NaN,1,0,3,2
38,414,2,28,10,2,2,1,8.722829e-01,NaN,1,0,1,2
38,415,2,35,2,2,1,0,1.927328e-01,NaN,1,0,1,2
38,416,2,126,59,1,1,1,1.447501e+00,NaN,1,0,3,2
38,417,2,62,63,2,1,0,1.255194e+00,NaN,1,0,2,2
38,418,2,48,8,1,1,1,1.431426e+00,NaN,1,1,1,2
38,419,2,44,62,1,2,0,1.263959e+00,NaN,1,0,1,2
38,420,2,116,68,1,1,1,9.516816e-01,NaN,1,0,3,2
38,421,2,31,27,2,2,1,2.232217e+00,NaN,1,1,1,2
38,422,3,126,59,2,2,1,1.388414e+00,NaN,1,0,3,2
38,423,3,95,1,1,1,1,7.350784e-01,NaN,1,0,2,2
38,424,3,80,50,1,1,1,1.021158e+00,NaN,1,0,2,2
38,425,3,15,26,1,1,1,3.167636e+00,NaN,1,0,1,2
38,426,3,113,34,2,0,0,3.499911e+00,NaN,1,0,3,2
38,427,3,67,14,2,2,1,2.691967e+00,NaN,1,1,2,2
38,428,3,62,63,1,2,0,8.480841e-01,NaN,1,0,2,2
38,429,3,105,37,1,2,0,1.336342e+00,NaN,1,0,3,2
38,430,3,44,62,2,2,1,3.119005e+00,NaN,1,0,1,2
38,431,3,31,27,1,1,1,2.095624e+00,NaN,1,1,1,2
38,432,3,38,29,1,1,1,1.199484e+00,NaN,1,0,1,2
38,433,3,47,4,1,1,1,2.247862e+00,NaN,1,0,1,2
38,434,3,35,2,1,1,1,1.839370e+00,NaN,1,0,1,2
38,435,3,134,71,2,2,1,1.991869e+00,NaN,1,0,3,2
38,436,3,19,55,1,2,0,2.551186e+00,NaN,1,0,1,2
38,437,3,133,7,2,2,1,1.487323e+00,NaN,1,0,3,2
38,438,3,48,8,2,0,0,3.499745e+00,NaN,1,1,1,2
38,439,3,28,10,1,0,0,3.500121e+00,NaN,1,0,1,2
38,440,3,116,68,2,2,1,1.519435e+00,NaN,1,0,3,2
38,441,3,16,69,1,1,1,7.352218e-01,NaN,1,0,1,2
38,442,3,117,57,1,1,1,1.255799e+00,NaN,1,0,3,2
38,443,3,104,32,2,2,1,9.996058e-01,NaN,1,1,3,2
38,444,3,74,53,1,1,1,1.400199e+00,NaN,1,0,2,2
38,445,3,122,60,2,2,1,6.711062e-01,NaN,1,1,3,2
38,470,2,41,21,2,1,0,8.119431e-01,NaN,1,0,1,3
38,471,2,39,17,2,1,0,2.278546e+00,NaN,1,0,1,3
38,472,2,81,58,1,1,1,4.724877e-01,NaN,1,0,2,3
38,473,2,65,65,1,2,0,1.591887e+00,NaN,1,0,2,3
38,474,2,5,30,2,1,0,1.327496e+00,NaN,1,0,1,3
38,475,2,57,25,1,1,1,2.797217e-01,NaN,1,0,2,3
38,476,2,50,72,2,1,0,2.956064e-01,NaN,1,1,2,3
38,477,2,114,43,1,2,0,4.326545e-01,NaN,1,1,3,3
38,478,2,123,22,1,1,1,1.255571e+00,NaN,1,0,3,3
38,479,2,75,16,1,1,1,8.556252e-01,NaN,1,1,2,3
38,480,2,36,6,1,1,1,5.032163e-01,NaN,1,0,1,3
38,481,2,70,3,1,1,1,8.315170e-01,NaN,1,1,2,3
38,482,2,100,47,2,2,1,1.480681e+00,NaN,1,0,3,3
38,483,2,58,9,1,1,1,1.568047e+00,NaN,1,0,2,3
38,484,2,111,12,2,1,0,5.756261e-01,NaN,1,0,3,3
38,485,2,144,48,1,1,1,1.103551e+00,NaN,1,1,3,3
38,486,2,130,11,2,1,0,1.448054e+00,NaN,1,0,3,3
38,487,2,46,51,1,2,0,8.882560e-01,NaN,1,0,1,3
38,488,2,132,23,2,2,1,1.088048e+00,NaN,1,1,3,3
38,489,2,52,28,2,2,1,3.996219e-01,NaN,1,0,2,3
38,490,2,24,44,2,1,0,9.597116e-01,NaN,1,1,1,3
38,491,2,66,64,2,2,1,7.759328e-01,NaN,1,0,2,3
38,492,2,23,31,1,2,0,8.874220e-01,NaN,1,0,1,3
38,493,2,6,40,2,1,0,3.759499e-01,NaN,1,0,1,3
38,494,3,57,25,1,1,1,9.845334e-01,NaN,1,0,2,3
38,495,3,123,22,2,2,1,8.873731e-01,NaN,1,0,3,3
38,496,3,144,48,1,2,0,5.510998e-01,NaN,1,1,3,3
38,497,3,36,6,2,1,0,5.269913e-01,NaN,1,0,1,3
38,498,3,111,12,1,2,0,3.917591e-01,NaN,1,0,3,3
38,499,3,41,21,1,1,1,8.715627e-01,NaN,1,0,1,3
38,500,3,5,30,1,2,0,5.443209e-01,NaN,1,0,1,3
38,501,3,132,23,2,2,1,2.487244e+00,NaN,1,1,3,3
38,502,3,23,31,1,1,1,1.728102e+00,NaN,1,0,1,3
38,503,3,100,47,2,0,0,3.499948e+00,NaN,1,0,3,3
38,504,3,81,58,1,2,0,4.672184e-01,NaN,1,0,2,3
38,505,3,65,65,2,0,0,3.499847e+00,NaN,1,0,2,3
38,506,3,50,72,2,1,0,7.784713e-01,NaN,1,1,2,3
38,507,3,24,44,2,1,0,8.636887e-01,NaN,1,1,1,3
38,508,3,39,17,2,1,0,9.920946e-01,NaN,1,0,1,3
38,509,3,6,40,2,1,0,1.031993e+00,NaN,1,0,1,3
38,510,3,58,9,1,1,1,1.112484e+00,NaN,1,0,2,3
38,511,3,70,3,2,2,1,8.463343e-01,NaN,1,1,2,3
38,512,3,66,64,1,2,0,7.837452e-03,NaN,1,0,2,3
38,513,3,114,43,1,0,0,3.499585e+00,NaN,1,1,3,3
38,514,3,52,28,1,0,0,3.500020e+00,NaN,1,0,2,3
38,515,3,75,16,1,0,0,3.500029e+00,NaN,1,1,2,3
38,516,3,46,51,2,1,0,3.098085e+00,NaN,1,0,1,3
38,517,3,130,11,2,0,0,3.500016e+00,NaN,1,0,3,3
38,542,4,3,47,2,1,0,1.243130e+00,NaN,2,0,1,1
38,543,4,99,29,1,2,0,8.712943e-01,NaN,2,0,3,1
38,544,4,137,28,1,2,0,5.915856e-01,NaN,2,0,3,1
38,545,4,69,32,2,2,1,6.470587e-01,NaN,2,1,2,1
38,546,4,136,58,1,2,0,1.111432e+00,NaN,2,0,3,1
38,547,4,12,54,1,1,1,1.438815e+00,NaN,2,0,1,1
38,548,4,37,9,1,1,1,1.359923e+00,NaN,2,0,1,1
38,549,4,27,61,1,1,1,5.117523e-01,NaN,2,0,1,1
38,550,4,14,59,2,1,0,4.079411e-01,NaN,2,0,1,1
38,551,4,63,7,1,2,0,6.555134e-01,NaN,2,0,2,1
38,552,4,129,35,1,1,1,7.954961e-02,NaN,2,1,3,1
38,553,4,85,8,1,2,0,6.710489e-01,NaN,2,1,2,1
38,554,4,125,63,1,1,1,1.708455e-04,NaN,2,0,3,1
38,555,4,108,42,2,1,0,1.007866e+00,NaN,2,1,3,1
38,556,4,8,12,1,1,1,1.445850e-04,NaN,2,0,1,1
38,557,4,34,18,1,1,1,3.677122e-01,NaN,2,0,1,1
38,558,4,43,13,2,2,1,3.118062e-01,NaN,2,1,1,1
38,559,4,49,46,2,1,0,3.910006e-01,NaN,2,0,2,1
38,560,4,56,60,1,1,1,4.321314e-01,NaN,2,1,2,1
38,561,4,88,45,1,1,1,5.435379e-01,NaN,2,0,2,1
38,562,4,124,5,1,0,0,3.499695e+00,NaN,2,0,3,1
38,563,4,83,26,2,2,1,1.115671e+00,NaN,2,0,2,1
38,564,4,120,15,1,1,1,6.644025e-01,NaN,2,0,3,1
38,565,4,92,17,2,2,1,4.887183e-01,NaN,2,0,2,1
38,590,4,131,3,2,2,1,2.664764e-01,NaN,2,1,3,2
38,591,4,112,69,1,2,0,1.040031e+00,NaN,2,0,3,2
38,592,4,17,71,2,1,0,1.376327e+00,NaN,2,0,1,2
38,593,4,90,2,1,2,0,3.047111e+00,NaN,2,0,2,2
38,594,4,73,68,1,1,1,1.135478e+00,NaN,2,0,2,2
38,595,4,64,11,1,2,0,1.503926e+00,NaN,2,0,2,2
38,596,4,20,37,1,0,0,3.499648e+00,NaN,2,0,1,2
38,597,4,78,10,2,0,0,3.499852e+00,NaN,2,0,2,2
38,598,4,98,44,1,1,1,1.239632e+00,NaN,2,1,3,2
38,599,4,89,30,1,1,1,3.335163e+00,NaN,2,0,2,2
38,600,4,109,51,1,0,0,3.499978e+00,NaN,2,0,3,2
38,601,4,115,49,1,1,1,3.146442e+00,NaN,2,0,3,2
38,602,4,140,53,2,1,0,5.116116e-01,NaN,2,0,3,2
38,603,4,77,40,1,2,0,2.383594e+00,NaN,2,0,2,2
38,604,4,26,24,2,1,0,3.016042e+00,NaN,2,0,1,2
38,605,4,142,72,2,2,1,3.827393e-01,NaN,2,1,3,2
38,606,4,13,34,1,1,1,1.047149e+00,NaN,2,0,1,2
38,607,4,18,43,1,1,1,1.327216e+00,NaN,2,1,1,2
38,608,4,106,6,1,1,1,3.438382e-01,NaN,2,0,3,2
38,609,4,118,20,2,1,0,4.719616e-01,NaN,2,0,3,2
38,610,4,1,67,2,2,1,9.751299e-01,NaN,2,1,1,2
38,611,4,11,48,2,1,0,1.079327e+00,NaN,2,1,1,2
38,612,4,110,4,1,1,1,1.224441e+00,NaN,2,0,3,2
38,613,4,45,66,1,0,0,3.500028e+00,NaN,2,0,1,2
38,638,4,127,39,1,1,1,1.073262e+00,NaN,2,1,3,3
38,639,4,86,62,2,0,0,3.499786e+00,NaN,2,0,2,3
38,640,4,22,14,1,1,1,2.648369e+00,NaN,2,1,1,3
38,641,4,21,25,2,1,0,3.436133e-01,NaN,2,0,1,3
38,642,4,54,22,2,0,0,3.500112e+00,NaN,2,0,2,3
38,643,4,93,27,2,1,0,2.651284e+00,NaN,2,1,2,3
38,644,4,30,1,1,1,1,1.024256e+00,NaN,2,0,1,3
38,645,4,79,31,2,1,0,2.520069e+00,NaN,2,0,2,3
38,646,4,32,64,2,2,1,2.991491e+00,NaN,2,0,1,3
38,647,4,103,21,1,2,0,1.584471e+00,NaN,2,0,3,3
38,648,4,51,23,1,1,1,1.478851e+00,NaN,2,1,2,3
38,649,4,61,36,1,0,0,3.499899e+00,NaN,2,0,2,3
38,650,4,40,65,1,1,1,5.398180e-01,NaN,2,0,1,3
38,651,4,33,50,1,1,1,1.616718e+00,NaN,2,0,1,3
38,652,4,76,19,1,2,0,7.830669e-01,NaN,2,0,2,3
38,653,4,94,33,2,1,0,5.914682e-01,NaN,2,0,2,3
38,654,4,4,52,1,1,1,4.955364e-01,NaN,2,0,1,3
38,655,4,139,16,1,1,1,9.359222e-01,NaN,2,1,3,3
38,656,4,101,56,1,1,1,6.721440e-01,NaN,2,0,3,3
38,657,4,143,38,2,2,1,8.634010e-01,NaN,2,1,3,3
38,658,4,97,55,1,1,1,5.668966e-01,NaN,2,0,3,3
38,659,4,53,70,1,0,0,3.499573e+00,NaN,2,0,2,3
38,660,4,9,41,1,2,0,6.910477e-01,NaN,2,0,1,3
38,661,4,71,57,2,2,1,2.631898e+00,NaN,2,0,2,3
38,662,5,1.583000e+01,26,1,2,0,1.777165e+00,1,1,0,1.200000e+00,1
38,663,5,3.992000e+01,17,1,2,0,3.118062e-01,1,1,0,1.200000e+00,1
38,664,5,5.890000e+00,30,1,3,0,3.379546e-01,1,1,0,1.200000e+00,1
38,665,5,3.992000e+01,17,1,1,1,5.081132e-01,2,1,0,1.200000e+00,1
38,666,5,1.336300e+02,7,3,2,0,3.104923e-01,1,1,0,3.200000e+00,1
38,667,5,5.837000e+01,9,2,2,1,3.127311e-01,1,1,0,2.100000e+00,1
38,668,5,1.411200e+02,54,3,3,1,5.474894e-01,1,1,0,3.100000e+00,1
38,669,5,6.325000e+01,63,2,2,1,3.741853e-01,1,1,0,2.300000e+00,1
38,670,5,1.411200e+02,54,3,2,0,5.443028e-01,2,1,0,3.100000e+00,1
38,671,5,7.880000e+00,45,1,1,1,4.356476e-01,1,1,0,1.200000e+00,1
38,672,5,1.110800e+02,12,3,2,0,6.552197e-01,1,1,0,3.100000e+00,1
38,673,5,5.721000e+01,25,2,2,1,7.059544e-01,1,1,0,2.100000e+00,1
38,674,5,1.110800e+02,12,3,3,1,6.676284e-01,2,1,0,3.100000e+00,1
38,675,5,9.530000e+01,1,2,1,0,3.987269e-01,1,1,0,2.100000e+00,1
38,676,5,1.167300e+02,68,3,2,0,2.115788e+00,1,1,0,3.200000e+00,1
38,677,5,1.336300e+02,7,3,1,0,4.754525e-01,2,1,0,3.200000e+00,1
38,678,5,1.131300e+02,34,3,3,1,5.336573e-01,1,1,0,3.100000e+00,1
38,679,5,4.203000e+01,21,1,3,0,6.007367e-01,1,1,0,1.300000e+00,1
38,680,5,1.306400e+02,11,3,1,0,1.028783e+00,1,1,0,3.200000e+00,1
38,681,5,1.357600e+02,19,3,2,0,5.672075e-01,1,1,0,3.200000e+00,1
38,682,5,1.261400e+02,59,3,2,0,4.895729e-01,1,1,0,3.100000e+00,1
38,683,5,8.234000e+01,18,2,3,0,3.315509e-01,1,1,0,2.100000e+00,1
38,684,5,7.880000e+00,45,1,2,0,2.015631e+00,2,1,0,1.200000e+00,1
38,685,5,1.131300e+02,34,3,3,1,4.386751e-01,2,1,0,3.100000e+00,1
38,686,5,2.878000e+01,10,1,1,1,1.041874e+00,1,1,0,1.200000e+00,1
38,687,5,3.899000e+01,29,1,2,0,4.690095e-01,1,1,0,1.300000e+00,1
38,688,5,1.261400e+02,59,3,3,1,3.199002e-01,2,1,0,3.100000e+00,1
38,689,5,3.706000e+01,6,1,2,0,5.301740e-01,1,1,0,1.300000e+00,1
38,690,5,5.721000e+01,25,2,3,0,6.206649e-01,2,1,0,2.100000e+00,1
38,691,5,2.594000e+01,33,1,1,1,9.590472e-01,1,1,0,1.200000e+00,1
38,692,5,1.026100e+02,36,3,2,0,5.126964e-01,1,1,0,3.200000e+00,1
38,693,5,5.721000e+01,25,2,1,0,9.147724e-01,3,1,0,2.100000e+00,1
38,694,5,3.001000e+01,56,1,2,0,9.413572e-01,1,1,0,1.300000e+00,1
38,695,5,4.810000e+01,4,1,2,0,2.418445e+00,1,1,0,1.300000e+00,1
38,696,5,6.540000e+01,65,2,2,1,4.576613e-01,1,1,0,2.100000e+00,1
38,697,5,9.530000e+01,1,2,3,0,2.771207e-01,2,1,0,2.100000e+00,1
38,698,5,1.115000e+01,49,1,1,1,3.593088e-01,1,1,0,1.300000e+00,1
38,699,5,5.890000e+00,30,1,1,1,4.731400e-01,2,1,0,1.200000e+00,1
38,700,5,9.627000e+01,61,2,3,0,3.565112e-01,1,1,0,2.100000e+00,1
38,701,5,6.770000e+00,40,1,2,0,3.283194e-01,1,1,0,1.200000e+00,1
38,702,5,3.706000e+01,6,1,1,1,7.961909e-01,2,1,0,1.300000e+00,1
38,703,5,1.712000e+01,69,1,2,0,1.817353e+00,1,1,0,1.300000e+00,1
38,704,5,2.878000e+01,10,1,0,0,2.500506e+00,2,1,0,1.200000e+00,1
38,705,5,1.115000e+01,49,1,1,1,3.701188e-01,2,1,0,1.300000e+00,1
38,706,5,1.235400e+02,22,3,1,0,4.534198e-01,1,1,0,3.200000e+00,1
38,707,5,1.177100e+02,57,3,2,0,3.019567e-01,1,1,0,3.200000e+00,1
38,708,5,1.210900e+02,41,3,3,1,4.409239e-01,1,1,0,3.100000e+00,1
38,709,5,1.280400e+02,52,3,3,1,6.042653e-01,1,1,0,3.100000e+00,1
38,710,5,4.486000e+01,62,1,2,0,6.561316e-01,1,1,0,1.200000e+00,1
38,711,5,1.074900e+02,46,3,3,1,1.114792e+00,1,1,0,3.200000e+00,1
38,712,5,9.145000e+01,66,2,1,0,1.468585e+00,1,1,0,2.100000e+00,1
38,713,5,1.583000e+01,26,1,1,1,1.055460e+00,2,1,0,1.200000e+00,1
38,714,5,5.337000e+01,28,2,2,1,4.904446e-01,1,1,0,2.300000e+00,1
38,715,5,6.120000e+01,15,2,2,1,5.888608e-01,1,1,0,2.300000e+00,1
38,716,5,7.540000e+01,53,2,2,1,1.472941e+00,1,1,0,2.300000e+00,1
38,717,5,1.306400e+02,11,3,0,0,2.500313e+00,2,1,0,3.200000e+00,1
38,718,5,1.341700e+02,71,3,2,0,8.180957e-01,1,1,0,3.100000e+00,1
38,719,5,6.632000e+01,64,2,3,0,6.360600e-01,1,1,0,2.100000e+00,1
38,720,5,3.001000e+01,56,1,2,0,6.863341e-01,2,1,0,1.300000e+00,1
38,721,5,4.810000e+01,4,1,1,1,5.690289e-01,2,1,0,1.300000e+00,1
38,722,5,2.878000e+01,10,1,1,1,8.918712e-01,3,1,0,1.200000e+00,1
38,723,5,1.210900e+02,41,3,0,0,2.500122e+00,2,1,0,3.100000e+00,1
38,724,5,1.195300e+02,70,3,2,0,7.518086e-01,1,1,0,3.200000e+00,1
38,725,5,3.180000e+00,20,1,1,1,9.233403e-01,1,1,0,1.300000e+00,1
38,726,5,3.590000e+01,2,1,2,0,7.967237e-01,1,1,0,1.200000e+00,1
38,727,5,1.000300e+02,47,3,3,1,7.421619e-01,1,1,0,3.100000e+00,1
38,728,5,1.235400e+02,22,3,2,0,4.802905e-01,2,1,0,3.200000e+00,1
38,729,5,5.837000e+01,9,2,0,0,2.500174e+00,2,1,0,2.100000e+00,1
38,730,5,2.379000e+01,31,1,2,0,3.957583e-01,1,1,0,1.200000e+00,1
38,731,5,8.033000e+01,50,2,1,0,5.976693e-01,1,1,0,2.100000e+00,1
38,732,5,1.074900e+02,46,3,2,0,5.108597e-01,2,1,0,3.200000e+00,1
38,733,5,6.632000e+01,64,2,3,0,3.684728e-01,2,1,0,2.100000e+00,1
38,734,5,4.203000e+01,21,1,1,1,4.985244e-01,2,1,0,1.300000e+00,1
38,735,5,1.026100e+02,36,3,3,1,7.723782e-01,2,1,0,3.200000e+00,1
38,736,5,1.026100e+02,36,3,3,1,4.696766e-01,3,1,0,3.200000e+00,1
38,737,5,6.120000e+01,15,2,1,0,7.269757e-01,2,1,0,2.300000e+00,1
38,738,5,4.486000e+01,62,1,1,1,6.648203e-01,2,1,0,1.200000e+00,1
38,739,5,3.899000e+01,29,1,1,1,4.824327e-01,2,1,0,1.300000e+00,1
38,740,5,8.236000e+01,58,2,2,1,5.317731e-01,1,1,0,2.300000e+00,1
38,741,5,1.336300e+02,7,3,3,1,5.093136e-01,3,1,0,3.200000e+00,1
38,742,5,1.167300e+02,68,3,3,1,5.512290e-01,2,1,0,3.200000e+00,1
38,743,5,1.074900e+02,46,3,3,1,3.534777e-01,3,1,0,3.200000e+00,1
38,744,5,6.024000e+01,5,2,2,1,5.864539e-01,1,1,0,2.300000e+00,1
38,745,5,2.594000e+01,33,1,1,1,4.200971e-01,2,1,0,1.200000e+00,1
38,746,5,1.131300e+02,34,3,3,1,3.256070e-01,3,1,0,3.100000e+00,1
38,747,5,3.180000e+00,20,1,1,1,3.356244e-01,2,1,0,1.300000e+00,1
38,748,5,1.000300e+02,47,3,1,0,4.252469e-01,2,1,0,3.100000e+00,1
38,749,5,1.712000e+01,69,1,2,0,7.075023e-01,2,1,0,1.300000e+00,1
38,750,5,6.024000e+01,5,2,2,1,7.886623e-01,2,1,0,2.300000e+00,1
38,751,5,1.583000e+01,26,1,1,1,9.021636e-01,3,1,0,1.200000e+00,1
38,752,5,9.627000e+01,61,2,2,1,7.039746e-01,2,1,0,2.100000e+00,1
38,753,5,1.195300e+02,70,3,2,0,1.745321e+00,2,1,0,3.200000e+00,1
38,754,5,1.177100e+02,57,3,2,0,2.916178e-01,2,1,0,3.200000e+00,1
38,755,5,1.177100e+02,57,3,3,1,4.055073e-01,3,1,0,3.200000e+00,1
38,756,5,8.234000e+01,18,2,2,1,1.535176e+00,2,1,0,2.100000e+00,1
38,757,5,1.341700e+02,71,3,2,0,9.773044e-01,2,1,0,3.100000e+00,1
38,758,5,3.992000e+01,17,1,1,1,4.106230e-01,3,1,0,1.200000e+00,1
38,759,5,3.899000e+01,29,1,3,0,5.889517e-01,3,1,0,1.300000e+00,1
38,760,5,1.357600e+02,19,3,1,0,4.382815e-01,2,1,0,3.200000e+00,1
38,761,5,1.110800e+02,12,3,2,0,1.311906e+00,3,1,0,3.100000e+00,1
38,762,5,4.709000e+01,51,1,2,0,1.850903e-01,1,1,0,1.300000e+00,1
38,763,5,8.236000e+01,58,2,1,0,4.188677e-01,2,1,0,2.300000e+00,1
38,764,5,1.280400e+02,52,3,3,1,3.489310e-01,2,1,0,3.100000e+00,1
38,765,5,3.590000e+01,2,1,2,0,3.584627e-01,2,1,0,1.200000e+00,1
38,766,5,1.997000e+01,55,1,2,0,6.964149e-01,1,1,0,1.300000e+00,1
38,767,5,9.145000e+01,66,2,2,1,4.656080e-01,2,1,0,2.100000e+00,1
38,768,5,9.627000e+01,61,2,2,1,9.074447e-01,3,1,0,2.100000e+00,1
38,769,5,2.379000e+01,31,1,2,0,5.886574e-01,2,1,0,1.200000e+00,1
38,770,5,4.810000e+01,4,1,2,0,5.743106e-01,3,1,0,1.300000e+00,1
38,771,5,7.226000e+01,24,2,1,0,7.358862e-01,1,1,0,2.100000e+00,1
38,772,5,3.706000e+01,6,1,2,0,5.931232e-01,3,1,0,1.300000e+00,1
38,773,5,6.540000e+01,65,2,2,1,2.271611e-01,2,1,0,2.100000e+00,1
38,774,5,6.325000e+01,63,2,1,0,5.570649e-01,2,1,0,2.300000e+00,1
38,775,5,5.337000e+01,28,2,2,1,5.344747e-01,2,1,0,2.300000e+00,1
38,776,5,1.997000e+01,55,1,2,0,8.002979e-01,2,1,0,1.300000e+00,1
38,777,5,2.594000e+01,33,1,2,0,4.422424e-01,3,1,0,1.200000e+00,1
38,778,5,8.234000e+01,18,2,2,1,3.878801e-01,3,1,0,2.100000e+00,1
38,779,5,3.706000e+01,6,1,1,1,3.813393e-01,4,1,0,1.300000e+00,1
38,780,5,4.709000e+01,51,1,1,1,6.791432e-01,2,1,0,1.300000e+00,1
38,781,5,4.486000e+01,62,1,2,0,5.206121e-01,3,1,0,1.200000e+00,1
38,782,5,8.033000e+01,50,2,1,0,1.521985e+00,2,1,0,2.100000e+00,1
38,783,5,6.024000e+01,5,2,2,1,5.243157e-01,3,1,0,2.300000e+00,1
38,784,5,1.052000e+02,37,3,3,1,4.136415e-01,1,1,0,3.100000e+00,1
38,785,5,1.712000e+01,69,1,2,0,7.272760e-01,3,1,0,1.300000e+00,1
38,786,5,7.226000e+01,24,2,2,1,6.408733e-01,2,1,0,2.100000e+00,1
38,787,5,1.195300e+02,70,3,0,0,2.500473e+00,3,1,0,3.200000e+00,1
38,788,5,7.540000e+01,53,2,0,0,2.500292e+00,2,1,0,2.300000e+00,1
38,789,5,1.052000e+02,37,3,3,1,3.909501e-01,2,1,0,3.100000e+00,1
38,790,5,1.306400e+02,11,3,2,0,9.667277e-02,3,1,0,3.200000e+00,1
38,791,5,8.236000e+01,58,2,3,0,7.377890e-02,3,1,0,2.300000e+00,1
38,792,5,1.195300e+02,70,3,1,0,3.951706e-01,4,1,0,3.200000e+00,1
38,793,5,3.992000e+01,17,1,2,0,1.196800e+00,4,1,0,1.200000e+00,1
38,794,5,8.033000e+01,50,2,1,0,3.264594e-01,3,1,0,2.100000e+00,1
38,795,5,8.234000e+01,18,2,3,0,3.765026e-01,4,1,0,2.100000e+00,1
38,796,5,1.306400e+02,11,3,2,0,3.379649e-01,4,1,0,3.200000e+00,1
38,797,5,1.235400e+02,22,3,3,1,4.276230e-01,3,1,0,3.200000e+00,1
38,798,5,1.997000e+01,55,1,1,1,3.091992e-01,3,1,0,1.300000e+00,1
38,799,5,1.280400e+02,52,3,2,0,1.415017e+00,3,1,0,3.100000e+00,1
38,800,5,6.540000e+01,65,2,3,0,4.564536e-01,3,1,0,2.100000e+00,1
38,801,5,1.210900e+02,41,3,2,0,6.097628e-01,3,1,0,3.100000e+00,1
38,802,5,9.530000e+01,1,2,2,1,8.891591e-01,3,1,0,2.100000e+00,1
38,803,5,1.261400e+02,59,3,0,0,2.500238e+00,3,1,0,3.100000e+00,1
38,804,5,1.997000e+01,55,1,0,0,2.500328e+00,4,1,0,1.300000e+00,1
38,805,5,7.226000e+01,24,2,0,0,2.500311e+00,3,1,0,2.100000e+00,1
38,806,5,3.590000e+01,2,1,2,0,9.333836e-01,3,1,0,1.200000e+00,1
38,807,5,1.341700e+02,71,3,2,0,1.425436e+00,3,1,0,3.100000e+00,1
38,808,5,5.890000e+00,30,1,1,1,4.029634e-01,3,1,0,1.200000e+00,1
38,809,5,1.712000e+01,69,1,1,1,8.205898e-01,4,1,0,1.300000e+00,1
38,810,5,6.770000e+00,40,1,2,0,5.501490e-01,2,1,0,1.200000e+00,1
38,811,5,1.052000e+02,37,3,3,1,1.732605e-04,3,1,0,3.100000e+00,1
38,812,5,5.837000e+01,9,2,3,0,1.569605e-04,3,1,0,2.100000e+00,1
38,813,5,9.627000e+01,61,2,2,1,4.118389e-01,4,1,0,2.100000e+00,1
38,814,5,3.899000e+01,29,1,1,1,3.894144e-01,4,1,0,1.300000e+00,1
38,815,5,8.033000e+01,50,2,2,1,6.466811e-01,4,1,0,2.100000e+00,1
38,816,5,5.890000e+00,30,1,0,0,2.500257e+00,4,1,0,1.200000e+00,1
38,817,5,6.120000e+01,15,2,2,1,3.302614e-01,3,1,0,2.300000e+00,1
38,818,5,4.203000e+01,21,1,2,0,1.540020e+00,3,1,0,1.300000e+00,1
38,819,5,2.379000e+01,31,1,1,1,3.820239e-01,3,1,0,1.200000e+00,1
38,820,5,4.810000e+01,4,1,1,1,4.397162e-01,4,1,0,1.300000e+00,1
38,821,5,8.236000e+01,58,2,2,1,9.051335e-01,4,1,0,2.300000e+00,1
38,822,5,7.880000e+00,45,1,2,0,5.148030e-01,3,1,0,1.200000e+00,1
38,823,5,7.540000e+01,53,2,1,0,5.001170e-01,3,1,0,2.300000e+00,1
38,824,5,1.280400e+02,52,3,3,1,3.417425e-01,4,1,0,3.100000e+00,1
38,825,5,6.632000e+01,64,2,3,0,5.519250e-01,3,1,0,2.100000e+00,1
38,826,5,9.145000e+01,66,2,2,1,1.610170e+00,3,1,0,2.100000e+00,1
38,827,5,9.145000e+01,66,2,1,0,5.876975e-01,4,1,0,2.100000e+00,1
38,828,5,1.167300e+02,68,3,3,1,3.574443e-01,3,1,0,3.200000e+00,1
38,829,5,1.000300e+02,47,3,3,1,3.829805e-01,3,1,0,3.100000e+00,1
38,830,5,1.110800e+02,12,3,1,0,8.003199e-01,4,1,0,3.100000e+00,1
38,831,5,1.115000e+01,49,1,2,0,3.386784e-01,3,1,0,1.300000e+00,1
38,832,5,1.074900e+02,46,3,2,0,7.796368e-01,4,1,0,3.200000e+00,1
38,833,5,7.226000e+01,24,2,1,0,4.453918e-01,4,1,0,2.100000e+00,1
38,834,5,1.210900e+02,41,3,2,0,6.949262e-01,4,1,0,3.100000e+00,1
38,835,5,6.120000e+01,15,2,3,0,1.080583e+00,4,1,0,2.300000e+00,1
38,836,5,1.000300e+02,47,3,2,0,4.178163e-01,4,1,0,3.100000e+00,1
38,837,5,7.540000e+01,53,2,3,0,8.917448e-01,4,1,0,2.300000e+00,1
38,838,5,6.024000e+01,5,2,2,1,4.697859e-01,4,1,0,2.300000e+00,1
38,839,5,5.337000e+01,28,2,1,0,4.787776e-01,3,1,0,2.300000e+00,1
38,840,5,6.770000e+00,40,1,2,0,4.726543e-01,3,1,0,1.200000e+00,1
38,841,5,7.880000e+00,45,1,1,1,3.781497e-01,4,1,0,1.200000e+00,1
38,842,5,1.357600e+02,19,3,1,0,1.479043e-04,3,1,0,3.200000e+00,1
38,843,5,3.180000e+00,20,1,1,1,1.448868e-04,3,1,0,1.300000e+00,1
38,844,5,9.530000e+01,1,2,2,1,1.666192e-04,4,1,0,2.100000e+00,1
38,845,5,3.001000e+01,56,1,1,1,5.733882e-02,3,1,0,1.300000e+00,1
38,846,5,6.770000e+00,40,1,2,0,2.681909e-03,4,1,0,1.200000e+00,1
38,847,5,6.325000e+01,63,2,1,0,1.080026e-01,3,1,0,2.300000e+00,1
38,848,5,1.026100e+02,36,3,1,0,3.015715e-01,4,1,0,3.200000e+00,1
38,849,5,1.261400e+02,59,3,0,0,2.500285e+00,4,1,0,3.100000e+00,1
38,850,5,2.878000e+01,10,1,2,0,5.971683e-01,4,1,0,1.200000e+00,1
38,851,5,1.357600e+02,19,3,1,0,7.857009e-01,4,1,0,3.200000e+00,1
38,852,5,1.583000e+01,26,1,2,0,5.394117e-01,4,1,0,1.200000e+00,1
38,853,5,5.837000e+01,9,2,0,0,2.500110e+00,4,1,0,2.100000e+00,1
38,854,5,3.001000e+01,56,1,0,0,2.500542e+00,4,1,0,1.300000e+00,1
38,855,5,3.180000e+00,20,1,1,1,5.452880e-01,4,1,0,1.300000e+00,1
38,856,5,1.115000e+01,49,1,2,0,1.642759e+00,4,1,0,1.300000e+00,1
38,857,5,6.325000e+01,63,2,2,1,7.811001e-01,4,1,0,2.300000e+00,1
38,858,5,2.379000e+01,31,1,3,0,9.741643e-01,4,1,0,1.200000e+00,1
38,859,5,3.590000e+01,2,1,0,0,2.500185e+00,4,1,0,1.200000e+00,1
38,860,5,2.594000e+01,33,1,0,0,2.500173e+00,4,1,0,1.200000e+00,1
38,861,5,4.486000e+01,62,1,2,0,1.332087e+00,4,1,0,1.200000e+00,1
38,862,5,1.341700e+02,71,3,1,0,1.493694e+00,4,1,0,3.100000e+00,1
38,863,5,6.632000e+01,64,2,2,1,5.593100e-01,4,1,0,2.100000e+00,1
38,864,5,4.203000e+01,21,1,2,0,6.417118e-01,4,1,0,1.300000e+00,1
38,865,5,4.709000e+01,51,1,0,0,2.500247e+00,3,1,0,1.300000e+00,1
38,866,5,1.167300e+02,68,3,2,0,2.213409e+00,4,1,0,3.200000e+00,1
38,867,5,1.052000e+02,37,3,0,0,2.500574e+00,4,1,0,3.100000e+00,1
38,868,5,5.337000e+01,28,2,0,0,2.500094e+00,4,1,0,2.300000e+00,1
38,869,5,1.235400e+02,22,3,0,0,2.500545e+00,4,1,0,3.200000e+00,1
38,870,5,1.131300e+02,34,3,3,1,8.303120e-01,4,1,0,3.100000e+00,1
38,871,5,5.721000e+01,25,2,1,0,4.480031e-01,4,1,0,2.100000e+00,1
38,872,5,6.540000e+01,65,2,0,0,2.500385e+00,4,1,0,2.100000e+00,1
38,873,5,1.336300e+02,7,3,0,0,2.500265e+00,4,1,0,3.200000e+00,1
38,874,5,4.709000e+01,51,1,1,1,1.045477e+00,4,1,0,1.300000e+00,1
38,875,5,1.411200e+02,54,3,2,0,3.831320e-01,3,1,0,3.100000e+00,1
38,876,5,1.411200e+02,54,3,3,1,2.884774e-01,4,1,0,3.100000e+00,1
38,877,5,1.177100e+02,57,3,2,0,3.783230e-01,4,1,0,3.200000e+00,1
38,878,6,92,17,1,2,0,7.088341e-01,NaN,2,0,2,1
38,879,6,106,6,2,1,0,5.122914e-01,NaN,2,0,3,1
38,880,6,118,20,2,2,1,4.102412e-01,NaN,2,0,3,1
38,881,6,99,29,1,1,1,2.485956e-01,NaN,2,0,3,1
38,882,6,78,10,2,2,1,2.370847e-01,NaN,2,0,2,1
38,883,6,27,61,2,1,0,2.825265e-01,NaN,2,0,1,1
38,884,6,90,2,1,2,0,6.857325e-01,NaN,2,0,2,1
38,885,6,30,1,2,2,1,5.051089e-01,NaN,2,0,1,1
38,886,6,140,53,1,1,1,8.677872e-01,NaN,2,0,3,1
38,887,6,109,51,2,2,1,6.715572e-01,NaN,2,0,3,1
38,888,6,18,43,1,2,0,8.108854e-01,NaN,2,1,1,1
38,889,6,131,3,2,2,1,1.033756e+00,NaN,2,1,3,1
38,890,6,56,60,2,2,1,7.827228e-01,NaN,2,1,2,1
38,891,6,64,11,1,1,1,4.695598e-01,NaN,2,0,2,1
38,892,6,93,27,1,1,1,2.335289e-01,NaN,2,1,2,1
38,893,6,20,37,1,2,0,1.911707e-01,NaN,2,0,1,1
38,894,6,21,25,2,1,0,3.770097e-02,NaN,2,0,1,1
38,895,6,3,47,1,2,0,2.189165e-01,NaN,2,0,1,1
38,896,6,120,15,2,2,1,9.032644e-02,NaN,2,0,3,1
38,897,6,94,33,2,1,0,2.204773e-01,NaN,2,0,2,1
38,898,6,77,40,2,1,0,2.177915e-01,NaN,2,0,2,1
38,899,6,73,68,1,2,0,1.999038e-01,NaN,2,0,2,1
38,900,6,13,34,1,2,0,1.499614e-01,NaN,2,0,1,1
38,901,6,86,62,2,1,0,2.628292e-01,NaN,2,0,2,1
38,902,6,53,70,2,2,1,2.025929e-01,NaN,2,0,2,1
38,903,6,139,16,2,1,0,3.536192e-01,NaN,2,1,3,1
38,904,6,12,54,1,2,0,2.981353e-01,NaN,2,0,1,1
38,905,6,97,55,2,1,0,2.524888e-01,NaN,2,0,3,1
38,906,6,33,50,2,2,1,6.410833e-01,NaN,2,0,1,1
38,907,6,112,69,2,1,0,4.946635e-01,NaN,2,0,3,1
38,908,6,43,13,2,2,1,4.249203e-01,NaN,2,1,1,1
38,909,6,32,64,1,1,1,3.431750e-01,NaN,2,0,1,1
38,910,6,129,35,1,1,1,2.723998e-01,NaN,2,1,3,1
38,911,6,137,28,1,2,0,2.758874e-01,NaN,2,0,3,1
38,912,6,83,26,2,2,1,7.754960e-01,NaN,2,0,2,1
38,913,6,76,19,1,2,0,4.629439e-01,NaN,2,0,2,1
38,914,6,11,48,2,2,1,1.090587e+00,NaN,2,1,1,1
38,915,6,143,38,1,1,1,4.781492e-01,NaN,2,1,3,1
38,916,6,98,44,1,2,0,3.697261e-01,NaN,2,1,3,1
38,917,6,26,24,1,1,1,2.981208e-01,NaN,2,0,1,1
38,918,6,71,57,1,2,0,4.604673e-01,NaN,2,0,2,1
38,919,6,4,52,1,1,1,4.328106e-01,NaN,2,0,1,1
38,920,6,37,9,1,1,1,2.859431e-01,NaN,2,0,1,1
38,921,6,142,72,1,2,0,2.256748e-01,NaN,2,1,3,1
38,922,6,63,7,2,1,0,2.548601e-01,NaN,2,0,2,1
38,923,6,9,41,1,2,0,3.393322e-01,NaN,2,0,1,1
38,924,6,34,18,2,2,1,3.722519e-01,NaN,2,0,1,1
38,925,6,85,8,2,1,0,1.882250e-01,NaN,2,1,2,1
38,926,6,101,56,2,1,0,1.000420e-01,NaN,2,0,3,1
38,927,6,124,5,1,2,0,3.097956e-01,NaN,2,0,3,1
38,928,6,69,32,2,1,0,3.283504e-01,NaN,2,1,2,1
38,929,6,45,66,2,2,1,2.976783e-01,NaN,2,0,1,1
38,930,6,51,23,2,2,1,2.844661e-01,NaN,2,1,2,1
38,931,6,8,12,2,1,0,2.235972e-01,NaN,2,0,1,1
38,932,6,115,49,1,2,0,1.485087e-04,NaN,2,0,3,1
38,933,6,22,14,2,1,0,1.880684e-01,NaN,2,1,1,1
38,934,6,110,4,2,2,1,2.593326e-01,NaN,2,0,3,1
38,935,6,89,30,1,1,1,2.393198e-01,NaN,2,0,2,1
38,936,6,127,39,2,2,1,2.450480e-01,NaN,2,1,3,1
38,937,6,49,46,2,1,0,4.333515e-01,NaN,2,0,2,1
38,938,6,103,21,1,2,0,3.190747e-01,NaN,2,0,3,1
38,939,6,136,58,2,2,1,1.615753e-01,NaN,2,0,3,1
38,940,6,61,36,1,2,0,1.034355e+00,NaN,2,0,2,1
38,941,6,14,59,1,2,0,5.830159e-01,NaN,2,0,1,1
38,942,6,54,22,1,2,0,6.059674e-01,NaN,2,0,2,1
38,943,6,40,65,1,2,0,3.800511e-01,NaN,2,0,1,1
38,944,6,17,71,2,1,0,1.987382e+00,NaN,2,0,1,1
38,945,6,88,45,1,1,1,3.622575e-01,NaN,2,0,2,1
38,946,6,108,42,1,0,0,3.500002e+00,NaN,2,1,3,1
38,947,6,79,31,1,2,0,2.685018e-01,NaN,2,0,2,1
38,948,6,125,63,1,1,1,2.168060e-01,NaN,2,0,3,1
38,949,6,1,67,2,1,0,2.947120e-01,NaN,2,1,1,1
38,950,6,31,27,1,2,0,3.216836e-01,NaN,1,1,1,1
38,951,6,6,40,2,1,0,3.636128e-01,NaN,1,0,1,1
38,952,6,58,9,1,1,1,2.113148e-01,NaN,1,0,2,1
38,953,6,65,65,2,2,1,1.215474e-01,NaN,1,0,2,1
38,954,6,16,69,2,2,1,1.794346e-01,NaN,1,0,1,1
38,955,6,141,54,2,1,0,1.866856e-01,NaN,1,0,3,1
38,956,6,138,67,2,2,1,2.181057e-01,NaN,1,1,3,1
38,957,6,105,37,2,2,1,1.922652e-01,NaN,1,0,3,1
38,958,6,19,55,1,2,0,1.912770e-01,NaN,1,0,1,1
38,959,6,87,13,2,1,0,3.017351e-02,NaN,1,1,2,1
38,960,6,144,48,2,1,0,2.033995e-01,NaN,1,1,3,1
38,961,6,84,38,2,1,0,2.341326e-01,NaN,1,1,2,1
38,962,6,24,44,2,2,1,2.712003e-01,NaN,1,1,1,1
38,963,6,2,20,1,2,0,4.111986e-01,NaN,1,0,1,1
38,964,6,107,46,2,1,0,2.335247e-01,NaN,1,0,3,1
38,965,6,52,28,2,2,1,2.871176e-01,NaN,1,0,2,1
38,966,6,46,51,1,1,1,2.583069e-01,NaN,1,0,1,1
38,967,6,80,50,1,2,0,3.109158e-01,NaN,1,0,2,1
38,968,6,121,41,1,1,1,2.011676e-01,NaN,1,0,3,1
38,969,6,39,17,2,2,1,3.201257e-01,NaN,1,0,1,1
38,970,6,132,23,2,1,0,2.100286e-01,NaN,1,1,3,1
38,971,6,134,71,1,1,1,2.407047e-01,NaN,1,0,3,1
38,972,6,42,42,2,1,0,2.539573e-01,NaN,1,1,1,1
38,973,6,117,57,2,2,1,2.427422e-01,NaN,1,0,3,1
38,974,6,47,4,1,2,0,2.637933e-01,NaN,1,0,1,1
38,975,6,28,10,1,2,0,2.281518e-01,NaN,1,0,1,1
38,976,6,66,64,2,2,1,1.454914e-01,NaN,1,0,2,1
38,977,6,74,53,1,1,1,2.660197e-01,NaN,1,0,2,1
38,978,6,102,36,2,2,1,2.139698e-01,NaN,1,0,3,1
38,979,6,126,59,1,2,0,1.433771e-04,NaN,1,0,3,1
38,980,6,68,39,2,2,1,1.146982e-01,NaN,1,1,2,1
38,981,6,44,62,1,2,0,3.009262e-01,NaN,1,0,1,1
38,982,6,38,29,1,1,1,2.871915e-01,NaN,1,0,1,1
38,983,6,128,52,2,2,1,3.384276e-01,NaN,1,0,3,1
38,984,6,135,19,2,2,1,9.314723e-01,NaN,1,0,3,1
38,985,6,41,21,1,1,1,1.284601e+00,NaN,1,0,1,1
38,986,6,62,63,1,2,0,6.956883e-01,NaN,1,0,2,1
38,987,6,111,12,1,2,0,3.627127e-01,NaN,1,0,3,1
38,988,6,50,72,2,2,1,2.745281e-01,NaN,1,1,2,1
38,989,6,114,43,2,1,0,2.302267e-01,NaN,1,1,3,1
38,990,6,81,58,2,2,1,3.631673e-01,NaN,1,0,2,1
38,991,6,133,7,2,2,1,3.713787e-01,NaN,1,0,3,1
38,992,6,100,47,1,1,1,3.072169e-01,NaN,1,0,3,1
38,993,6,116,68,1,2,0,1.412639e-04,NaN,1,0,3,1
38,994,6,29,56,1,1,1,2.604458e-01,NaN,1,0,1,1
38,995,6,122,60,2,2,1,2.334882e-01,NaN,1,1,3,1
38,996,6,36,6,2,1,0,3.024354e-01,NaN,1,0,1,1
38,997,6,104,32,1,2,0,2.334142e-01,NaN,1,1,3,1
38,998,6,5,30,2,1,0,3.423685e-01,NaN,1,0,1,1
38,999,6,91,66,1,2,0,6.638236e-01,NaN,1,0,2,1
38,1000,6,48,8,1,1,1,1.878347e-01,NaN,1,1,1,1
38,1001,6,57,25,2,1,0,2.823584e-01,NaN,1,0,2,1
38,1002,6,82,18,1,1,1,4.778253e-01,NaN,1,0,2,1
38,1003,6,60,15,1,1,1,4.813198e-01,NaN,1,0,2,1
38,1004,6,113,34,1,2,0,5.165335e-01,NaN,1,0,3,1
38,1005,6,72,24,1,2,0,1.846184e+00,NaN,1,0,2,1
38,1006,6,23,31,1,2,0,7.240752e-01,NaN,1,0,1,1
38,1007,6,130,11,2,1,0,1.349024e+00,NaN,1,0,3,1
38,1008,6,10,49,2,1,0,2.493237e+00,NaN,1,0,1,1
38,1009,6,35,2,1,2,0,4.164589e-01,NaN,1,0,1,1
38,1010,6,95,1,1,1,1,6.940689e-01,NaN,1,0,2,1
38,1011,6,96,61,1,1,1,6.889955e-01,NaN,1,0,2,1
38,1012,6,123,22,1,2,0,9.882880e-01,NaN,1,0,3,1
38,1013,6,55,35,2,1,0,1.011165e+00,NaN,1,1,2,1
38,1014,6,67,14,2,2,1,2.895655e-01,NaN,1,1,2,1
38,1015,6,75,16,1,1,1,2.922604e-01,NaN,1,1,2,1
38,1016,6,25,33,2,2,1,1.327132e+00,NaN,1,0,1,1
38,1017,6,70,3,1,1,1,1.000886e+00,NaN,1,1,2,1
38,1018,6,59,5,1,1,1,9.993196e-01,NaN,1,0,2,1
38,1019,6,7,45,2,2,1,1.037476e+00,NaN,1,0,1,1
38,1020,6,15,26,1,2,0,1.513984e+00,NaN,1,0,1,1
38,1021,6,119,70,1,1,1,2.244031e+00,NaN,1,0,3,1
