Subject,Trial,Cond,ImageNum,CueNum,Correct,Resp,Accuracy,RT,CueRep,ImageType,Baseline,Category,Block
23,1,1,78,NaN,NaN,1,NaN,2.133713e+00,NaN,0,0,2,1
23,2,1,122,NaN,NaN,2,NaN,1.982988e+00,NaN,0,1,3,1
23,3,1,76,NaN,NaN,1,NaN,2.617037e+00,NaN,1,0,2,1
23,4,1,16,NaN,NaN,1,NaN,1.378425e+00,NaN,0,0,1,1
23,5,1,84,NaN,NaN,1,NaN,8.448950e-01,NaN,2,0,2,1
23,6,1,38,NaN,NaN,1,NaN,8.565209e-02,NaN,0,1,1,1
23,7,1,96,NaN,NaN,1,NaN,7.802206e-01,NaN,0,0,2,1
23,8,1,141,NaN,NaN,1,NaN,2.470630e-01,NaN,1,0,3,1
23,9,1,26,NaN,NaN,2,NaN,2.714926e-01,NaN,0,0,1,1
23,10,1,128,NaN,NaN,2,NaN,4.865209e-01,NaN,1,0,3,1
23,11,1,134,NaN,NaN,1,NaN,1.260951e+00,NaN,2,1,3,1
23,12,1,41,NaN,NaN,2,NaN,9.964391e-01,NaN,0,0,1,1
23,13,1,48,NaN,NaN,1,NaN,3.590801e-01,NaN,2,0,1,1
23,14,1,42,NaN,NaN,1,NaN,9.069934e-01,NaN,0,0,1,1
23,15,1,119,NaN,NaN,2,NaN,3.123226e-01,NaN,2,0,3,1
23,16,1,19,NaN,NaN,2,NaN,1.037720e+00,NaN,0,0,1,1
23,17,1,28,NaN,NaN,2,NaN,1.142316e+00,NaN,0,1,1,1
23,18,1,90,NaN,NaN,1,NaN,7.867555e-01,NaN,2,0,2,1
23,19,1,19,NaN,NaN,2,NaN,8.288745e-01,NaN,2,0,1,1
23,20,1,21,NaN,NaN,1,NaN,4.222178e-01,NaN,0,1,1,1
23,21,1,4,NaN,NaN,1,NaN,5.749820e-01,NaN,1,0,1,1
23,22,1,93,NaN,NaN,1,NaN,8.583540e-01,NaN,0,0,2,1
23,23,1,7,NaN,NaN,1,NaN,4.104325e-01,NaN,1,1,1,1
23,24,1,78,NaN,NaN,1,NaN,2.520377e-01,NaN,1,0,2,1
23,25,1,16,NaN,NaN,1,NaN,6.602003e-01,NaN,2,0,1,1
23,26,1,142,NaN,NaN,1,NaN,2.003657e+00,NaN,1,0,3,1
23,27,1,35,NaN,NaN,2,NaN,1.173651e+00,NaN,0,0,1,1
23,28,1,141,NaN,NaN,1,NaN,9.290267e-01,NaN,0,0,3,1
23,29,1,106,NaN,NaN,2,NaN,4.054955e-01,NaN,1,0,3,1
23,30,1,108,NaN,NaN,2,NaN,4.156219e-01,NaN,1,0,3,1
23,31,1,119,NaN,NaN,1,NaN,2.406702e-01,NaN,0,0,3,1
23,32,1,40,NaN,NaN,2,NaN,2.976225e-01,NaN,2,0,1,1
23,33,1,79,NaN,NaN,1,NaN,2.798063e-01,NaN,0,0,2,1
23,34,1,102,NaN,NaN,2,NaN,4.943683e-01,NaN,0,0,3,1
23,35,1,84,NaN,NaN,1,NaN,2.690186e-01,NaN,0,0,2,1
23,36,1,10,NaN,NaN,1,NaN,5.085077e-01,NaN,0,0,1,1
23,37,1,62,NaN,NaN,1,NaN,5.303284e-01,NaN,1,1,2,1
23,38,1,54,NaN,NaN,1,NaN,2.469217e-01,NaN,2,1,2,1
23,39,1,95,NaN,NaN,1,NaN,2.552774e-01,NaN,2,0,2,1
23,40,1,44,NaN,NaN,1,NaN,3.512683e-01,NaN,2,0,1,1
23,41,1,72,NaN,NaN,1,NaN,2.353713e-01,NaN,0,1,2,1
23,42,1,12,NaN,NaN,2,NaN,3.321207e-01,NaN,0,0,1,1
23,43,1,123,NaN,NaN,1,NaN,2.414589e-01,NaN,2,1,3,1
23,44,1,86,NaN,NaN,1,NaN,3.536200e-01,NaN,0,0,2,1
23,45,1,45,NaN,NaN,2,NaN,1.021822e+00,NaN,1,0,1,1
23,46,1,99,NaN,NaN,2,NaN,7.830151e-01,NaN,2,1,3,1
23,47,1,5,NaN,NaN,1,NaN,2.816530e-01,NaN,0,0,1,1
23,48,1,67,NaN,NaN,1,NaN,2.963891e-01,NaN,0,0,2,1
23,49,1,112,NaN,NaN,1,NaN,3.026334e-01,NaN,0,0,3,1
23,50,1,3,NaN,NaN,2,NaN,9.888299e-01,NaN,0,0,1,1
23,51,1,89,NaN,NaN,1,NaN,1.471263e+00,NaN,2,1,2,1
23,52,1,115,NaN,NaN,2,NaN,6.139518e-01,NaN,2,0,3,1
23,53,1,27,NaN,NaN,1,NaN,2.714222e-01,NaN,1,0,1,1
23,54,1,138,NaN,NaN,1,NaN,2.469845e-01,NaN,2,0,3,1
23,55,1,125,NaN,NaN,1,NaN,5.586905e-01,NaN,0,0,3,1
23,56,1,46,NaN,NaN,2,NaN,7.145646e-01,NaN,0,0,1,1
23,57,1,93,NaN,NaN,1,NaN,2.642211e-01,NaN,1,0,2,1
23,58,1,101,NaN,NaN,2,NaN,1.959455e+00,NaN,0,0,3,1
23,59,1,13,NaN,NaN,1,NaN,3.473114e-01,NaN,0,0,1,1
23,60,1,62,NaN,NaN,1,NaN,2.717718e-01,NaN,0,1,2,1
23,61,1,77,NaN,NaN,1,NaN,2.151799e-01,NaN,1,0,2,1
23,62,1,83,NaN,NaN,1,NaN,2.244997e-01,NaN,2,0,2,1
23,63,1,20,NaN,NaN,2,NaN,2.415452e-01,NaN,2,0,1,1
23,64,1,22,NaN,NaN,2,NaN,3.144295e-01,NaN,0,1,1,1
23,65,1,75,NaN,NaN,1,NaN,2.640047e-01,NaN,1,0,2,1
23,66,1,61,NaN,NaN,1,NaN,3.032519e-01,NaN,1,0,2,1
23,67,1,29,NaN,NaN,1,NaN,6.289744e-01,NaN,0,0,1,1
23,68,1,51,NaN,NaN,1,NaN,2.303404e-01,NaN,0,1,2,1
23,69,1,82,NaN,NaN,1,NaN,4.789702e-01,NaN,0,0,2,1
23,70,1,144,NaN,NaN,1,NaN,2.378410e-01,NaN,0,0,3,1
23,71,1,67,NaN,NaN,1,NaN,1.422286e-01,NaN,1,0,2,1
23,72,1,139,NaN,NaN,1,NaN,2.912731e-01,NaN,2,1,3,1
23,73,1,15,NaN,NaN,2,NaN,3.053603e-01,NaN,0,1,1,1
23,74,1,87,NaN,NaN,1,NaN,1.354274e-01,NaN,1,1,2,1
23,75,1,12,NaN,NaN,2,NaN,3.726450e-01,NaN,1,0,1,1
23,76,1,144,NaN,NaN,1,NaN,2.476661e-01,NaN,1,0,3,1
23,77,1,129,NaN,NaN,2,NaN,5.437105e-01,NaN,1,1,3,1
23,78,1,75,NaN,NaN,1,NaN,5.645097e-01,NaN,0,0,2,1
23,79,1,126,NaN,NaN,2,NaN,4.561266e-01,NaN,0,1,3,1
23,80,1,45,NaN,NaN,2,NaN,1.597462e-01,NaN,0,0,1,1
23,81,1,69,NaN,NaN,1,NaN,2.275012e-01,NaN,1,0,2,1
23,82,1,109,NaN,NaN,1,NaN,2.369581e-01,NaN,0,0,3,1
23,83,1,90,NaN,NaN,1,NaN,2.295411e-01,NaN,0,0,2,1
23,84,1,125,NaN,NaN,1,NaN,1.821269e-01,NaN,2,0,3,1
23,85,1,5,NaN,NaN,1,NaN,3.531769e-01,NaN,2,0,1,1
23,86,1,97,NaN,NaN,1,NaN,3.570831e-01,NaN,2,0,3,1
23,87,1,133,NaN,NaN,2,NaN,3.286607e-01,NaN,0,0,3,1
23,88,1,73,NaN,NaN,1,NaN,3.420608e-01,NaN,2,1,2,1
23,89,1,25,NaN,NaN,1,NaN,9.043876e-02,NaN,0,0,1,1
23,90,1,66,NaN,NaN,1,NaN,2.168603e-01,NaN,1,1,2,1
23,91,1,139,NaN,NaN,1,NaN,2.108300e-01,NaN,0,1,3,1
23,92,1,80,NaN,NaN,1,NaN,2.368781e-01,NaN,0,0,2,1
23,93,1,71,NaN,NaN,1,NaN,2.131566e-01,NaN,1,0,2,1
23,94,1,94,NaN,NaN,1,NaN,2.786913e-01,NaN,2,0,2,1
23,95,1,33,NaN,NaN,1,NaN,2.377353e-01,NaN,2,0,1,1
23,96,1,98,NaN,NaN,2,NaN,2.540957e-01,NaN,1,0,3,1
23,97,1,50,NaN,NaN,1,NaN,2.458535e-01,NaN,0,0,2,1
23,98,1,34,NaN,NaN,1,NaN,2.860237e-01,NaN,1,0,1,1
23,99,1,39,NaN,NaN,2,NaN,2.845936e-01,NaN,1,0,1,1
23,100,1,70,NaN,NaN,1,NaN,2.354407e-01,NaN,2,0,2,1
23,101,1,83,NaN,NaN,1,NaN,2.523513e-01,NaN,0,0,2,1
23,102,1,8,NaN,NaN,2,NaN,2.286120e-01,NaN,0,1,1,1
23,103,1,65,NaN,NaN,1,NaN,2.376152e-01,NaN,2,0,2,1
23,104,1,42,NaN,NaN,1,NaN,3.021713e-01,NaN,2,0,1,1
23,105,1,143,NaN,NaN,2,NaN,8.284030e-01,NaN,0,0,3,1
23,106,1,134,NaN,NaN,1,NaN,2.373088e-01,NaN,0,1,3,1
23,107,1,29,NaN,NaN,1,NaN,2.454584e-01,NaN,2,0,1,1
23,108,1,61,NaN,NaN,1,NaN,2.142411e-01,NaN,0,0,2,1
23,109,1,20,NaN,NaN,2,NaN,2.792243e-01,NaN,0,0,1,1
23,110,1,47,NaN,NaN,1,NaN,2.781893e-01,NaN,1,0,1,1
23,111,1,98,NaN,NaN,1,NaN,3.720884e-02,NaN,0,0,3,1
23,112,1,73,NaN,NaN,1,NaN,2.463880e-01,NaN,0,1,2,1
23,113,1,74,NaN,NaN,1,NaN,2.542668e-01,NaN,1,0,2,1
23,114,1,100,NaN,NaN,1,NaN,2.380797e-01,NaN,0,0,3,1
23,115,1,2,NaN,NaN,1,NaN,2.545125e-01,NaN,2,1,1,1
23,116,1,130,NaN,NaN,2,NaN,2.224320e-01,NaN,2,1,3,1
23,117,1,8,NaN,NaN,1,NaN,2.077702e-01,NaN,1,1,1,1
23,118,1,24,NaN,NaN,2,NaN,2.493893e-01,NaN,2,0,1,1
23,119,1,117,NaN,NaN,2,NaN,3.536988e-01,NaN,0,0,3,1
23,120,1,130,NaN,NaN,2,NaN,1.166843e+00,NaN,0,1,3,1
23,121,1,114,NaN,NaN,1,NaN,7.134354e-01,NaN,1,0,3,1
23,122,1,68,NaN,NaN,1,NaN,2.947172e-01,NaN,0,0,2,1
23,123,1,55,NaN,NaN,1,NaN,3.650068e-01,NaN,0,0,2,1
23,124,1,111,NaN,NaN,1,NaN,2.325822e-01,NaN,0,1,3,1
23,125,1,3,NaN,NaN,2,NaN,3.056956e-01,NaN,1,0,1,1
23,126,1,59,NaN,NaN,1,NaN,2.394184e-01,NaN,0,0,2,1
23,127,1,43,NaN,NaN,1,NaN,3.197284e-01,NaN,1,0,1,1
23,128,1,17,NaN,NaN,1,NaN,1.412675e+00,NaN,0,0,1,1
23,129,1,85,NaN,NaN,1,NaN,2.222527e-01,NaN,2,0,2,1
23,130,1,70,NaN,NaN,1,NaN,1.994691e-01,NaN,0,0,2,1
23,131,1,11,NaN,NaN,1,NaN,2.418942e-01,NaN,2,0,1,1
23,132,1,64,NaN,NaN,1,NaN,1.346508e+00,NaN,0,0,2,1
23,133,1,7,NaN,NaN,1,NaN,2.546333e-01,NaN,0,1,1,1
23,134,1,81,NaN,NaN,1,NaN,2.223973e-01,NaN,0,1,2,1
23,135,1,55,NaN,NaN,1,NaN,2.314331e-01,NaN,1,0,2,1
23,136,1,53,NaN,NaN,1,NaN,2.644339e-01,NaN,0,1,2,1
23,137,1,57,NaN,NaN,1,NaN,2.398691e-01,NaN,0,0,2,1
23,138,1,96,NaN,NaN,1,NaN,3.204858e-01,NaN,1,0,2,1
23,139,1,36,NaN,NaN,2,NaN,5.979247e-01,NaN,0,0,1,1
23,140,1,71,NaN,NaN,1,NaN,2.957902e-01,NaN,0,0,2,1
23,141,1,14,NaN,NaN,1,NaN,2.302012e-01,NaN,0,1,1,1
23,142,1,103,NaN,NaN,1,NaN,4.630343e-01,NaN,0,1,3,1
23,143,1,109,NaN,NaN,1,NaN,2.547135e-01,NaN,2,0,3,1
23,144,1,85,NaN,NaN,1,NaN,2.862595e-01,NaN,0,0,2,1
23,145,1,74,NaN,NaN,1,NaN,2.768425e-01,NaN,0,0,2,1
23,146,1,31,NaN,NaN,1,NaN,3.241707e-01,NaN,0,0,1,1
23,147,1,133,NaN,NaN,2,NaN,4.013693e-01,NaN,1,0,3,1
23,148,1,65,NaN,NaN,1,NaN,2.916287e-01,NaN,0,0,2,1
23,149,1,135,NaN,NaN,2,NaN,4.504479e-01,NaN,0,0,3,1
23,150,1,137,NaN,NaN,1,NaN,2.665441e-01,NaN,2,1,3,1
23,151,1,54,NaN,NaN,1,NaN,2.337941e-01,NaN,0,1,2,1
23,152,1,118,NaN,NaN,1,NaN,2.749686e-01,NaN,0,0,3,1
23,153,1,140,NaN,NaN,1,NaN,3.304343e-01,NaN,0,0,3,1
23,154,1,101,NaN,NaN,1,NaN,2.069486e-01,NaN,2,0,3,1
23,155,1,40,NaN,NaN,1,NaN,2.328213e-01,NaN,0,0,1,1
23,156,1,64,NaN,NaN,1,NaN,2.256467e-01,NaN,2,0,2,1
23,157,1,106,NaN,NaN,1,NaN,3.229558e-01,NaN,0,0,3,1
23,158,1,23,NaN,NaN,2,NaN,1.923742e-01,NaN,0,1,1,1
23,159,1,86,NaN,NaN,1,NaN,1.227659e-01,NaN,1,0,2,1
23,160,1,37,NaN,NaN,2,NaN,6.080854e-01,NaN,0,0,1,1
23,161,1,111,NaN,NaN,1,NaN,5.140659e-01,NaN,2,1,3,1
23,162,1,131,NaN,NaN,1,NaN,2.875960e-01,NaN,0,0,3,1
23,163,1,122,NaN,NaN,2,NaN,2.780607e-01,NaN,1,1,3,1
23,164,1,43,NaN,NaN,1,NaN,2.766753e-01,NaN,0,0,1,1
23,165,1,22,NaN,NaN,2,NaN,5.158978e-01,NaN,1,1,1,1
23,166,1,41,NaN,NaN,1,NaN,2.737108e-01,NaN,2,0,1,1
23,167,1,124,NaN,NaN,2,NaN,7.049764e-01,NaN,0,0,3,1
23,168,1,120,NaN,NaN,1,NaN,2.465320e-01,NaN,2,0,3,1
23,169,1,92,NaN,NaN,1,NaN,2.470424e-01,NaN,0,0,2,1
23,170,1,51,NaN,NaN,1,NaN,3.030007e-01,NaN,1,1,2,1
23,171,1,17,NaN,NaN,1,NaN,2.932321e-01,NaN,1,0,1,1
23,172,1,100,NaN,NaN,1,NaN,2.197676e-01,NaN,1,0,3,1
23,173,1,140,NaN,NaN,1,NaN,2.371036e-01,NaN,2,0,3,1
23,174,1,110,NaN,NaN,1,NaN,2.787003e-01,NaN,0,0,3,1
23,175,1,135,NaN,NaN,1,NaN,1.331141e-04,NaN,1,0,3,1
23,176,1,35,NaN,NaN,2,NaN,2.627665e-01,NaN,2,0,1,1
23,177,1,132,NaN,NaN,1,NaN,6.781752e-01,NaN,0,0,3,1
23,178,1,25,NaN,NaN,1,NaN,2.771093e-01,NaN,2,0,1,1
23,179,1,10,NaN,NaN,1,NaN,2.042292e-01,NaN,1,0,1,1
23,180,1,105,NaN,NaN,2,NaN,2.860436e-01,NaN,1,1,3,1
23,181,1,131,NaN,NaN,1,NaN,5.884123e-01,NaN,2,0,3,1
23,182,1,14,NaN,NaN,1,NaN,2.550821e-01,NaN,1,1,1,1
23,183,1,72,NaN,NaN,1,NaN,1.908390e-01,NaN,2,1,2,1
23,184,1,1,NaN,NaN,1,NaN,2.655987e-01,NaN,0,0,1,1
23,185,1,88,NaN,NaN,1,NaN,2.728632e-01,NaN,1,0,2,1
23,186,1,123,NaN,NaN,1,NaN,2.244798e-01,NaN,0,1,3,1
23,187,1,127,NaN,NaN,1,NaN,2.977719e-01,NaN,1,0,3,1
23,188,1,126,NaN,NaN,1,NaN,2.403261e-01,NaN,2,1,3,1
23,189,1,11,NaN,NaN,1,NaN,2.965744e-01,NaN,0,0,1,1
23,190,1,23,NaN,NaN,2,NaN,2.223514e-01,NaN,2,1,1,1
23,191,1,114,NaN,NaN,1,NaN,2.320691e-01,NaN,0,0,3,1
23,192,1,18,NaN,NaN,1,NaN,6.165232e-01,NaN,1,0,1,1
23,193,1,63,NaN,NaN,1,NaN,2.183399e-01,NaN,1,0,2,1
23,194,1,79,NaN,NaN,1,NaN,2.519737e-01,NaN,2,0,2,1
23,195,1,49,NaN,NaN,1,NaN,2.841580e-01,NaN,2,1,2,1
23,196,1,107,NaN,NaN,1,NaN,2.991181e-01,NaN,2,0,3,1
23,197,1,91,NaN,NaN,1,NaN,7.940047e-01,NaN,2,0,2,1
23,198,1,9,NaN,NaN,1,NaN,2.673398e-01,NaN,1,1,1,1
23,199,1,32,NaN,NaN,1,NaN,2.754386e-01,NaN,0,0,1,1
23,200,1,116,NaN,NaN,1,NaN,5.064898e-01,NaN,1,0,3,1
23,201,1,92,NaN,NaN,1,NaN,3.123975e-01,NaN,2,0,2,1
23,202,1,117,NaN,NaN,2,NaN,2.695478e-01,NaN,1,0,3,1
23,203,1,76,NaN,NaN,1,NaN,2.693048e-01,NaN,0,0,2,1
23,204,1,104,NaN,NaN,1,NaN,2.763013e-01,NaN,2,0,3,1
23,205,1,56,NaN,NaN,1,NaN,1.075619e-01,NaN,1,1,2,1
23,206,1,30,NaN,NaN,2,NaN,4.656920e-01,NaN,2,0,1,1
23,207,1,36,NaN,NaN,2,NaN,3.534573e-01,NaN,2,0,1,1
23,208,1,2,NaN,NaN,1,NaN,2.688909e-01,NaN,0,1,1,1
23,209,1,127,NaN,NaN,1,NaN,2.843759e-01,NaN,0,0,3,1
23,210,1,113,NaN,NaN,1,NaN,8.753763e-01,NaN,0,0,3,1
23,211,1,143,NaN,NaN,2,NaN,2.743782e-01,NaN,2,0,3,1
23,212,1,60,NaN,NaN,1,NaN,3.220807e-01,NaN,2,1,2,1
23,213,1,81,NaN,NaN,1,NaN,3.911796e-01,NaN,1,1,2,1
23,214,1,4,NaN,NaN,1,NaN,2.333770e-01,NaN,0,0,1,1
23,215,1,136,NaN,NaN,2,NaN,2.664366e-01,NaN,0,0,3,1
23,216,1,53,NaN,NaN,1,NaN,2.580918e-01,NaN,2,1,2,1
23,217,1,82,NaN,NaN,1,NaN,2.422552e-01,NaN,2,0,2,1
23,218,1,33,NaN,NaN,1,NaN,1.065736e-01,NaN,0,0,1,1
23,219,1,28,NaN,NaN,2,NaN,2.963755e-01,NaN,1,1,1,1
23,220,1,88,NaN,NaN,1,NaN,2.388799e-01,NaN,0,0,2,1
23,221,1,50,NaN,NaN,1,NaN,2.795488e-01,NaN,2,0,2,1
23,222,1,9,NaN,NaN,1,NaN,2.543679e-01,NaN,0,1,1,1
23,223,1,24,NaN,NaN,1,NaN,2.458583e-01,NaN,0,0,1,1
23,224,1,87,NaN,NaN,1,NaN,2.859640e-01,NaN,0,1,2,1
23,225,1,58,NaN,NaN,1,NaN,2.207058e-01,NaN,2,0,2,1
23,226,1,102,NaN,NaN,2,NaN,2.222983e-01,NaN,1,0,3,1
23,227,1,107,NaN,NaN,1,NaN,2.631538e-01,NaN,0,0,3,1
23,228,1,46,NaN,NaN,2,NaN,2.711131e-01,NaN,2,0,1,1
23,229,1,110,NaN,NaN,1,NaN,1.341222e-01,NaN,1,0,3,1
23,230,1,80,NaN,NaN,1,NaN,1.710050e-01,NaN,2,0,2,1
23,231,1,118,NaN,NaN,1,NaN,2.304584e-01,NaN,1,0,3,1
23,232,1,68,NaN,NaN,1,NaN,1.913323e-01,NaN,2,0,2,1
23,233,1,115,NaN,NaN,1,NaN,4.416238e-01,NaN,0,0,3,1
23,234,1,18,NaN,NaN,1,NaN,2.822443e-01,NaN,0,0,1,1
23,235,1,95,NaN,NaN,1,NaN,2.412772e-01,NaN,0,0,2,1
23,236,1,132,NaN,NaN,1,NaN,2.335868e-01,NaN,1,0,3,1
23,237,1,6,NaN,NaN,1,NaN,2.586563e-01,NaN,2,0,1,1
23,238,1,44,NaN,NaN,1,NaN,2.822992e-01,NaN,0,0,1,1
23,239,1,129,NaN,NaN,1,NaN,2.176137e-01,NaN,0,1,3,1
23,240,1,31,NaN,NaN,1,NaN,1.869772e-01,NaN,1,0,1,1
23,241,1,136,NaN,NaN,1,NaN,2.376255e-01,NaN,2,0,3,1
23,242,1,39,NaN,NaN,2,NaN,2.861692e-01,NaN,0,0,1,1
23,243,1,94,NaN,NaN,1,NaN,3.086579e-01,NaN,0,0,2,1
23,244,1,57,NaN,NaN,1,NaN,2.347458e-01,NaN,1,0,2,1
23,245,1,105,NaN,NaN,1,NaN,6.762706e-02,NaN,0,1,3,1
23,246,1,124,NaN,NaN,2,NaN,4.591897e-01,NaN,1,0,3,1
23,247,1,112,NaN,NaN,1,NaN,2.585379e-01,NaN,2,0,3,1
23,248,1,59,NaN,NaN,1,NaN,2.028779e-01,NaN,1,0,2,1
23,249,1,52,NaN,NaN,1,NaN,3.007713e-01,NaN,0,0,2,1
23,250,1,89,NaN,NaN,1,NaN,3.310984e-01,NaN,0,1,2,1
23,251,1,77,NaN,NaN,1,NaN,1.679027e-01,NaN,0,0,2,1
23,252,1,58,NaN,NaN,1,NaN,2.436883e-01,NaN,0,0,2,1
23,253,1,128,NaN,NaN,1,NaN,2.760592e-01,NaN,0,0,3,1
23,254,1,13,NaN,NaN,1,NaN,2.433484e-01,NaN,1,0,1,1
23,255,1,113,NaN,NaN,1,NaN,2.679598e-01,NaN,1,0,3,1
23,256,1,121,NaN,NaN,2,NaN,2.757981e-01,NaN,0,0,3,1
23,257,1,120,NaN,NaN,2,NaN,4.988039e-01,NaN,0,0,3,1
23,258,1,15,NaN,NaN,2,NaN,1.691336e-01,NaN,1,1,1,1
23,259,1,103,NaN,NaN,1,NaN,1.965596e-01,NaN,2,1,3,1
23,260,1,6,NaN,NaN,1,NaN,3.026406e-01,NaN,0,0,1,1
23,261,1,142,NaN,NaN,1,NaN,3.570933e-01,NaN,0,0,3,1
23,262,1,137,NaN,NaN,1,NaN,2.488260e-01,NaN,0,1,3,1
23,263,1,34,NaN,NaN,1,NaN,1.131339e-01,NaN,0,0,1,1
23,264,1,99,NaN,NaN,2,NaN,2.708080e-01,NaN,0,1,3,1
23,265,1,30,NaN,NaN,1,NaN,2.394703e-01,NaN,0,0,1,1
23,266,1,63,NaN,NaN,1,NaN,2.226524e-01,NaN,0,0,2,1
23,267,1,52,NaN,NaN,1,NaN,2.559816e-01,NaN,1,0,2,1
23,268,1,1,NaN,NaN,1,NaN,2.957830e-01,NaN,2,0,1,1
23,269,1,48,NaN,NaN,1,NaN,2.298514e-01,NaN,0,0,1,1
23,270,1,91,NaN,NaN,1,NaN,2.945536e-01,NaN,0,0,2,1
23,271,1,104,NaN,NaN,1,NaN,1.571186e-01,NaN,0,0,3,1
23,272,1,116,NaN,NaN,1,NaN,2.171328e-01,NaN,0,0,3,1
23,273,1,56,NaN,NaN,1,NaN,1.701297e-01,NaN,0,1,2,1
23,274,1,26,NaN,NaN,2,NaN,3.013620e-01,NaN,2,0,1,1
23,275,1,69,NaN,NaN,1,NaN,2.679857e-01,NaN,0,0,2,1
23,276,1,108,NaN,NaN,2,NaN,2.432700e-01,NaN,0,0,3,1
23,277,1,66,NaN,NaN,1,NaN,2.920175e-01,NaN,0,1,2,1
23,278,1,37,NaN,NaN,2,NaN,2.747649e-01,NaN,1,0,1,1
23,279,1,47,NaN,NaN,1,NaN,2.260998e-01,NaN,0,0,1,1
23,280,1,38,NaN,NaN,1,NaN,2.593934e-01,NaN,1,1,1,1
23,281,1,121,NaN,NaN,2,NaN,2.828746e-01,NaN,1,0,3,1
23,282,1,21,NaN,NaN,1,NaN,1.787712e-02,NaN,1,1,1,1
23,283,1,32,NaN,NaN,1,NaN,1.312695e-01,NaN,2,0,1,1
23,284,1,138,NaN,NaN,1,NaN,3.286380e-01,NaN,0,0,3,1
23,285,1,60,NaN,NaN,1,NaN,7.743765e-02,NaN,0,1,2,1
23,286,1,49,NaN,NaN,1,NaN,2.444278e-01,NaN,0,1,2,1
23,287,1,27,NaN,NaN,1,NaN,2.526996e-01,NaN,0,0,1,1
23,288,1,97,NaN,NaN,1,NaN,2.769379e-01,NaN,0,0,3,1
23,380,2,128,13,2,2,1,1.129042e+00,NaN,1,0,3,1
23,381,2,56,36,2,2,1,1.977564e+00,NaN,1,1,2,1
23,382,2,18,26,1,1,1,1.543647e+00,NaN,1,0,1,1
23,383,2,118,69,2,2,1,1.582990e+00,NaN,1,0,3,1
23,384,2,74,30,2,2,1,1.396646e+00,NaN,1,0,2,1
23,385,2,116,34,1,1,1,2.410008e+00,NaN,1,0,3,1
23,386,2,113,59,2,2,1,1.006983e+00,NaN,1,0,3,1
23,387,2,21,17,2,2,1,2.107702e+00,NaN,1,1,1,1
23,388,2,135,32,2,2,1,9.175695e-01,NaN,1,0,3,1
23,389,2,7,6,2,2,1,1.148907e+00,NaN,1,1,1,1
23,390,2,37,51,1,2,0,3.180007e+00,NaN,1,0,1,1
23,391,2,8,50,2,2,1,1.113937e+00,NaN,1,1,1,1
23,392,2,52,67,2,2,1,1.250310e+00,NaN,1,0,2,1
23,393,2,63,5,2,2,1,1.477269e+00,NaN,1,0,2,1
23,394,2,51,31,1,1,1,9.364862e-01,NaN,1,1,2,1
23,395,2,57,42,2,2,1,1.326782e+00,NaN,1,0,2,1
23,396,2,12,46,2,2,1,2.406736e+00,NaN,1,0,1,1
23,397,2,127,28,2,2,1,8.118688e-01,NaN,1,0,3,1
23,398,2,132,52,2,2,1,1.200062e+00,NaN,1,0,3,1
23,399,2,77,20,2,2,1,8.450996e-01,NaN,1,0,2,1
23,400,2,67,10,1,1,1,9.047975e-01,NaN,1,0,2,1
23,401,2,100,47,1,1,1,1.321816e+00,NaN,1,0,3,1
23,402,2,78,63,2,2,1,9.620990e-01,NaN,1,0,2,1
23,403,2,96,24,1,1,1,1.376203e+00,NaN,1,0,2,1
23,404,3,132,52,1,1,1,1.732988e+00,NaN,1,0,3,1
23,405,3,113,59,1,1,1,9.166145e-01,NaN,1,0,3,1
23,406,3,128,13,1,1,1,9.571925e-01,NaN,1,0,3,1
23,407,3,116,34,2,2,1,1.443889e+00,NaN,1,0,3,1
23,408,3,56,36,1,1,1,1.087359e+00,NaN,1,1,2,1
23,409,3,57,42,2,2,1,9.131411e-01,NaN,1,0,2,1
23,410,3,118,69,1,2,0,1.361779e+00,NaN,1,0,3,1
23,411,3,78,63,2,2,1,7.519412e-01,NaN,1,0,2,1
23,412,3,100,47,1,1,1,9.917424e-01,NaN,1,0,3,1
23,413,3,7,6,1,1,1,1.013165e+00,NaN,1,1,1,1
23,414,3,8,50,1,1,1,2.481397e+00,NaN,1,1,1,1
23,415,3,63,5,2,2,1,1.210987e+00,NaN,1,0,2,1
23,416,3,52,67,1,1,1,1.871691e+00,NaN,1,0,2,1
23,417,3,21,17,1,1,1,1.889929e+00,NaN,1,1,1,1
23,418,3,18,26,1,1,1,9.474335e-01,NaN,1,0,1,1
23,419,3,96,24,2,2,1,9.546105e-01,NaN,1,0,2,1
23,420,3,74,30,1,1,1,1.417622e+00,NaN,1,0,2,1
23,421,3,127,28,2,2,1,1.646387e+00,NaN,1,0,3,1
23,422,3,67,10,2,2,1,1.689304e+00,NaN,1,0,2,1
23,423,3,77,20,1,1,1,1.314820e+00,NaN,1,0,2,1
23,424,3,135,32,2,2,1,8.032792e-01,NaN,1,0,3,1
23,425,3,51,31,1,1,1,1.024132e+00,NaN,1,1,2,1
23,426,3,12,46,2,2,1,7.963693e-01,NaN,1,0,1,1
23,427,3,37,51,2,1,0,2.449321e+00,NaN,1,0,1,1
23,452,2,39,44,1,1,1,1.457515e+00,NaN,1,0,1,2
23,453,2,69,49,2,2,1,7.401436e-01,NaN,1,0,2,2
23,454,2,14,64,1,1,1,1.547379e+00,NaN,1,1,1,2
23,455,2,17,35,1,1,1,1.290829e+00,NaN,1,0,1,2
23,456,2,86,4,1,1,1,8.762257e-01,NaN,1,0,2,2
23,457,2,45,56,2,2,1,1.934452e+00,NaN,1,0,1,2
23,458,2,4,25,2,2,1,1.598485e+00,NaN,1,0,1,2
23,459,2,76,29,2,2,1,8.276946e-01,NaN,1,0,2,2
23,460,2,47,27,2,2,1,1.624101e+00,NaN,1,0,1,2
23,461,2,81,11,2,2,1,8.201463e-01,NaN,1,1,2,2
23,462,2,122,9,2,2,1,9.363090e-01,NaN,1,1,3,2
23,463,2,62,71,2,2,1,8.078908e-01,NaN,1,1,2,2
23,464,2,105,14,1,1,1,8.606296e-01,NaN,1,1,3,2
23,465,2,3,40,1,1,1,2.255554e+00,NaN,1,0,1,2
23,466,2,15,57,2,2,1,1.490344e+00,NaN,1,1,1,2
23,467,2,124,19,2,2,1,9.558182e-01,NaN,1,0,3,2
23,468,2,121,70,1,1,1,2.026721e+00,NaN,1,0,3,2
23,469,2,10,58,2,2,1,9.103524e-01,NaN,1,0,1,2
23,470,2,108,1,1,1,1,8.875020e-01,NaN,1,0,3,2
23,471,2,34,39,1,1,1,2.017035e+00,NaN,1,0,1,2
23,472,2,114,68,1,1,1,1.077581e+00,NaN,1,0,3,2
23,473,2,144,37,1,1,1,1.175649e+00,NaN,1,0,3,2
23,474,2,9,38,2,2,1,1.181649e+00,NaN,1,1,1,2
23,475,2,61,22,1,1,1,1.251795e+00,NaN,1,0,2,2
23,476,3,62,71,1,1,1,6.853353e-01,NaN,1,1,2,2
23,477,3,81,11,2,2,1,6.228550e-01,NaN,1,1,2,2
23,478,3,121,70,2,2,1,8.833852e-01,NaN,1,0,3,2
23,479,3,61,22,2,2,1,7.011653e-01,NaN,1,0,2,2
23,480,3,69,49,1,1,1,5.745485e-01,NaN,1,0,2,2
23,481,3,86,4,1,1,1,7.088217e-01,NaN,1,0,2,2
23,482,3,144,37,1,1,1,6.858934e-01,NaN,1,0,3,2
23,483,3,45,56,2,1,0,2.279446e+00,NaN,1,0,1,2
23,484,3,76,29,2,2,1,8.171907e-01,NaN,1,0,2,2
23,485,3,124,19,2,2,1,1.397462e+00,NaN,1,0,3,2
23,486,3,39,44,2,2,1,1.834437e+00,NaN,1,0,1,2
23,487,3,108,1,2,2,1,2.078200e+00,NaN,1,0,3,2
23,488,3,4,25,2,2,1,1.200537e+00,NaN,1,0,1,2
23,489,3,114,68,2,2,1,1.757478e+00,NaN,1,0,3,2
23,490,3,122,9,1,1,1,1.076208e+00,NaN,1,1,3,2
23,491,3,14,64,2,2,1,1.518506e+00,NaN,1,1,1,2
23,492,3,34,39,1,1,1,1.278908e+00,NaN,1,0,1,2
23,493,3,15,57,2,1,0,2.240958e+00,NaN,1,1,1,2
23,494,3,17,35,2,1,0,2.444140e+00,NaN,1,0,1,2
23,495,3,105,14,2,2,1,8.552842e-01,NaN,1,1,3,2
23,496,3,47,27,1,2,0,2.914428e+00,NaN,1,0,1,2
23,497,3,10,58,1,1,1,8.663269e-01,NaN,1,0,1,2
23,498,3,3,40,1,1,1,1.213408e+00,NaN,1,0,1,2
23,499,3,9,38,1,1,1,1.154082e+00,NaN,1,1,1,2
23,524,2,87,33,1,1,1,1.651846e+00,NaN,1,1,2,3
23,525,2,98,55,2,2,1,1.534637e+00,NaN,1,0,3,3
23,526,2,66,41,2,2,1,7.426239e-01,NaN,1,1,2,3
23,527,2,43,60,2,2,1,1.062510e+00,NaN,1,0,1,3
23,528,2,117,16,1,1,1,9.611449e-01,NaN,1,0,3,3
23,529,2,55,66,2,2,1,1.567992e+00,NaN,1,0,2,3
23,530,2,133,7,1,1,1,2.741924e+00,NaN,1,0,3,3
23,531,2,106,45,1,1,1,1.053493e+00,NaN,1,0,3,3
23,532,2,28,8,2,0,0,3.499899e+00,NaN,1,1,1,3
23,533,2,93,12,1,1,1,7.131752e-01,NaN,1,0,2,3
23,534,2,13,2,1,1,1,7.300254e-01,NaN,1,0,1,3
23,535,2,75,23,2,2,1,7.138809e-01,NaN,1,0,2,3
23,536,2,22,54,1,2,0,2.162360e+00,NaN,1,1,1,3
23,537,2,141,48,2,2,1,1.144968e+00,NaN,1,0,3,3
23,538,2,88,53,1,1,1,1.231642e+00,NaN,1,0,2,3
23,539,2,71,15,2,2,1,9.162960e-01,NaN,1,0,2,3
23,540,2,110,65,1,1,1,1.253000e+00,NaN,1,0,3,3
23,541,2,142,18,2,2,1,8.954481e-01,NaN,1,0,3,3
23,542,2,102,72,1,1,1,1.689106e+00,NaN,1,0,3,3
23,543,2,38,43,2,2,1,1.138419e+00,NaN,1,1,1,3
23,544,2,31,62,1,1,1,1.057954e+00,NaN,1,0,1,3
23,545,2,27,3,2,2,1,1.028703e+00,NaN,1,0,1,3
23,546,2,59,61,2,2,1,9.522718e-01,NaN,1,0,2,3
23,547,2,129,21,2,2,1,1.567652e+00,NaN,1,1,3,3
23,548,3,117,16,2,2,1,1.396773e+00,NaN,1,0,3,3
23,549,3,75,23,2,2,1,6.978565e-01,NaN,1,0,2,3
23,550,3,22,54,2,1,0,2.115238e+00,NaN,1,1,1,3
23,551,3,31,62,2,2,1,1.859603e+00,NaN,1,0,1,3
23,552,3,87,33,1,1,1,8.784551e-01,NaN,1,1,2,3
23,553,3,102,72,1,1,1,1.024285e+00,NaN,1,0,3,3
23,554,3,59,61,2,2,1,6.442197e-01,NaN,1,0,2,3
23,555,3,106,45,2,2,1,1.151971e+00,NaN,1,0,3,3
23,556,3,141,48,2,2,1,1.847213e+00,NaN,1,0,3,3
23,557,3,129,21,2,2,1,1.538346e+00,NaN,1,1,3,3
23,558,3,71,15,2,2,1,1.369722e+00,NaN,1,0,2,3
23,559,3,55,66,1,1,1,3.024171e+00,NaN,1,0,2,3
23,560,3,133,7,1,1,1,1.475706e+00,NaN,1,0,3,3
23,561,3,110,65,1,1,1,1.661843e+00,NaN,1,0,3,3
23,562,3,28,8,2,1,0,2.184249e+00,NaN,1,1,1,3
23,563,3,27,3,1,1,1,1.165962e+00,NaN,1,0,1,3
23,564,3,43,60,1,1,1,1.380619e+00,NaN,1,0,1,3
23,565,3,93,12,1,1,1,9.065917e-01,NaN,1,0,2,3
23,566,3,88,53,1,1,1,1.355211e+00,NaN,1,0,2,3
23,567,3,98,55,1,1,1,8.102017e-01,NaN,1,0,3,3
23,568,3,142,18,2,2,1,1.127003e+00,NaN,1,0,3,3
23,569,3,13,2,1,1,1,8.874064e-01,NaN,1,0,1,3
23,570,3,66,41,1,1,1,5.933025e-01,NaN,1,1,2,3
23,571,3,38,43,1,1,1,7.987654e-01,NaN,1,1,1,3
23,596,4,73,38,1,1,1,1.271027e+00,NaN,2,1,2,1
23,597,4,65,2,1,1,1,8.415016e-01,NaN,2,0,2,1
23,598,4,6,68,1,1,1,7.650643e-01,NaN,2,0,1,1
23,599,4,143,42,2,2,1,1.747321e+00,NaN,2,0,3,1
23,600,4,82,13,1,1,1,7.385296e-01,NaN,2,0,2,1
23,601,4,89,9,2,2,1,1.738432e+00,NaN,2,1,2,1
23,602,4,112,62,1,1,1,1.273813e+00,NaN,2,0,3,1
23,603,4,41,29,1,1,1,8.756018e-01,NaN,2,0,1,1
23,604,4,134,36,2,2,1,9.419369e-01,NaN,2,1,3,1
23,605,4,138,5,1,1,1,7.818315e-01,NaN,2,0,3,1
23,606,4,68,26,2,2,1,6.998260e-01,NaN,2,0,2,1
23,607,4,2,14,2,2,1,7.566298e-01,NaN,2,1,1,1
23,608,4,84,7,1,1,1,7.474923e-01,NaN,2,0,2,1
23,609,4,54,43,2,2,1,1.162938e+00,NaN,2,1,2,1
23,610,4,29,63,1,1,1,7.617521e-01,NaN,2,0,1,1
23,611,4,123,33,2,2,1,1.160021e+00,NaN,2,1,3,1
23,612,4,35,49,2,2,1,1.199243e+00,NaN,2,0,1,1
23,613,4,109,25,1,1,1,9.559969e-01,NaN,2,0,3,1
23,614,4,126,31,2,2,1,1.330932e+00,NaN,2,1,3,1
23,615,4,60,57,2,2,1,8.749960e-01,NaN,2,1,2,1
23,616,4,50,51,2,2,1,1.285108e+00,NaN,2,0,2,1
23,617,4,101,46,1,1,1,1.030754e+00,NaN,2,0,3,1
23,618,4,44,66,2,2,1,1.067074e+00,NaN,2,0,1,1
23,619,4,83,52,1,1,1,9.415128e-01,NaN,2,0,2,1
23,644,4,115,60,2,2,1,1.129998e+00,NaN,2,0,3,2
23,645,4,5,48,2,2,1,9.858214e-01,NaN,2,0,1,2
23,646,4,58,3,1,1,1,7.112615e-01,NaN,2,0,2,2
23,647,4,103,64,2,2,1,1.271777e+00,NaN,2,1,3,2
23,648,4,95,47,1,1,1,9.465020e-01,NaN,2,0,2,2
23,649,4,72,17,1,1,1,6.256538e-01,NaN,2,1,2,2
23,650,4,137,11,2,2,1,1.005621e+00,NaN,2,1,3,2
23,651,4,139,41,2,2,1,7.467583e-01,NaN,2,1,3,2
23,652,4,11,16,2,2,1,8.820537e-01,NaN,2,0,1,2
23,653,4,136,23,1,1,1,1.203777e+00,NaN,2,0,3,2
23,654,4,30,10,1,1,1,6.727731e-01,NaN,2,0,1,2
23,655,4,36,53,1,1,1,7.710001e-01,NaN,2,0,1,2
23,656,4,48,20,1,1,1,7.774373e-01,NaN,2,0,1,2
23,657,4,33,15,1,1,1,1.239163e+00,NaN,2,0,1,2
23,658,4,111,50,1,1,1,8.431748e-01,NaN,2,1,3,2
23,659,4,125,67,2,2,1,1.038260e+00,NaN,2,0,3,2
23,660,4,1,59,2,2,1,1.882110e+00,NaN,2,0,1,2
23,661,4,53,54,1,1,1,6.675983e-01,NaN,2,1,2,2
23,662,4,120,27,1,1,1,1.110194e+00,NaN,2,0,3,2
23,663,4,131,12,2,2,1,8.155525e-01,NaN,2,0,3,2
23,664,4,40,61,2,2,1,6.760481e-01,NaN,2,0,1,2
23,665,4,104,56,1,1,1,9.342338e-01,NaN,2,0,3,2
23,666,4,32,22,2,2,1,1.166140e+00,NaN,2,0,1,2
23,667,4,85,65,2,2,1,7.004783e-01,NaN,2,0,2,2
23,692,4,90,70,1,1,1,9.941780e-01,NaN,2,0,2,3
23,693,4,80,1,2,2,1,6.953959e-01,NaN,2,0,2,3
23,694,4,26,34,1,1,1,9.371934e-01,NaN,2,0,1,3
23,695,4,97,40,1,1,1,1.832435e+00,NaN,2,0,3,3
23,696,4,64,44,1,1,1,9.000688e-01,NaN,2,0,2,3
23,697,4,25,32,1,1,1,6.134544e-01,NaN,2,0,1,3
23,698,4,99,6,2,2,1,1.929844e+00,NaN,2,1,3,3
23,699,4,23,21,1,1,1,2.401401e+00,NaN,2,1,1,3
23,700,4,79,72,2,2,1,5.984922e-01,NaN,2,0,2,3
23,701,4,24,45,2,2,1,1.091878e+00,NaN,2,0,1,3
23,702,4,42,4,2,2,1,1.181791e+00,NaN,2,0,1,3
23,703,4,20,28,2,2,1,8.352308e-01,NaN,2,0,1,3
23,704,4,107,58,2,2,1,1.231576e+00,NaN,2,0,3,3
23,705,4,130,71,2,2,1,1.842979e+00,NaN,2,1,3,3
23,706,4,49,8,2,2,1,1.158358e+00,NaN,2,1,2,3
23,707,4,91,69,1,1,1,9.014126e-01,NaN,2,0,2,3
23,708,4,119,39,1,1,1,2.782458e+00,NaN,2,0,3,3
23,709,4,94,19,2,1,0,9.566208e-01,NaN,2,0,2,3
23,710,4,140,24,1,1,1,1.443057e+00,NaN,2,0,3,3
23,711,4,19,18,2,2,1,9.509144e-01,NaN,2,0,1,3
23,712,4,70,35,2,2,1,1.269743e+00,NaN,2,0,2,3
23,713,4,92,37,1,1,1,6.561822e-01,NaN,2,0,2,3
23,714,4,46,30,2,2,1,1.043225e+00,NaN,2,0,1,3
23,715,4,16,55,1,2,0,1.462364e+00,NaN,2,0,1,3
23,716,5,1.301000e+01,46,1,2,0,1.739101e+00,1,1,0,1.300000e+00,1
23,717,5,9.816000e+01,55,3,0,0,2.500003e+00,1,1,0,3.100000e+00,1
23,718,5,1.301000e+01,46,1,2,0,3.034119e-01,2,1,0,1.300000e+00,1
23,719,5,4.415000e+01,60,1,2,0,5.369241e-01,1,1,0,1.300000e+00,1
23,720,5,7.748000e+01,20,2,3,0,7.303556e-01,1,1,0,2.100000e+00,1
23,721,5,9.431000e+01,12,2,3,0,5.553548e-01,1,1,0,2.300000e+00,1
23,722,5,9.816000e+01,55,3,0,0,2.500201e+00,2,1,0,3.100000e+00,1
23,723,5,5.544000e+01,66,2,3,0,9.588886e-01,1,1,0,2.100000e+00,1
23,724,5,4.604000e+01,56,1,3,0,1.376051e+00,1,1,0,1.300000e+00,1
23,725,5,1.171100e+02,16,3,0,0,2.500494e+00,1,1,0,3.100000e+00,1
23,726,5,1.868000e+01,26,1,1,1,1.155273e+00,1,1,0,1.200000e+00,1
23,727,5,1.088000e+02,1,3,0,0,2.500056e+00,1,1,0,3.200000e+00,1
23,728,5,1.140600e+02,68,3,0,0,2.500464e+00,1,1,0,3.100000e+00,1
23,729,5,9.431000e+01,12,2,0,0,2.500033e+00,2,1,0,2.300000e+00,1
23,730,5,5.544000e+01,66,2,2,1,8.183229e-01,2,1,0,2.100000e+00,1
23,731,5,1.171100e+02,16,3,3,1,2.517866e-01,2,1,0,3.100000e+00,1
23,732,5,1.338400e+02,7,3,3,1,3.171392e-01,1,1,0,3.200000e+00,1
23,733,5,6.730000e+01,10,2,2,1,3.106399e-01,1,1,0,2.100000e+00,1
23,734,5,1.770000e+01,35,1,1,1,2.794287e-01,1,1,0,1.200000e+00,1
23,735,5,1.272000e+02,28,3,3,1,2.903564e-01,1,1,0,3.100000e+00,1
23,736,5,5.325000e+01,67,2,3,0,3.622356e-01,1,1,0,2.300000e+00,1
23,737,5,3.750000e+01,51,1,1,1,2.755826e-01,1,1,0,1.200000e+00,1
23,738,5,1.107000e+01,58,1,1,1,3.088315e-01,1,1,0,1.300000e+00,1
23,739,5,1.272000e+02,28,3,3,1,3.663380e-01,2,1,0,3.100000e+00,1
23,740,5,8.642000e+01,4,2,2,1,3.273648e-01,1,1,0,2.100000e+00,1
23,741,5,9.431000e+01,12,2,2,1,3.448565e-01,3,1,0,2.300000e+00,1
23,742,5,1.249400e+02,19,3,3,1,3.224109e-01,1,1,0,3.200000e+00,1
23,743,5,3.519000e+01,39,1,1,1,3.075339e-01,1,1,0,1.300000e+00,1
23,744,5,1.130100e+02,59,3,3,1,3.407164e-01,1,1,0,3.100000e+00,1
23,745,5,6.935000e+01,49,2,2,1,2.619962e-01,1,1,0,2.100000e+00,1
23,746,5,8.836000e+01,53,2,2,1,1.406912e+00,1,1,0,2.100000e+00,1
23,747,5,6.730000e+01,10,2,2,1,2.324971e-01,2,1,0,2.100000e+00,1
23,748,5,1.288200e+02,13,3,3,1,3.378763e-01,1,1,0,3.200000e+00,1
23,749,5,3.964000e+01,44,1,1,1,3.789186e-01,1,1,0,1.200000e+00,1
23,750,5,1.171100e+02,16,3,3,1,3.725632e-01,3,1,0,3.100000e+00,1
23,751,5,1.189100e+02,69,3,3,1,4.858092e-01,1,1,0,3.200000e+00,1
23,752,5,1.108500e+02,65,3,3,1,3.269924e-01,1,1,0,3.200000e+00,1
23,753,5,1.288200e+02,13,3,3,1,2.961069e-01,2,1,0,3.200000e+00,1
23,754,5,3.750000e+01,51,1,1,1,2.815422e-01,2,1,0,1.200000e+00,1
23,755,5,1.449200e+02,37,3,3,1,3.072067e-01,1,1,0,3.200000e+00,1
23,756,5,2.758000e+01,3,1,1,1,5.643778e-01,1,1,0,1.200000e+00,1
23,757,5,7.748000e+01,20,2,2,1,3.031837e-01,2,1,0,2.100000e+00,1
23,758,5,7.133000e+01,15,2,2,1,2.790176e-01,1,1,0,2.100000e+00,1
23,759,5,1.162600e+02,34,3,3,1,2.880615e-01,1,1,0,3.100000e+00,1
23,760,5,5.325000e+01,67,2,2,1,2.737802e-01,2,1,0,2.300000e+00,1
23,761,5,1.421900e+02,18,3,3,1,3.071007e-01,1,1,0,3.100000e+00,1
23,762,5,7.641000e+01,29,2,2,1,3.801713e-01,1,1,0,2.100000e+00,1
23,763,5,3.212000e+01,62,1,1,1,3.094122e-01,1,1,0,1.300000e+00,1
23,764,5,1.338400e+02,7,3,3,1,2.710280e-01,2,1,0,3.200000e+00,1
23,765,5,1.449200e+02,37,3,3,1,3.197456e-01,2,1,0,3.200000e+00,1
23,766,5,1.770000e+01,35,1,1,1,3.616071e-01,2,1,0,1.200000e+00,1
23,767,5,1.410500e+02,48,3,3,1,8.666188e-01,1,1,0,3.100000e+00,1
23,768,5,4.415000e+01,60,1,1,1,4.123399e-01,2,1,0,1.300000e+00,1
23,769,5,1.352500e+02,32,3,3,1,7.653058e-01,1,1,0,3.100000e+00,1
23,770,5,5.843000e+01,42,2,2,1,3.427729e-01,1,1,0,2.300000e+00,1
23,771,5,1.338400e+02,7,3,3,1,3.680482e-01,3,1,0,3.200000e+00,1
23,772,5,9.740000e+01,24,2,2,1,4.097087e-01,1,1,0,2.300000e+00,1
23,773,5,3.212000e+01,62,1,1,1,3.791984e-01,2,1,0,1.300000e+00,1
23,774,5,8.836000e+01,53,2,3,0,3.159862e-01,2,1,0,2.100000e+00,1
23,775,5,1.009500e+02,47,3,3,1,4.056386e-01,1,1,0,3.200000e+00,1
23,776,5,1.249400e+02,19,3,3,1,3.504431e-01,2,1,0,3.200000e+00,1
23,777,5,7.446000e+01,30,2,3,0,1.279857e+00,1,1,0,2.100000e+00,1
23,778,5,1.219000e+02,70,3,2,0,1.057543e+00,1,1,0,3.200000e+00,1
23,779,5,6.438000e+01,5,2,2,1,3.385171e-01,1,1,0,2.300000e+00,1
23,780,5,6.132000e+01,22,2,3,0,1.091857e+00,1,1,0,2.100000e+00,1
23,781,5,3.970000e+00,40,1,1,1,3.177480e-01,1,1,0,1.300000e+00,1
23,782,5,3.519000e+01,39,1,1,1,2.549236e-01,2,1,0,1.300000e+00,1
23,783,5,1.421900e+02,18,3,3,1,4.643715e-01,2,1,0,3.100000e+00,1
23,784,5,5.544000e+01,66,2,2,1,3.215911e-01,3,1,0,2.100000e+00,1
23,785,5,7.748000e+01,20,2,2,1,3.790487e-01,3,1,0,2.100000e+00,1
23,786,5,1.027900e+02,72,3,3,1,6.028556e-02,1,1,0,3.200000e+00,1
23,787,5,4.820000e+01,27,1,1,1,2.856814e-01,1,1,0,1.300000e+00,1
23,788,5,6.730000e+01,10,2,2,1,3.588214e-01,3,1,0,2.100000e+00,1
23,789,5,1.421900e+02,18,3,3,1,3.439087e-01,3,1,0,3.100000e+00,1
23,790,5,1.189100e+02,69,3,3,1,3.943644e-01,2,1,0,3.200000e+00,1
23,791,5,1.108500e+02,65,3,3,1,3.064451e-01,2,1,0,3.200000e+00,1
23,792,5,1.062400e+02,45,3,3,1,3.477394e-01,1,1,0,3.100000e+00,1
23,793,5,1.162600e+02,34,3,3,1,2.291363e-01,2,1,0,3.100000e+00,1
23,794,5,1.189100e+02,69,3,3,1,1.346483e-01,3,1,0,3.200000e+00,1
23,795,5,4.820000e+01,27,1,1,1,3.840584e-01,2,1,0,1.300000e+00,1
23,796,5,5.843000e+01,42,2,2,1,2.808332e-01,2,1,0,2.300000e+00,1
23,797,5,5.940000e+01,61,2,2,1,3.627638e-01,1,1,0,2.100000e+00,1
23,798,5,1.140600e+02,68,3,3,1,1.355683e+00,2,1,0,3.100000e+00,1
23,799,5,1.421900e+02,18,3,3,1,2.771341e-01,4,1,0,3.100000e+00,1
23,800,5,1.328300e+02,52,3,3,1,4.381459e-01,1,1,0,3.200000e+00,1
23,801,5,1.140600e+02,68,3,3,1,3.519131e-01,3,1,0,3.100000e+00,1
23,802,5,1.328300e+02,52,3,3,1,3.049009e-01,2,1,0,3.200000e+00,1
23,803,5,1.062400e+02,45,3,3,1,8.340524e-01,2,1,0,3.100000e+00,1
23,804,5,1.088000e+02,1,3,3,1,3.315062e-01,2,1,0,3.200000e+00,1
23,805,5,7.641000e+01,29,2,2,1,3.406883e-01,2,1,0,2.100000e+00,1
23,806,5,7.133000e+01,15,2,2,1,2.626527e-01,2,1,0,2.100000e+00,1
23,807,5,1.171100e+02,16,3,3,1,3.034442e-01,4,1,0,3.100000e+00,1
23,808,5,7.829000e+01,63,2,2,1,2.489477e-01,1,1,0,2.100000e+00,1
23,809,5,1.009500e+02,47,3,3,1,3.219545e-01,2,1,0,3.200000e+00,1
23,810,5,1.410500e+02,48,3,3,1,2.912671e-01,2,1,0,3.100000e+00,1
23,811,5,1.770000e+01,35,1,1,1,3.406750e-01,3,1,0,1.200000e+00,1
23,812,5,1.108500e+02,65,3,3,1,2.539879e-01,3,1,0,3.200000e+00,1
23,813,5,1.410500e+02,48,3,3,1,3.512360e-01,3,1,0,3.100000e+00,1
23,814,5,5.325000e+01,67,2,2,1,2.243820e-01,3,1,0,2.300000e+00,1
23,815,5,7.748000e+01,20,2,2,1,2.421924e-01,4,1,0,2.100000e+00,1
23,816,5,7.636000e+01,23,2,2,1,3.633427e-01,1,1,0,2.300000e+00,1
23,817,5,7.636000e+01,23,2,2,1,2.926797e-01,2,1,0,2.300000e+00,1
23,818,5,9.816000e+01,55,3,3,1,3.336692e-01,3,1,0,3.100000e+00,1
23,819,5,1.449200e+02,37,3,3,1,3.268426e-01,3,1,0,3.200000e+00,1
23,820,5,4.820000e+01,27,1,1,1,3.206889e-01,3,1,0,1.300000e+00,1
23,821,5,4.604000e+01,56,1,2,0,4.094530e-01,2,1,0,1.300000e+00,1
23,822,5,6.935000e+01,49,2,2,1,2.749979e-01,2,1,0,2.100000e+00,1
23,823,5,1.288200e+02,13,3,3,1,2.601139e-01,3,1,0,3.200000e+00,1
23,824,5,1.365000e+01,2,1,1,1,4.215767e-01,1,1,0,1.200000e+00,1
23,825,5,5.940000e+01,61,2,2,1,3.507561e-01,2,1,0,2.100000e+00,1
23,826,5,1.107000e+01,58,1,1,1,5.203280e-01,2,1,0,1.300000e+00,1
23,827,5,1.301000e+01,46,1,3,0,3.295849e-01,3,1,0,1.300000e+00,1
23,828,5,4.820000e+01,27,1,1,1,2.507280e-01,4,1,0,1.300000e+00,1
23,829,5,7.636000e+01,23,2,2,1,3.638710e-01,3,1,0,2.300000e+00,1
23,830,5,5.090000e+00,25,1,1,1,4.693359e-01,1,1,0,1.300000e+00,1
23,831,5,1.868000e+01,26,1,1,1,2.951585e-01,2,1,0,1.200000e+00,1
23,832,5,1.868000e+01,26,1,1,1,3.838351e-01,3,1,0,1.200000e+00,1
23,833,5,1.219000e+02,70,3,3,1,2.895819e-01,2,1,0,3.200000e+00,1
23,834,5,1.189100e+02,69,3,3,1,3.069217e-01,4,1,0,3.200000e+00,1
23,835,5,4.604000e+01,56,1,1,1,2.919903e-01,3,1,0,1.300000e+00,1
23,836,5,1.219000e+02,70,3,3,1,4.772041e-01,3,1,0,3.200000e+00,1
23,837,5,1.365000e+01,2,1,1,1,3.262734e-01,2,1,0,1.200000e+00,1
23,838,5,6.730000e+01,10,2,2,1,3.520975e-01,4,1,0,2.100000e+00,1
23,839,5,3.970000e+00,40,1,1,1,6.251868e-01,2,1,0,1.300000e+00,1
23,840,5,7.641000e+01,29,2,2,1,3.787227e-01,3,1,0,2.100000e+00,1
23,841,5,3.970000e+00,40,1,1,1,3.403581e-01,3,1,0,1.300000e+00,1
23,842,5,1.301000e+01,46,1,1,1,3.334766e-01,4,1,0,1.300000e+00,1
23,843,5,9.740000e+01,24,2,2,1,3.029488e-01,2,1,0,2.300000e+00,1
23,844,5,5.090000e+00,25,1,1,1,4.243778e-01,2,1,0,1.300000e+00,1
23,845,5,3.964000e+01,44,1,1,1,4.177215e-01,2,1,0,1.200000e+00,1
23,846,5,1.868000e+01,26,1,1,1,2.832256e-01,4,1,0,1.200000e+00,1
23,847,5,7.446000e+01,30,2,2,1,2.847795e-01,2,1,0,2.100000e+00,1
23,848,5,1.288200e+02,13,3,3,1,2.937259e-01,4,1,0,3.200000e+00,1
23,849,5,5.843000e+01,42,2,2,1,7.749389e-01,3,1,0,2.300000e+00,1
23,850,5,3.964000e+01,44,1,1,1,3.050980e-01,3,1,0,1.200000e+00,1
23,851,5,1.162600e+02,34,3,3,1,3.858312e-01,3,1,0,3.100000e+00,1
23,852,5,5.090000e+00,25,1,1,1,7.558589e-01,3,1,0,1.300000e+00,1
23,853,5,7.133000e+01,15,2,2,1,2.609687e-01,3,1,0,2.100000e+00,1
23,854,5,9.740000e+01,24,2,2,1,3.022467e-01,3,1,0,2.300000e+00,1
23,855,5,1.107000e+01,58,1,1,1,2.872658e-01,3,1,0,1.300000e+00,1
23,856,5,1.009500e+02,47,3,3,1,3.443530e-01,3,1,0,3.200000e+00,1
23,857,5,1.062400e+02,45,3,3,1,2.899867e-01,3,1,0,3.100000e+00,1
23,858,5,1.130100e+02,59,3,3,1,4.595202e-01,2,1,0,3.100000e+00,1
23,859,5,5.325000e+01,67,2,2,1,2.206327e-01,4,1,0,2.300000e+00,1
23,860,5,4.415000e+01,60,1,1,1,1.117511e+00,3,1,0,1.300000e+00,1
23,861,5,2.758000e+01,3,1,1,1,4.310573e-01,2,1,0,1.200000e+00,1
23,862,5,1.088000e+02,1,3,3,1,4.255547e-01,3,1,0,3.200000e+00,1
23,863,5,6.132000e+01,22,2,2,1,2.658511e-01,2,1,0,2.100000e+00,1
23,864,5,1.062400e+02,45,3,3,1,2.507624e-01,4,1,0,3.100000e+00,1
23,865,5,9.740000e+01,24,2,2,1,2.442066e-01,4,1,0,2.300000e+00,1
23,866,5,1.365000e+01,2,1,1,1,2.857813e-01,3,1,0,1.200000e+00,1
23,867,5,4.604000e+01,56,1,1,1,2.870515e-01,4,1,0,1.300000e+00,1
23,868,5,1.352500e+02,32,3,3,1,3.199732e-01,2,1,0,3.100000e+00,1
23,869,5,6.935000e+01,49,2,2,1,4.336602e-01,3,1,0,2.100000e+00,1
23,870,5,1.219000e+02,70,3,3,1,3.072145e-01,4,1,0,3.200000e+00,1
23,871,5,6.438000e+01,5,2,2,1,3.724763e-01,2,1,0,2.300000e+00,1
23,872,5,1.107000e+01,58,1,1,1,4.057092e-01,4,1,0,1.300000e+00,1
23,873,5,5.544000e+01,66,2,2,1,2.869658e-01,4,1,0,2.100000e+00,1
23,874,5,8.836000e+01,53,2,2,1,2.325403e-01,3,1,0,2.100000e+00,1
23,875,5,3.964000e+01,44,1,1,1,2.738856e-01,4,1,0,1.200000e+00,1
23,876,5,7.829000e+01,63,2,2,1,3.472163e-01,2,1,0,2.100000e+00,1
23,877,5,7.641000e+01,29,2,2,1,2.281913e-01,4,1,0,2.100000e+00,1
23,878,5,1.162600e+02,34,3,3,1,3.256703e-01,4,1,0,3.100000e+00,1
23,879,5,1.770000e+01,35,1,1,1,2.869362e-01,4,1,0,1.200000e+00,1
23,880,5,5.843000e+01,42,2,2,1,2.644638e-01,4,1,0,2.300000e+00,1
23,881,5,9.816000e+01,55,3,3,1,2.492360e-01,4,1,0,3.100000e+00,1
23,882,5,1.108500e+02,65,3,3,1,2.267705e-01,4,1,0,3.200000e+00,1
23,883,5,8.642000e+01,4,2,2,1,2.440871e-01,2,1,0,2.100000e+00,1
23,884,5,3.212000e+01,62,1,1,1,2.776741e-01,3,1,0,1.300000e+00,1
23,885,5,4.415000e+01,60,1,1,1,4.629078e-01,4,1,0,1.300000e+00,1
23,886,5,1.249400e+02,19,3,3,1,2.640533e-01,3,1,0,3.200000e+00,1
23,887,5,5.940000e+01,61,2,2,1,3.692194e-01,3,1,0,2.100000e+00,1
23,888,5,1.130100e+02,59,3,3,1,2.907573e-01,3,1,0,3.100000e+00,1
23,889,5,1.088000e+02,1,3,3,1,2.601715e-01,4,1,0,3.200000e+00,1
23,890,5,1.027900e+02,72,3,3,1,2.533106e-01,2,1,0,3.200000e+00,1
23,891,5,5.090000e+00,25,1,1,1,3.107799e-01,4,1,0,1.300000e+00,1
23,892,5,1.272000e+02,28,3,3,1,7.039061e-01,3,1,0,3.100000e+00,1
23,893,5,1.338400e+02,7,3,3,1,2.334521e-01,4,1,0,3.200000e+00,1
23,894,5,8.642000e+01,4,2,2,1,2.670977e-01,3,1,0,2.100000e+00,1
23,895,5,1.009500e+02,47,3,3,1,2.601703e-01,4,1,0,3.200000e+00,1
23,896,5,2.758000e+01,3,1,1,1,2.697757e-01,3,1,0,1.200000e+00,1
23,897,5,6.438000e+01,5,2,2,1,2.473210e-01,3,1,0,2.300000e+00,1
23,898,5,6.935000e+01,49,2,2,1,2.565331e-01,4,1,0,2.100000e+00,1
23,899,5,2.758000e+01,3,1,1,1,5.297951e-01,4,1,0,1.200000e+00,1
23,900,5,1.365000e+01,2,1,1,1,2.907256e-01,4,1,0,1.200000e+00,1
23,901,5,7.133000e+01,15,2,2,1,3.162605e-01,4,1,0,2.100000e+00,1
23,902,5,1.130100e+02,59,3,3,1,3.655879e-01,4,1,0,3.100000e+00,1
23,903,5,3.970000e+00,40,1,1,1,5.108548e-01,4,1,0,1.300000e+00,1
23,904,5,1.249400e+02,19,3,3,1,3.762292e-01,4,1,0,3.200000e+00,1
23,905,5,3.212000e+01,62,1,1,1,3.696030e-01,4,1,0,1.300000e+00,1
23,906,5,7.636000e+01,23,2,2,1,3.065218e-01,4,1,0,2.300000e+00,1
23,907,5,1.027900e+02,72,3,3,1,3.803279e-01,3,1,0,3.200000e+00,1
23,908,5,1.328300e+02,52,3,3,1,2.533534e-01,3,1,0,3.200000e+00,1
23,909,5,1.449200e+02,37,3,3,1,4.307383e-01,4,1,0,3.200000e+00,1
23,910,5,8.642000e+01,4,2,2,1,2.799705e-01,4,1,0,2.100000e+00,1
23,911,5,3.519000e+01,39,1,1,1,5.213343e-01,3,1,0,1.300000e+00,1
23,912,5,1.140600e+02,68,3,3,1,8.268537e-01,4,1,0,3.100000e+00,1
23,913,5,1.328300e+02,52,3,3,1,2.842920e-01,4,1,0,3.200000e+00,1
23,914,5,5.940000e+01,61,2,2,1,3.172503e-01,4,1,0,2.100000e+00,1
23,915,5,1.352500e+02,32,3,3,1,2.466102e-01,3,1,0,3.100000e+00,1
23,916,5,8.836000e+01,53,2,2,1,2.240092e-01,4,1,0,2.100000e+00,1
23,917,5,3.750000e+01,51,1,1,1,2.574489e-01,3,1,0,1.200000e+00,1
23,918,5,1.027900e+02,72,3,3,1,2.903522e-01,4,1,0,3.200000e+00,1
23,919,5,3.519000e+01,39,1,1,1,2.119571e-01,4,1,0,1.300000e+00,1
23,920,5,7.829000e+01,63,2,3,0,3.092154e-01,3,1,0,2.100000e+00,1
23,921,5,7.829000e+01,63,2,2,1,5.661044e-01,4,1,0,2.100000e+00,1
23,922,5,6.132000e+01,22,2,2,1,2.316166e-01,3,1,0,2.100000e+00,1
23,923,5,3.750000e+01,51,1,1,1,3.127081e-01,4,1,0,1.200000e+00,1
23,924,5,1.352500e+02,32,3,3,1,5.061732e-01,4,1,0,3.100000e+00,1
23,925,5,6.132000e+01,22,2,2,1,2.591060e-01,4,1,0,2.100000e+00,1
23,926,5,1.410500e+02,48,3,3,1,4.609917e-01,4,1,0,3.100000e+00,1
23,927,5,9.431000e+01,12,2,2,1,3.177332e-01,4,1,0,2.300000e+00,1
23,928,5,6.438000e+01,5,2,2,1,3.351280e-01,4,1,0,2.300000e+00,1
23,929,5,1.272000e+02,28,3,3,1,2.487787e-01,4,1,0,3.100000e+00,1
23,930,5,7.446000e+01,30,2,2,1,2.174682e-01,3,1,0,2.100000e+00,1
23,931,5,7.446000e+01,30,2,2,1,2.509356e-01,4,1,0,2.100000e+00,1
23,932,6,137,11,2,2,1,2.032521e+00,NaN,2,1,3,1
23,933,6,19,18,1,1,1,1.478207e+00,NaN,2,0,1,1
23,934,6,32,22,2,2,1,1.193409e+00,NaN,2,0,1,1
23,935,6,50,51,2,2,1,1.384281e+00,NaN,2,0,2,1
23,936,6,42,4,2,2,1,1.231173e+00,NaN,2,0,1,1
23,937,6,33,15,2,2,1,8.761638e-01,NaN,2,0,1,1
23,938,6,5,48,1,1,1,9.351137e-01,NaN,2,0,1,1
23,939,6,85,65,1,1,1,7.201119e-01,NaN,2,0,2,1
23,940,6,2,14,2,1,0,1.018015e+00,NaN,2,1,1,1
23,941,6,95,47,2,2,1,9.916241e-01,NaN,2,0,2,1
23,942,6,11,16,1,1,1,8.942619e-01,NaN,2,0,1,1
23,943,6,48,20,1,1,1,7.851322e-01,NaN,2,0,1,1
23,944,6,109,25,2,2,1,8.320949e-01,NaN,2,0,3,1
23,945,6,125,67,1,1,1,1.188755e+00,NaN,2,0,3,1
23,946,6,60,57,2,2,1,6.356349e-01,NaN,2,1,2,1
23,947,6,90,70,1,2,0,6.885189e-01,NaN,2,0,2,1
23,948,6,139,41,2,2,1,7.472804e-01,NaN,2,1,3,1
23,949,6,1,59,2,2,1,1.051821e+00,NaN,2,0,1,1
23,950,6,53,54,1,1,1,6.322968e-01,NaN,2,1,2,1
23,951,6,54,43,2,2,1,1.005194e+00,NaN,2,1,2,1
23,952,6,80,1,2,2,1,7.950965e-01,NaN,2,0,2,1
23,953,6,134,36,2,2,1,8.813163e-01,NaN,2,1,3,1
23,954,6,24,45,1,1,1,1.164464e+00,NaN,2,0,1,1
23,955,6,6,68,2,2,1,9.483146e-01,NaN,2,0,1,1
23,956,6,103,64,2,2,1,8.049158e-01,NaN,2,1,3,1
23,957,6,138,5,1,1,1,8.107354e-01,NaN,2,0,3,1
23,958,6,112,62,2,2,1,1.144593e+00,NaN,2,0,3,1
23,959,6,143,42,2,2,1,9.936289e-01,NaN,2,0,3,1
23,960,6,44,66,2,2,1,1.008049e+00,NaN,2,0,1,1
23,961,6,107,58,2,2,1,1.277751e+00,NaN,2,0,3,1
23,962,6,89,9,2,2,1,1.001658e+00,NaN,2,1,2,1
23,963,6,83,52,1,1,1,9.998832e-01,NaN,2,0,2,1
23,964,6,131,12,1,1,1,9.421706e-01,NaN,2,0,3,1
23,965,6,49,8,1,1,1,7.826136e-01,NaN,2,1,2,1
23,966,6,99,6,1,2,0,1.645941e+00,NaN,2,1,3,1
23,967,6,101,46,1,1,1,1.090180e+00,NaN,2,0,3,1
23,968,6,123,33,1,2,0,1.300751e+00,NaN,2,1,3,1
23,969,6,26,34,1,1,1,1.119159e+00,NaN,2,0,1,1
23,970,6,20,28,2,2,1,1.032804e+00,NaN,2,0,1,1
23,971,6,23,21,1,1,1,1.301711e+00,NaN,2,1,1,1
23,972,6,119,39,2,2,1,1.048169e+00,NaN,2,0,3,1
23,973,6,104,56,1,1,1,9.722595e-01,NaN,2,0,3,1
23,974,6,72,17,1,1,1,1.035528e+00,NaN,2,1,2,1
23,975,6,35,49,2,2,1,9.849156e-01,NaN,2,0,1,1
23,976,6,82,13,1,1,1,9.519045e-01,NaN,2,0,2,1
23,977,6,70,35,1,2,0,1.327927e+00,NaN,2,0,2,1
23,978,6,120,27,1,1,1,1.705682e+00,NaN,2,0,3,1
23,979,6,30,10,1,1,1,1.211000e+00,NaN,2,0,1,1
23,980,6,64,44,1,1,1,1.210561e+00,NaN,2,0,2,1
23,981,6,111,50,1,1,1,1.487201e+00,NaN,2,1,3,1
23,982,6,29,63,2,2,1,1.137872e+00,NaN,2,0,1,1
23,983,6,92,37,2,2,1,1.442438e+00,NaN,2,0,2,1
23,984,6,84,7,2,2,1,1.286938e+00,NaN,2,0,2,1
23,985,6,41,29,1,1,1,1.329664e+00,NaN,2,0,1,1
23,986,6,46,30,1,1,1,1.386934e+00,NaN,2,0,1,1
23,987,6,68,26,1,1,1,9.775910e-01,NaN,2,0,2,1
23,988,6,16,55,2,2,1,1.337256e+00,NaN,2,0,1,1
23,989,6,130,71,1,1,1,1.145550e+00,NaN,2,1,3,1
23,990,6,58,3,1,1,1,8.420727e-01,NaN,2,0,2,1
23,991,6,115,60,2,2,1,1.222676e+00,NaN,2,0,3,1
23,992,6,140,24,1,1,1,1.643864e+00,NaN,2,0,3,1
23,993,6,36,53,2,2,1,1.048746e+00,NaN,2,0,1,1
23,994,6,97,40,1,1,1,1.156875e+00,NaN,2,0,3,1
23,995,6,40,61,1,1,1,1.420606e+00,NaN,2,0,1,1
23,996,6,126,31,2,1,0,1.866060e+00,NaN,2,1,3,1
23,997,6,79,72,1,1,1,7.576452e-01,NaN,2,0,2,1
23,998,6,94,19,2,1,0,1.389476e+00,NaN,2,0,2,1
23,999,6,136,23,1,1,1,1.012422e+00,NaN,2,0,3,1
23,1000,6,91,69,1,1,1,9.139872e-01,NaN,2,0,2,1
23,1001,6,73,38,1,1,1,1.036112e+00,NaN,2,1,2,1
23,1002,6,25,32,2,2,1,8.569088e-01,NaN,2,0,1,1
23,1003,6,65,2,2,2,1,1.492668e+00,NaN,2,0,2,1
23,1004,6,75,23,2,2,1,1.015597e+00,NaN,1,0,2,1
23,1005,6,132,52,2,2,1,1.508999e+00,NaN,1,0,3,1
23,1006,6,12,46,2,2,1,1.463293e+00,NaN,1,0,1,1
23,1007,6,96,24,1,1,1,9.464239e-01,NaN,1,0,2,1
23,1008,6,51,31,2,2,1,9.549936e-01,NaN,1,1,2,1
23,1009,6,128,13,2,2,1,3.458665e+00,NaN,1,0,3,1
23,1010,6,76,29,2,2,1,1.806314e+00,NaN,1,0,2,1
23,1011,6,7,6,2,2,1,1.196493e+00,NaN,1,1,1,1
23,1012,6,4,25,2,2,1,1.626696e+00,NaN,1,0,1,1
23,1013,6,13,2,1,1,1,8.956857e-01,NaN,1,0,1,1
23,1014,6,102,72,2,2,1,1.210447e+00,NaN,1,0,3,1
23,1015,6,14,64,2,2,1,1.616474e+00,NaN,1,1,1,1
23,1016,6,135,32,2,2,1,1.054516e+00,NaN,1,0,3,1
23,1017,6,98,55,2,2,1,1.545810e+00,NaN,1,0,3,1
23,1018,6,113,59,2,2,1,9.062135e-01,NaN,1,0,3,1
23,1019,6,71,15,1,1,1,9.246517e-01,NaN,1,0,2,1
23,1020,6,144,37,1,1,1,1.125860e+00,NaN,1,0,3,1
23,1021,6,34,39,2,2,1,1.231065e+00,NaN,1,0,1,1
23,1022,6,100,47,1,1,1,1.148318e+00,NaN,1,0,3,1
23,1023,6,9,38,1,1,1,1.292564e+00,NaN,1,1,1,1
23,1024,6,39,44,1,1,1,1.279076e+00,NaN,1,0,1,1
23,1025,6,55,66,1,1,1,1.610003e+00,NaN,1,0,2,1
23,1026,6,105,14,1,1,1,1.359923e+00,NaN,1,1,3,1
23,1027,6,122,9,1,1,1,1.423928e+00,NaN,1,1,3,1
23,1028,6,78,63,1,1,1,1.309173e+00,NaN,1,0,2,1
23,1029,6,117,16,2,2,1,1.055213e+00,NaN,1,0,3,1
23,1030,6,52,67,1,1,1,1.018562e+00,NaN,1,0,2,1
23,1031,6,59,61,1,1,1,7.528311e-01,NaN,1,0,2,1
23,1032,6,67,10,2,2,1,7.291546e-01,NaN,1,0,2,1
23,1033,6,108,1,2,2,1,1.514204e+00,NaN,1,0,3,1
23,1034,6,43,60,2,2,1,1.067551e+00,NaN,1,0,1,1
23,1035,6,81,11,2,2,1,7.194237e-01,NaN,1,1,2,1
23,1036,6,28,8,1,1,1,1.361431e+00,NaN,1,1,1,1
23,1037,6,21,17,1,1,1,1.240843e+00,NaN,1,1,1,1
23,1038,6,15,57,1,1,1,2.157382e+00,NaN,1,1,1,1
23,1039,6,106,45,1,1,1,1.165434e+00,NaN,1,0,3,1
23,1040,6,88,53,2,2,1,1.885219e+00,NaN,1,0,2,1
23,1041,6,57,42,1,1,1,8.960467e-01,NaN,1,0,2,1
23,1042,6,129,21,2,2,1,1.322281e+00,NaN,1,1,3,1
23,1043,6,87,33,2,2,1,1.291340e+00,NaN,1,1,2,1
23,1044,6,8,50,1,2,0,1.606179e+00,NaN,1,1,1,1
23,1045,6,142,18,1,1,1,1.468583e+00,NaN,1,0,3,1
23,1046,6,18,26,1,1,1,1.255612e+00,NaN,1,0,1,1
23,1047,6,127,28,2,2,1,1.652063e+00,NaN,1,0,3,1
23,1048,6,63,5,2,2,1,1.032032e+00,NaN,1,0,2,1
23,1049,6,124,19,1,1,1,2.132855e+00,NaN,1,0,3,1
23,1050,6,37,51,1,2,0,1.981693e+00,NaN,1,0,1,1
23,1051,6,110,65,1,2,0,1.124651e+00,NaN,1,0,3,1
23,1052,6,93,12,1,1,1,8.379764e-01,NaN,1,0,2,1
23,1053,6,10,58,2,2,1,1.114541e+00,NaN,1,0,1,1
23,1054,6,31,62,1,1,1,1.164387e+00,NaN,1,0,1,1
23,1055,6,61,22,1,1,1,6.203533e-01,NaN,1,0,2,1
23,1056,6,114,68,2,2,1,1.745302e+00,NaN,1,0,3,1
23,1057,6,27,3,1,1,1,1.265454e+00,NaN,1,0,1,1
23,1058,6,38,43,2,2,1,7.973274e-01,NaN,1,1,1,1
23,1059,6,22,54,1,2,0,1.051554e+00,NaN,1,1,1,1
23,1060,6,17,35,1,2,0,1.319842e+00,NaN,1,0,1,1
23,1061,6,62,71,1,1,1,8.415711e-01,NaN,1,1,2,1
23,1062,6,66,41,1,1,1,7.901410e-01,NaN,1,1,2,1
23,1063,6,69,49,1,1,1,7.007153e-01,NaN,1,0,2,1
23,1064,6,133,7,2,2,1,1.022994e+00,NaN,1,0,3,1
23,1065,6,74,30,1,1,1,9.565994e-01,NaN,1,0,2,1
23,1066,6,86,4,2,2,1,1.220469e+00,NaN,1,0,2,1
23,1067,6,3,40,1,2,0,1.369696e+00,NaN,1,0,1,1
23,1068,6,118,69,1,2,0,2.969633e+00,NaN,1,0,3,1
23,1069,6,116,34,2,1,0,2.552824e+00,NaN,1,0,3,1
23,1070,6,47,27,2,1,0,9.527832e-01,NaN,1,0,1,1
23,1071,6,77,20,2,2,1,1.185405e+00,NaN,1,0,2,1
23,1072,6,121,70,1,1,1,2.672165e+00,NaN,1,0,3,1
23,1073,6,141,48,1,1,1,1.459207e+00,NaN,1,0,3,1
23,1074,6,56,36,2,2,1,1.015346e+00,NaN,1,1,2,1
23,1075,6,45,56,2,1,0,1.228931e+00,NaN,1,0,1,1
