Subject,Trial,Cond,ImageNum,CueNum,Correct,Resp,Accuracy,RT,CueRep,ImageType,Baseline,Category,Block
49,1,1,69,NaN,NaN,0,NaN,9.995230e+00,NaN,0,0,2,1
49,2,1,74,NaN,NaN,0,NaN,9.995432e+00,NaN,0,1,2,1
49,3,1,79,NaN,NaN,0,NaN,9.995409e+00,NaN,2,0,2,1
49,4,1,12,NaN,NaN,0,NaN,9.995113e+00,NaN,0,1,1,1
49,5,1,5,NaN,NaN,0,NaN,9.995234e+00,NaN,0,1,1,1
49,6,1,57,NaN,NaN,0,NaN,9.995472e+00,NaN,2,1,2,1
49,7,1,55,NaN,NaN,0,NaN,9.995307e+00,NaN,2,0,2,1
49,8,1,45,NaN,NaN,0,NaN,9.995323e+00,NaN,0,0,1,1
49,9,1,71,NaN,NaN,0,NaN,9.995298e+00,NaN,2,0,2,1
49,10,1,98,NaN,NaN,0,NaN,9.995086e+00,NaN,0,1,3,1
49,11,1,76,NaN,NaN,0,NaN,9.995181e+00,NaN,1,1,2,1
49,12,1,18,NaN,NaN,0,NaN,9.995582e+00,NaN,0,0,1,1
49,13,1,36,NaN,NaN,0,NaN,9.995474e+00,NaN,1,0,1,1
49,14,1,72,NaN,NaN,0,NaN,9.995119e+00,NaN,0,0,2,1
49,15,1,5,NaN,NaN,0,NaN,9.995556e+00,NaN,2,1,1,1
49,16,1,59,NaN,NaN,0,NaN,9.995603e+00,NaN,0,0,2,1
49,17,1,83,NaN,NaN,0,NaN,9.995017e+00,NaN,0,0,2,1
49,18,1,143,NaN,NaN,0,NaN,9.995463e+00,NaN,1,1,3,1
49,19,1,21,NaN,NaN,0,NaN,9.995588e+00,NaN,0,0,1,1
49,20,1,119,NaN,NaN,0,NaN,9.995347e+00,NaN,1,0,3,1
49,21,1,38,NaN,NaN,0,NaN,9.995558e+00,NaN,0,0,1,1
49,22,1,15,NaN,NaN,0,NaN,9.995634e+00,NaN,0,0,1,1
49,23,1,50,NaN,NaN,0,NaN,9.995062e+00,NaN,2,0,2,1
49,24,1,46,NaN,NaN,0,NaN,9.995294e+00,NaN,0,1,1,1
49,25,1,72,NaN,NaN,0,NaN,9.995450e+00,NaN,1,0,2,1
49,26,1,53,NaN,NaN,0,NaN,9.995167e+00,NaN,1,1,2,1
49,27,1,126,NaN,NaN,0,NaN,9.995155e+00,NaN,2,0,3,1
49,28,1,61,NaN,NaN,0,NaN,9.995177e+00,NaN,0,1,2,1
49,29,1,90,NaN,NaN,0,NaN,9.995026e+00,NaN,2,0,2,1
49,30,1,57,NaN,NaN,0,NaN,9.995116e+00,NaN,0,1,2,1
49,31,1,107,NaN,NaN,0,NaN,9.995205e+00,NaN,2,0,3,1
49,32,1,3,NaN,NaN,0,NaN,9.995067e+00,NaN,1,0,1,1
49,33,1,86,NaN,NaN,0,NaN,9.995444e+00,NaN,2,0,2,1
49,34,1,113,NaN,NaN,0,NaN,9.995092e+00,NaN,2,0,3,1
49,35,1,65,NaN,NaN,0,NaN,9.995146e+00,NaN,1,0,2,1
49,36,1,17,NaN,NaN,0,NaN,9.995499e+00,NaN,2,0,1,1
49,37,1,39,NaN,NaN,0,NaN,9.995475e+00,NaN,0,0,1,1
49,38,1,87,NaN,NaN,0,NaN,9.995038e+00,NaN,2,0,2,1
49,39,1,81,NaN,NaN,0,NaN,9.995304e+00,NaN,1,1,2,1
49,40,1,27,NaN,NaN,0,NaN,9.995602e+00,NaN,2,1,1,1
49,41,1,32,NaN,NaN,0,NaN,9.995419e+00,NaN,0,0,1,1
49,42,1,51,NaN,NaN,0,NaN,9.995093e+00,NaN,0,0,2,1
49,43,1,3,NaN,NaN,0,NaN,9.995458e+00,NaN,0,0,1,1
49,44,1,97,NaN,NaN,0,NaN,9.995525e+00,NaN,0,0,3,1
49,45,1,88,NaN,NaN,0,NaN,9.995457e+00,NaN,0,1,2,1
49,46,1,109,NaN,NaN,0,NaN,9.995240e+00,NaN,2,1,3,1
49,47,1,60,NaN,NaN,0,NaN,9.995538e+00,NaN,0,1,2,1
49,48,1,75,NaN,NaN,0,NaN,9.995362e+00,NaN,1,1,2,1
49,49,1,138,NaN,NaN,0,NaN,9.995365e+00,NaN,1,1,3,1
49,50,1,108,NaN,NaN,0,NaN,9.995526e+00,NaN,1,0,3,1
49,51,1,33,NaN,NaN,0,NaN,9.995516e+00,NaN,2,0,1,1
49,52,1,34,NaN,NaN,0,NaN,9.995150e+00,NaN,1,0,1,1
49,53,1,16,NaN,NaN,0,NaN,9.995396e+00,NaN,0,0,1,1
49,54,1,122,NaN,NaN,0,NaN,9.995490e+00,NaN,2,0,3,1
49,55,1,8,NaN,NaN,0,NaN,9.995187e+00,NaN,1,0,1,1
49,56,1,86,NaN,NaN,0,NaN,9.995044e+00,NaN,0,0,2,1
49,57,1,55,NaN,NaN,0,NaN,9.995585e+00,NaN,0,0,2,1
49,58,1,128,NaN,NaN,0,NaN,9.995589e+00,NaN,0,0,3,1
49,59,1,58,NaN,NaN,0,NaN,9.995483e+00,NaN,2,0,2,1
49,60,1,70,NaN,NaN,0,NaN,9.995630e+00,NaN,0,0,2,1
49,61,1,93,NaN,NaN,0,NaN,9.995549e+00,NaN,2,0,2,1
49,62,1,68,NaN,NaN,0,NaN,9.995051e+00,NaN,0,0,2,1
49,63,1,75,NaN,NaN,0,NaN,9.995105e+00,NaN,0,1,2,1
49,64,1,53,NaN,NaN,0,NaN,9.995310e+00,NaN,0,1,2,1
49,65,1,56,NaN,NaN,0,NaN,9.995280e+00,NaN,2,0,2,1
49,66,1,39,NaN,NaN,0,NaN,9.995027e+00,NaN,1,0,1,1
49,67,1,32,NaN,NaN,0,NaN,9.995384e+00,NaN,2,0,1,1
49,68,1,139,NaN,NaN,0,NaN,9.995126e+00,NaN,2,0,3,1
49,69,1,135,NaN,NaN,0,NaN,9.995122e+00,NaN,1,0,3,1
49,70,1,125,NaN,NaN,0,NaN,9.995495e+00,NaN,2,0,3,1
49,71,1,40,NaN,NaN,0,NaN,9.995477e+00,NaN,0,0,1,1
49,72,1,64,NaN,NaN,0,NaN,9.995633e+00,NaN,2,1,2,1
49,73,1,80,NaN,NaN,0,NaN,9.995378e+00,NaN,1,0,2,1
49,74,1,140,NaN,NaN,0,NaN,9.995594e+00,NaN,0,0,3,1
49,75,1,41,NaN,NaN,0,NaN,9.995345e+00,NaN,0,0,1,1
49,76,1,141,NaN,NaN,0,NaN,9.995112e+00,NaN,1,1,3,1
49,77,1,77,NaN,NaN,0,NaN,9.995444e+00,NaN,0,0,2,1
49,78,1,54,NaN,NaN,0,NaN,9.995522e+00,NaN,0,1,2,1
49,79,1,23,NaN,NaN,0,NaN,9.995307e+00,NaN,0,1,1,1
49,80,1,83,NaN,NaN,0,NaN,9.995023e+00,NaN,2,0,2,1
49,81,1,47,NaN,NaN,0,NaN,9.995040e+00,NaN,0,0,1,1
49,82,1,47,NaN,NaN,0,NaN,9.995502e+00,NaN,2,0,1,1
49,83,1,105,NaN,NaN,0,NaN,9.995056e+00,NaN,1,0,3,1
49,84,1,133,NaN,NaN,0,NaN,9.995180e+00,NaN,2,0,3,1
49,85,1,79,NaN,NaN,0,NaN,9.995336e+00,NaN,0,0,2,1
49,86,1,24,NaN,NaN,0,NaN,9.995136e+00,NaN,0,0,1,1
49,87,1,102,NaN,NaN,0,NaN,9.995230e+00,NaN,2,0,3,1
49,88,1,118,NaN,NaN,0,NaN,9.995532e+00,NaN,2,0,3,1
49,89,1,22,NaN,NaN,0,NaN,9.995587e+00,NaN,0,0,1,1
49,90,1,139,NaN,NaN,0,NaN,9.995343e+00,NaN,0,0,3,1
49,91,1,134,NaN,NaN,0,NaN,9.995320e+00,NaN,0,1,3,1
49,92,1,16,NaN,NaN,0,NaN,9.995618e+00,NaN,1,0,1,1
49,93,1,52,NaN,NaN,0,NaN,9.995056e+00,NaN,2,0,2,1
49,94,1,66,NaN,NaN,0,NaN,9.995457e+00,NaN,2,0,2,1
49,95,1,104,NaN,NaN,0,NaN,9.995083e+00,NaN,1,0,3,1
49,96,1,2,NaN,NaN,0,NaN,9.995378e+00,NaN,0,1,1,1
49,97,1,42,NaN,NaN,0,NaN,9.995282e+00,NaN,2,0,1,1
49,98,1,141,NaN,NaN,0,NaN,9.995252e+00,NaN,0,1,3,1
49,99,1,88,NaN,NaN,0,NaN,9.995378e+00,NaN,1,1,2,1
49,100,1,127,NaN,NaN,0,NaN,9.995581e+00,NaN,0,0,3,1
49,101,1,111,NaN,NaN,0,NaN,9.995443e+00,NaN,0,0,3,1
49,102,1,61,NaN,NaN,0,NaN,9.995258e+00,NaN,2,1,2,1
49,103,1,82,NaN,NaN,0,NaN,9.995275e+00,NaN,1,0,2,1
49,104,1,98,NaN,NaN,0,NaN,9.995174e+00,NaN,2,1,3,1
49,105,1,60,NaN,NaN,0,NaN,9.995261e+00,NaN,1,1,2,1
49,106,1,112,NaN,NaN,0,NaN,9.995509e+00,NaN,0,0,3,1
49,107,1,104,NaN,NaN,0,NaN,9.995594e+00,NaN,0,0,3,1
49,108,1,35,NaN,NaN,0,NaN,9.995291e+00,NaN,0,1,1,1
49,109,1,131,NaN,NaN,0,NaN,9.995531e+00,NaN,0,0,3,1
49,110,1,40,NaN,NaN,0,NaN,9.995588e+00,NaN,2,0,1,1
49,111,1,126,NaN,NaN,0,NaN,9.995239e+00,NaN,0,0,3,1
49,112,1,110,NaN,NaN,0,NaN,9.995036e+00,NaN,1,0,3,1
49,113,1,111,NaN,NaN,0,NaN,9.995130e+00,NaN,2,0,3,1
49,114,1,65,NaN,NaN,0,NaN,9.995271e+00,NaN,0,0,2,1
49,115,1,81,NaN,NaN,0,NaN,9.995144e+00,NaN,0,1,2,1
49,116,1,82,NaN,NaN,0,NaN,9.995047e+00,NaN,0,0,2,1
49,117,1,99,NaN,NaN,0,NaN,9.995536e+00,NaN,0,0,3,1
49,118,1,13,NaN,NaN,0,NaN,9.995657e+00,NaN,0,1,1,1
49,119,1,142,NaN,NaN,0,NaN,9.995591e+00,NaN,1,0,3,1
49,120,1,89,NaN,NaN,0,NaN,9.995147e+00,NaN,2,0,2,1
49,121,1,142,NaN,NaN,0,NaN,9.995172e+00,NaN,0,0,3,1
49,122,1,19,NaN,NaN,0,NaN,9.995620e+00,NaN,0,0,1,1
49,123,1,130,NaN,NaN,0,NaN,9.995324e+00,NaN,2,0,3,1
49,124,1,34,NaN,NaN,0,NaN,9.995093e+00,NaN,0,0,1,1
49,125,1,131,NaN,NaN,0,NaN,9.995430e+00,NaN,2,0,3,1
49,126,1,10,NaN,NaN,0,NaN,9.995640e+00,NaN,0,0,1,1
49,127,1,138,NaN,NaN,0,NaN,9.995578e+00,NaN,0,1,3,1
49,128,1,94,NaN,NaN,0,NaN,9.995175e+00,NaN,1,0,2,1
49,129,1,125,NaN,NaN,0,NaN,9.995361e+00,NaN,0,0,3,1
49,130,1,49,NaN,NaN,0,NaN,9.995245e+00,NaN,0,0,2,1
49,131,1,102,NaN,NaN,0,NaN,9.995205e+00,NaN,0,0,3,1
49,132,1,35,NaN,NaN,0,NaN,9.995047e+00,NaN,2,1,1,1
49,133,1,132,NaN,NaN,0,NaN,9.995065e+00,NaN,2,1,3,1
49,134,1,1,NaN,NaN,0,NaN,9.995174e+00,NaN,0,0,1,1
49,135,1,124,NaN,NaN,0,NaN,9.995203e+00,NaN,1,0,3,1
49,136,1,117,NaN,NaN,0,NaN,9.995240e+00,NaN,0,0,3,1
49,137,1,135,NaN,NaN,0,NaN,9.995489e+00,NaN,0,0,3,1
49,138,1,43,NaN,NaN,0,NaN,9.995353e+00,NaN,1,0,1,1
49,139,1,128,NaN,NaN,0,NaN,9.995212e+00,NaN,1,0,3,1
49,140,1,68,NaN,NaN,0,NaN,9.995263e+00,NaN,2,0,2,1
49,141,1,73,NaN,NaN,0,NaN,9.995432e+00,NaN,2,0,2,1
49,142,1,20,NaN,NaN,0,NaN,9.995381e+00,NaN,1,1,1,1
49,143,1,14,NaN,NaN,0,NaN,9.995519e+00,NaN,0,1,1,1
49,144,1,100,NaN,NaN,0,NaN,9.995349e+00,NaN,0,0,3,1
49,145,1,4,NaN,NaN,0,NaN,9.995522e+00,NaN,0,1,1,1
49,146,1,129,NaN,NaN,0,NaN,9.995196e+00,NaN,0,0,3,1
49,147,1,50,NaN,NaN,0,NaN,9.995363e+00,NaN,0,0,2,1
49,148,1,44,NaN,NaN,0,NaN,9.995639e+00,NaN,1,0,1,1
49,149,1,22,NaN,NaN,0,NaN,9.995190e+00,NaN,1,0,1,1
49,150,1,6,NaN,NaN,0,NaN,9.995325e+00,NaN,1,0,1,1
49,151,1,71,NaN,NaN,0,NaN,9.995630e+00,NaN,0,0,2,1
49,152,1,90,NaN,NaN,0,NaN,9.995424e+00,NaN,0,0,2,1
49,153,1,101,NaN,NaN,0,NaN,9.995505e+00,NaN,0,0,3,1
49,154,1,29,NaN,NaN,0,NaN,9.995132e+00,NaN,0,0,1,1
49,155,1,42,NaN,NaN,0,NaN,9.995586e+00,NaN,0,0,1,1
49,156,1,123,NaN,NaN,0,NaN,9.995106e+00,NaN,0,1,3,1
49,157,1,96,NaN,NaN,0,NaN,9.995209e+00,NaN,1,0,2,1
49,158,1,137,NaN,NaN,0,NaN,9.995455e+00,NaN,1,0,3,1
49,159,1,114,NaN,NaN,0,NaN,9.995229e+00,NaN,0,0,3,1
49,160,1,37,NaN,NaN,0,NaN,9.995406e+00,NaN,2,0,1,1
49,161,1,74,NaN,NaN,0,NaN,9.995054e+00,NaN,1,1,2,1
49,162,1,144,NaN,NaN,0,NaN,9.995102e+00,NaN,0,1,3,1
49,163,1,52,NaN,NaN,0,NaN,9.995542e+00,NaN,0,0,2,1
49,164,1,10,NaN,NaN,0,NaN,9.995633e+00,NaN,2,0,1,1
49,165,1,95,NaN,NaN,0,NaN,9.995125e+00,NaN,0,0,2,1
49,166,1,12,NaN,NaN,0,NaN,9.995594e+00,NaN,2,1,1,1
49,167,1,78,NaN,NaN,0,NaN,9.995192e+00,NaN,0,0,2,1
49,168,1,95,NaN,NaN,0,NaN,9.995047e+00,NaN,1,0,2,1
49,169,1,109,NaN,NaN,0,NaN,9.995213e+00,NaN,0,1,3,1
49,170,1,37,NaN,NaN,0,NaN,9.995245e+00,NaN,0,0,1,1
49,171,1,118,NaN,NaN,0,NaN,9.995106e+00,NaN,0,0,3,1
49,172,1,143,NaN,NaN,0,NaN,9.995488e+00,NaN,0,1,3,1
49,173,1,14,NaN,NaN,0,NaN,9.995105e+00,NaN,1,1,1,1
49,174,1,25,NaN,NaN,0,NaN,9.995598e+00,NaN,0,1,1,1
49,175,1,54,NaN,NaN,0,NaN,9.995054e+00,NaN,2,1,2,1
49,176,1,20,NaN,NaN,0,NaN,9.995327e+00,NaN,0,1,1,1
49,177,1,6,NaN,NaN,0,NaN,9.995454e+00,NaN,0,0,1,1
49,178,1,38,NaN,NaN,0,NaN,9.995539e+00,NaN,2,0,1,1
49,179,1,78,NaN,NaN,0,NaN,9.995399e+00,NaN,1,0,2,1
49,180,1,56,NaN,NaN,0,NaN,9.995465e+00,NaN,0,0,2,1
49,181,1,137,NaN,NaN,0,NaN,9.995447e+00,NaN,0,0,3,1
49,182,1,28,NaN,NaN,0,NaN,9.995456e+00,NaN,0,1,1,1
49,183,1,9,NaN,NaN,0,NaN,9.995239e+00,NaN,2,0,1,1
49,184,1,140,NaN,NaN,0,NaN,9.995202e+00,NaN,1,0,3,1
49,185,1,77,NaN,NaN,0,NaN,9.995349e+00,NaN,1,0,2,1
49,186,1,115,NaN,NaN,0,NaN,9.995311e+00,NaN,1,0,3,1
49,187,1,26,NaN,NaN,0,NaN,9.995128e+00,NaN,0,1,1,1
49,188,1,58,NaN,NaN,0,NaN,9.995406e+00,NaN,0,0,2,1
49,189,1,66,NaN,NaN,0,NaN,9.995156e+00,NaN,0,0,2,1
49,190,1,36,NaN,NaN,0,NaN,9.995510e+00,NaN,0,0,1,1
49,191,1,62,NaN,NaN,0,NaN,9.995302e+00,NaN,1,0,2,1
49,192,1,112,NaN,NaN,0,NaN,9.995284e+00,NaN,2,0,3,1
49,193,1,27,NaN,NaN,0,NaN,9.995189e+00,NaN,0,1,1,1
49,194,1,29,NaN,NaN,0,NaN,9.995308e+00,NaN,1,0,1,1
49,195,1,80,NaN,NaN,0,NaN,9.995451e+00,NaN,0,0,2,1
49,196,1,134,NaN,NaN,0,NaN,9.995578e+00,NaN,2,1,3,1
49,197,1,17,NaN,NaN,0,NaN,9.995262e+00,NaN,0,0,1,1
49,198,1,69,NaN,NaN,0,NaN,9.995313e+00,NaN,1,0,2,1
49,199,1,108,NaN,NaN,0,NaN,9.995497e+00,NaN,0,0,3,1
49,200,1,85,NaN,NaN,0,NaN,9.995176e+00,NaN,2,0,2,1
49,201,1,89,NaN,NaN,0,NaN,9.995586e+00,NaN,0,0,2,1
49,202,1,8,NaN,NaN,0,NaN,9.995230e+00,NaN,0,0,1,1
49,203,1,18,NaN,NaN,0,NaN,9.995080e+00,NaN,1,0,1,1
49,204,1,127,NaN,NaN,0,NaN,9.995383e+00,NaN,2,0,3,1
49,205,1,15,NaN,NaN,0,NaN,9.995521e+00,NaN,2,0,1,1
49,206,1,106,NaN,NaN,0,NaN,9.995560e+00,NaN,2,0,3,1
49,207,1,132,NaN,NaN,0,NaN,9.995464e+00,NaN,0,1,3,1
49,208,1,144,NaN,NaN,0,NaN,9.995313e+00,NaN,2,1,3,1
49,209,1,4,NaN,NaN,0,NaN,9.995226e+00,NaN,2,1,1,1
49,210,1,7,NaN,NaN,0,NaN,9.995510e+00,NaN,1,0,1,1
49,211,1,96,NaN,NaN,0,NaN,9.995167e+00,NaN,0,0,2,1
49,212,1,106,NaN,NaN,0,NaN,9.995523e+00,NaN,0,0,3,1
49,213,1,116,NaN,NaN,0,NaN,9.995190e+00,NaN,0,0,3,1
49,214,1,67,NaN,NaN,0,NaN,9.995064e+00,NaN,0,1,2,1
49,215,1,92,NaN,NaN,0,NaN,9.995240e+00,NaN,0,0,2,1
49,216,1,76,NaN,NaN,0,NaN,9.995119e+00,NaN,0,1,2,1
49,217,1,93,NaN,NaN,0,NaN,9.995463e+00,NaN,0,0,2,1
49,218,1,129,NaN,NaN,0,NaN,9.995464e+00,NaN,1,0,3,1
49,219,1,33,NaN,NaN,0,NaN,9.995232e+00,NaN,0,0,1,1
49,220,1,103,NaN,NaN,0,NaN,9.995310e+00,NaN,1,0,3,1
49,221,1,11,NaN,NaN,0,NaN,9.995279e+00,NaN,0,0,1,1
49,222,1,107,NaN,NaN,0,NaN,9.995513e+00,NaN,0,0,3,1
49,223,1,115,NaN,NaN,0,NaN,9.995640e+00,NaN,0,0,3,1
49,224,1,130,NaN,NaN,0,NaN,9.995553e+00,NaN,0,0,3,1
49,225,1,28,NaN,NaN,0,NaN,9.995278e+00,NaN,1,1,1,1
49,226,1,84,NaN,NaN,0,NaN,9.995623e+00,NaN,0,0,2,1
49,227,1,26,NaN,NaN,0,NaN,9.995288e+00,NaN,2,1,1,1
49,228,1,7,NaN,NaN,0,NaN,9.995409e+00,NaN,0,0,1,1
49,229,1,44,NaN,NaN,0,NaN,9.995201e+00,NaN,0,0,1,1
49,230,1,23,NaN,NaN,0,NaN,9.995434e+00,NaN,1,1,1,1
49,231,1,31,NaN,NaN,0,NaN,9.995499e+00,NaN,0,0,1,1
49,232,1,67,NaN,NaN,0,NaN,9.995421e+00,NaN,1,1,2,1
49,233,1,97,NaN,NaN,0,NaN,9.995120e+00,NaN,2,0,3,1
49,234,1,64,NaN,NaN,0,NaN,9.995424e+00,NaN,0,1,2,1
49,235,1,48,NaN,NaN,0,NaN,9.995579e+00,NaN,0,1,1,1
49,236,1,120,NaN,NaN,0,NaN,9.995035e+00,NaN,2,0,3,1
49,237,1,136,NaN,NaN,0,NaN,9.995335e+00,NaN,1,0,3,1
49,238,1,99,NaN,NaN,0,NaN,9.995567e+00,NaN,1,0,3,1
49,239,1,13,NaN,NaN,0,NaN,9.995349e+00,NaN,2,1,1,1
49,240,1,30,NaN,NaN,0,NaN,9.995059e+00,NaN,1,0,1,1
49,241,1,121,NaN,NaN,0,NaN,9.995153e+00,NaN,2,0,3,1
49,242,1,113,NaN,NaN,0,NaN,9.995035e+00,NaN,0,0,3,1
49,243,1,87,NaN,NaN,0,NaN,9.995053e+00,NaN,0,0,2,1
49,244,1,51,NaN,NaN,0,NaN,9.995445e+00,NaN,2,0,2,1
49,245,1,100,NaN,NaN,0,NaN,9.995397e+00,NaN,1,0,3,1
49,246,1,84,NaN,NaN,0,NaN,9.995317e+00,NaN,1,0,2,1
49,247,1,116,NaN,NaN,0,NaN,9.995311e+00,NaN,1,0,3,1
49,248,1,9,NaN,NaN,0,NaN,9.995521e+00,NaN,0,0,1,1
49,249,1,136,NaN,NaN,0,NaN,9.995268e+00,NaN,0,0,3,1
49,250,1,31,NaN,NaN,0,NaN,9.995631e+00,NaN,2,0,1,1
49,251,1,24,NaN,NaN,0,NaN,9.995100e+00,NaN,2,0,1,1
49,252,1,85,NaN,NaN,0,NaN,9.995490e+00,NaN,0,0,2,1
49,253,1,63,NaN,NaN,0,NaN,9.995286e+00,NaN,0,0,2,1
49,254,1,92,NaN,NaN,0,NaN,9.995566e+00,NaN,1,0,2,1
49,255,1,117,NaN,NaN,0,NaN,9.995204e+00,NaN,2,0,3,1
49,256,1,91,NaN,NaN,0,NaN,9.995172e+00,NaN,1,0,2,1
49,257,1,1,NaN,NaN,0,NaN,9.995321e+00,NaN,2,0,1,1
49,258,1,70,NaN,NaN,0,NaN,9.995451e+00,NaN,1,0,2,1
49,259,1,94,NaN,NaN,0,NaN,9.995621e+00,NaN,0,0,2,1
49,260,1,2,NaN,NaN,0,NaN,9.995460e+00,NaN,2,1,1,1
49,261,1,63,NaN,NaN,0,NaN,9.995032e+00,NaN,1,0,2,1
49,262,1,48,NaN,NaN,0,NaN,9.995451e+00,NaN,2,1,1,1
49,263,1,43,NaN,NaN,0,NaN,9.995040e+00,NaN,0,0,1,1
49,264,1,122,NaN,NaN,0,NaN,9.995450e+00,NaN,0,0,3,1
49,265,1,124,NaN,NaN,0,NaN,9.995493e+00,NaN,0,0,3,1
49,266,1,105,NaN,NaN,0,NaN,9.995639e+00,NaN,0,0,3,1
49,267,1,11,NaN,NaN,0,NaN,9.995343e+00,NaN,2,0,1,1
49,268,1,46,NaN,NaN,0,NaN,9.995093e+00,NaN,1,1,1,1
49,269,1,121,NaN,NaN,0,NaN,9.995570e+00,NaN,0,0,3,1
49,270,1,59,NaN,NaN,0,NaN,9.995575e+00,NaN,2,0,2,1
49,271,1,41,NaN,NaN,0,NaN,9.995594e+00,NaN,1,0,1,1
49,272,1,114,NaN,NaN,0,NaN,9.995392e+00,NaN,1,0,3,1
49,273,1,91,NaN,NaN,0,NaN,9.995474e+00,NaN,0,0,2,1
49,274,1,45,NaN,NaN,0,NaN,9.995306e+00,NaN,1,0,1,1
49,275,1,21,NaN,NaN,0,NaN,9.995601e+00,NaN,1,0,1,1
49,276,1,133,NaN,NaN,0,NaN,9.995583e+00,NaN,0,0,3,1
49,277,1,110,NaN,NaN,0,NaN,9.995635e+00,NaN,0,0,3,1
49,278,1,103,NaN,NaN,0,NaN,9.995367e+00,NaN,0,0,3,1
49,279,1,62,NaN,NaN,0,NaN,9.995497e+00,NaN,0,0,2,1
49,280,1,49,NaN,NaN,0,NaN,9.995092e+00,NaN,2,0,2,1
49,281,1,19,NaN,NaN,0,NaN,9.995344e+00,NaN,1,0,1,1
49,282,1,73,NaN,NaN,0,NaN,9.995581e+00,NaN,0,0,2,1
49,283,1,123,NaN,NaN,0,NaN,9.995175e+00,NaN,1,1,3,1
49,284,1,101,NaN,NaN,0,NaN,9.995078e+00,NaN,1,0,3,1
49,285,1,30,NaN,NaN,0,NaN,9.995515e+00,NaN,0,0,1,1
49,286,1,119,NaN,NaN,0,NaN,9.995527e+00,NaN,0,0,3,1
49,287,1,25,NaN,NaN,0,NaN,9.995250e+00,NaN,1,1,1,1
49,288,1,120,NaN,NaN,0,NaN,9.995386e+00,NaN,0,0,3,1
49,313,2,22,68,1,0,0,3.499608e+00,NaN,1,0,1,1
49,314,2,115,34,2,1,0,2.578928e+00,NaN,1,0,3,1
49,315,2,94,5,2,2,1,9.844349e-01,NaN,1,0,2,1
49,316,2,21,35,2,2,1,1.846258e+00,NaN,1,0,1,1
49,317,2,96,27,1,1,1,1.457495e+00,NaN,1,0,2,1
49,318,2,142,47,2,2,1,1.988431e+00,NaN,1,0,3,1
49,319,2,110,28,2,2,1,2.161569e+00,NaN,1,0,3,1
49,320,2,8,26,1,1,1,1.711903e+00,NaN,1,0,1,1
49,321,2,92,39,2,2,1,1.472465e+00,NaN,1,0,2,1
49,322,2,46,54,1,1,1,2.546468e+00,NaN,1,1,1,1
49,323,2,137,56,1,1,1,2.489563e+00,NaN,1,0,3,1
49,324,2,18,50,2,2,1,2.587217e+00,NaN,1,0,1,1
49,325,2,91,59,1,1,1,2.088238e+00,NaN,1,0,2,1
49,326,2,39,44,1,1,1,2.473612e+00,NaN,1,0,1,1
49,327,2,105,43,2,2,1,2.019429e+00,NaN,1,0,3,1
49,328,2,34,10,2,2,1,1.975914e+00,NaN,1,0,1,1
49,329,2,43,9,2,2,1,2.590513e+00,NaN,1,0,1,1
49,330,2,116,21,1,0,0,3.499818e+00,NaN,1,0,3,1
49,331,2,88,18,1,1,1,1.452815e+00,NaN,1,1,2,1
49,332,2,84,16,1,1,1,1.007951e+00,NaN,1,0,2,1
49,333,2,82,1,1,1,1,1.396682e+00,NaN,1,0,2,1
49,334,2,124,14,2,2,1,1.593839e+00,NaN,1,0,3,1
49,335,2,129,51,2,1,0,2.471254e+00,NaN,1,0,3,1
49,336,2,28,52,1,1,1,1.753229e+00,NaN,1,1,1,1
49,337,3,84,16,1,1,1,1.837410e+00,NaN,1,0,2,1
49,338,3,137,56,2,2,1,1.961029e+00,NaN,1,0,3,1
49,339,3,46,54,1,1,1,2.047730e+00,NaN,1,1,1,1
49,340,3,8,26,2,2,1,1.130994e+00,NaN,1,0,1,1
49,341,3,115,34,1,1,1,2.130462e+00,NaN,1,0,3,1
49,342,3,82,1,1,1,1,1.234665e+00,NaN,1,0,2,1
49,343,3,110,28,1,0,0,3.499686e+00,NaN,1,0,3,1
49,344,3,22,68,1,1,1,1.847355e+00,NaN,1,0,1,1
49,345,3,91,59,1,1,1,1.146603e+00,NaN,1,0,2,1
49,346,3,105,43,1,1,1,2.241377e+00,NaN,1,0,3,1
49,347,3,129,51,2,1,0,2.052811e+00,NaN,1,0,3,1
49,348,3,28,52,2,2,1,1.199401e+00,NaN,1,1,1,1
49,349,3,43,9,1,1,1,1.701034e+00,NaN,1,0,1,1
49,350,3,39,44,2,2,1,2.701840e+00,NaN,1,0,1,1
49,351,3,34,10,1,1,1,2.606663e+00,NaN,1,0,1,1
49,352,3,18,50,1,1,1,1.291344e+00,NaN,1,0,1,1
49,353,3,21,35,2,2,1,1.605023e+00,NaN,1,0,1,1
49,354,3,94,5,2,2,1,8.495342e-01,NaN,1,0,2,1
49,355,3,92,39,1,1,1,1.125174e+00,NaN,1,0,2,1
49,356,3,124,14,1,1,1,1.045287e+00,NaN,1,0,3,1
49,357,3,142,47,2,2,1,1.440593e+00,NaN,1,0,3,1
49,358,3,116,21,2,2,1,3.084359e+00,NaN,1,0,3,1
49,359,3,88,18,2,2,1,1.061898e+00,NaN,1,1,2,1
49,360,3,96,27,1,1,1,1.096237e+00,NaN,1,0,2,1
49,385,2,72,13,2,2,1,1.640963e+00,NaN,1,0,2,2
49,386,2,77,23,2,2,1,1.420686e+00,NaN,1,0,2,2
49,387,2,62,46,2,2,1,1.321804e+00,NaN,1,0,2,2
49,388,2,100,15,2,2,1,1.697268e+00,NaN,1,0,3,2
49,389,2,65,40,2,2,1,9.940651e-01,NaN,1,0,2,2
49,390,2,36,25,2,2,1,1.183599e+00,NaN,1,0,1,2
49,391,2,136,30,2,2,1,1.429755e+00,NaN,1,0,3,2
49,392,2,19,65,2,2,1,1.841191e+00,NaN,1,0,1,2
49,393,2,143,17,2,2,1,1.404906e+00,NaN,1,1,3,2
49,394,2,119,69,1,1,1,1.721761e+00,NaN,1,0,3,2
49,395,2,99,64,2,2,1,1.937542e+00,NaN,1,0,3,2
49,396,2,67,45,1,1,1,1.129351e+00,NaN,1,1,2,2
49,397,2,135,49,1,1,1,2.289378e+00,NaN,1,0,3,2
49,398,2,70,33,1,1,1,1.506705e+00,NaN,1,0,2,2
49,399,2,101,37,1,1,1,1.491315e+00,NaN,1,0,3,2
49,400,2,14,41,1,1,1,2.397184e+00,NaN,1,1,1,2
49,401,2,30,70,1,1,1,1.074503e+00,NaN,1,0,1,2
49,402,2,60,63,2,2,1,9.807925e-01,NaN,1,1,2,2
49,403,2,6,67,1,1,1,2.914566e+00,NaN,1,0,1,2
49,404,2,138,4,1,1,1,1.586575e+00,NaN,1,1,3,2
49,405,2,20,11,1,1,1,1.744278e+00,NaN,1,1,1,2
49,406,2,29,8,2,2,1,1.959717e+00,NaN,1,0,1,2
49,407,2,141,60,2,0,0,3.499887e+00,NaN,1,1,3,2
49,408,2,81,61,1,1,1,2.319379e+00,NaN,1,1,2,2
49,409,3,99,64,1,1,1,1.375036e+00,NaN,1,0,3,2
49,410,3,60,63,2,2,1,8.291519e-01,NaN,1,1,2,2
49,411,3,62,46,1,1,1,1.032994e+00,NaN,1,0,2,2
49,412,3,36,25,2,2,1,1.012861e+00,NaN,1,0,1,2
49,413,3,101,37,2,2,1,1.209507e+00,NaN,1,0,3,2
49,414,3,67,45,1,1,1,1.046355e+00,NaN,1,1,2,2
49,415,3,81,61,2,2,1,1.009292e+00,NaN,1,1,2,2
49,416,3,70,33,2,2,1,1.006613e+00,NaN,1,0,2,2
49,417,3,77,23,1,1,1,2.362967e+00,NaN,1,0,2,2
49,418,3,135,49,1,1,1,1.089301e+00,NaN,1,0,3,2
49,419,3,14,41,1,1,1,1.731118e+00,NaN,1,1,1,2
49,420,3,20,11,2,2,1,1.722655e+00,NaN,1,1,1,2
49,421,3,143,17,2,2,1,1.090862e+00,NaN,1,1,3,2
49,422,3,65,40,1,1,1,1.436388e+00,NaN,1,0,2,2
49,423,3,29,8,1,1,1,2.528443e+00,NaN,1,0,1,2
49,424,3,6,67,1,1,1,1.328138e+00,NaN,1,0,1,2
49,425,3,19,65,1,1,1,1.399830e+00,NaN,1,0,1,2
49,426,3,30,70,2,2,1,1.572900e+00,NaN,1,0,1,2
49,427,3,138,4,1,1,1,1.339209e+00,NaN,1,1,3,2
49,428,3,141,60,1,1,1,1.347453e+00,NaN,1,1,3,2
49,429,3,136,30,2,2,1,1.113832e+00,NaN,1,0,3,2
49,430,3,119,69,1,1,1,1.338639e+00,NaN,1,0,3,2
49,431,3,100,15,1,1,1,2.465950e+00,NaN,1,0,3,2
49,432,3,72,13,1,1,1,9.081764e-01,NaN,1,0,2,2
49,457,2,53,2,2,2,1,1.289623e+00,NaN,1,1,2,3
49,458,2,78,62,1,1,1,1.826844e+00,NaN,1,0,2,3
49,459,2,80,29,1,1,1,1.247277e+00,NaN,1,0,2,3
49,460,2,74,22,1,1,1,1.482049e+00,NaN,1,1,2,3
49,461,2,123,6,2,2,1,1.500189e+00,NaN,1,1,3,3
49,462,2,41,24,2,2,1,8.692718e-01,NaN,1,0,1,3
49,463,2,128,55,2,2,1,1.079647e+00,NaN,1,0,3,3
49,464,2,140,71,1,1,1,2.833574e+00,NaN,1,0,3,3
49,465,2,3,31,1,1,1,1.692725e+00,NaN,1,0,1,3
49,466,2,45,36,1,1,1,1.254387e+00,NaN,1,0,1,3
49,467,2,114,57,2,2,1,1.753641e+00,NaN,1,0,3,3
49,468,2,25,7,2,2,1,1.527896e+00,NaN,1,1,1,3
49,469,2,95,48,2,0,0,3.500018e+00,NaN,1,0,2,3
49,470,2,76,72,2,2,1,8.811990e-01,NaN,1,1,2,3
49,471,2,7,3,1,1,1,1.691194e+00,NaN,1,0,1,3
49,472,2,23,38,2,2,1,1.092533e+00,NaN,1,1,1,3
49,473,2,16,53,1,2,0,1.670023e+00,NaN,1,0,1,3
49,474,2,103,58,1,1,1,1.768218e+00,NaN,1,0,3,3
49,475,2,69,20,1,1,1,7.026046e-01,NaN,1,0,2,3
49,476,2,108,66,1,1,1,1.376490e+00,NaN,1,0,3,3
49,477,2,63,19,1,1,1,7.820499e-01,NaN,1,0,2,3
49,478,2,44,42,2,1,0,1.468614e+00,NaN,1,0,1,3
49,479,2,75,32,2,2,1,1.110658e+00,NaN,1,1,2,3
49,480,2,104,12,2,2,1,1.431545e+00,NaN,1,0,3,3
49,481,3,63,19,2,2,1,6.011892e-01,NaN,1,0,2,3
49,482,3,74,22,1,1,1,1.142197e+00,NaN,1,1,2,3
49,483,3,3,31,2,2,1,1.389741e+00,NaN,1,0,1,3
49,484,3,45,36,2,2,1,8.272783e-01,NaN,1,0,1,3
49,485,3,123,6,1,1,1,1.823815e+00,NaN,1,1,3,3
49,486,3,75,32,2,2,1,1.219676e+00,NaN,1,1,2,3
49,487,3,53,2,2,2,1,1.536384e+00,NaN,1,1,2,3
49,488,3,128,55,1,1,1,1.432053e+00,NaN,1,0,3,3
49,489,3,108,66,1,1,1,9.559573e-01,NaN,1,0,3,3
49,490,3,76,72,1,1,1,1.434719e+00,NaN,1,1,2,3
49,491,3,25,7,2,2,1,8.224430e-01,NaN,1,1,1,3
49,492,3,95,48,1,1,1,1.011075e+00,NaN,1,0,2,3
49,493,3,41,24,2,2,1,4.718015e-01,NaN,1,0,1,3
49,494,3,78,62,1,1,1,5.863430e-01,NaN,1,0,2,3
49,495,3,140,71,2,2,1,1.992106e+00,NaN,1,0,3,3
49,496,3,104,12,2,2,1,5.415397e-01,NaN,1,0,3,3
49,497,3,7,3,1,1,1,7.332322e-01,NaN,1,0,1,3
49,498,3,103,58,1,1,1,4.930115e-01,NaN,1,0,3,3
49,499,3,23,38,2,2,1,1.742658e+00,NaN,1,1,1,3
49,500,3,114,57,2,2,1,8.701625e-01,NaN,1,0,3,3
49,501,3,16,53,2,1,0,1.064554e+00,NaN,1,0,1,3
49,502,3,80,29,2,2,1,1.330791e+00,NaN,1,0,2,3
49,503,3,44,42,1,2,0,1.530793e+00,NaN,1,0,1,3
49,504,3,69,20,1,1,1,1.026702e+00,NaN,1,0,2,3
49,529,4,97,50,1,2,0,2.811140e+00,NaN,2,0,3,1
49,530,4,87,15,1,2,0,6.865296e-01,NaN,2,0,2,1
49,531,4,50,3,2,2,1,2.896042e+00,NaN,2,0,2,1
49,532,4,33,47,2,2,1,1.729620e+00,NaN,2,0,1,1
49,533,4,49,42,2,2,1,8.171797e-01,NaN,2,0,2,1
49,534,4,107,44,1,1,1,2.950020e+00,NaN,2,0,3,1
49,535,4,9,59,2,1,0,1.444951e+00,NaN,2,0,1,1
49,536,4,47,30,2,2,1,1.744042e+00,NaN,2,0,1,1
49,537,4,56,26,2,2,1,9.198326e-01,NaN,2,0,2,1
49,538,4,120,24,1,1,1,1.031970e+00,NaN,2,0,3,1
49,539,4,127,40,1,1,1,8.594222e-01,NaN,2,0,3,1
49,540,4,13,22,1,1,1,9.503894e-01,NaN,2,1,1,1
49,541,4,64,52,2,2,1,1.037629e+00,NaN,2,1,2,1
49,542,4,139,48,1,1,1,1.185091e+00,NaN,2,0,3,1
49,543,4,98,7,2,2,1,1.023286e+00,NaN,2,1,3,1
49,544,4,11,1,2,2,1,1.899276e+00,NaN,2,0,1,1
49,545,4,90,43,2,2,1,1.188607e+00,NaN,2,0,2,1
49,546,4,38,34,1,1,1,1.121751e+00,NaN,2,0,1,1
49,547,4,37,71,2,1,0,2.618471e+00,NaN,2,0,1,1
49,548,4,130,27,2,2,1,1.662485e+00,NaN,2,0,3,1
49,549,4,131,13,1,1,1,7.375472e-01,NaN,2,0,3,1
49,550,4,12,2,1,1,1,1.264769e+00,NaN,2,1,1,1
49,551,4,40,49,1,1,1,1.651639e+00,NaN,2,0,1,1
49,552,4,132,72,2,1,0,2.062857e+00,NaN,2,1,3,1
49,577,4,55,8,2,2,1,1.382613e+00,NaN,2,0,2,2
49,578,4,102,36,2,1,0,1.604780e+00,NaN,2,0,3,2
49,579,4,68,57,2,2,1,7.375949e-01,NaN,2,0,2,2
49,580,4,86,51,2,2,1,1.241355e+00,NaN,2,0,2,2
49,581,4,31,55,2,2,1,1.092615e+00,NaN,2,0,1,2
49,582,4,66,12,2,2,1,7.985148e-01,NaN,2,0,2,2
49,583,4,112,70,2,2,1,1.075530e+00,NaN,2,0,3,2
49,584,4,126,5,1,1,1,1.197918e+00,NaN,2,0,3,2
49,585,4,17,19,1,2,0,1.754940e+00,NaN,2,0,1,2
49,586,4,93,58,1,1,1,1.633646e+00,NaN,2,0,2,2
49,587,4,73,28,2,2,1,9.095004e-01,NaN,2,0,2,2
49,588,4,2,61,1,1,1,1.606406e+00,NaN,2,1,1,2
49,589,4,144,18,1,1,1,1.067794e+00,NaN,2,1,3,2
49,590,4,58,10,1,2,0,1.750309e+00,NaN,2,0,2,2
49,591,4,59,31,1,1,1,1.037297e+00,NaN,2,0,2,2
49,592,4,4,32,2,2,1,9.531981e-01,NaN,2,1,1,2
49,593,4,52,67,1,1,1,1.743477e+00,NaN,2,0,2,2
49,594,4,79,14,2,2,1,6.871067e-01,NaN,2,0,2,2
49,595,4,35,60,2,1,0,9.526858e-01,NaN,2,1,1,2
49,596,4,5,45,2,2,1,1.384289e+00,NaN,2,1,1,2
49,597,4,122,23,1,1,1,1.190081e+00,NaN,2,0,3,2
49,598,4,83,37,1,1,1,5.555542e-01,NaN,2,0,2,2
49,599,4,89,56,2,1,0,8.744793e-01,NaN,2,0,2,2
49,600,4,125,62,1,1,1,1.252605e+00,NaN,2,0,3,2
49,625,4,57,38,2,2,1,8.072588e-01,NaN,2,1,2,3
49,626,4,48,6,2,2,1,8.285593e-01,NaN,2,1,1,3
49,627,4,32,64,1,1,1,8.482030e-01,NaN,2,0,1,3
49,628,4,54,11,1,1,1,6.196729e-01,NaN,2,1,2,3
49,629,4,109,54,1,1,1,1.216508e+00,NaN,2,1,3,3
49,630,4,10,33,1,1,1,1.236680e+00,NaN,2,0,1,3
49,631,4,1,16,2,2,1,1.232403e+00,NaN,2,0,1,3
49,632,4,26,4,1,1,1,9.721919e-01,NaN,2,1,1,3
49,633,4,118,25,2,2,1,2.474094e+00,NaN,2,0,3,3
49,634,4,71,66,1,1,1,1.036300e+00,NaN,2,0,2,3
49,635,4,15,29,2,2,1,1.888263e+00,NaN,2,0,1,3
49,636,4,51,35,2,2,1,8.173955e-01,NaN,2,0,2,3
49,637,4,42,21,2,2,1,1.965747e+00,NaN,2,0,1,3
49,638,4,117,65,2,1,0,1.220517e+00,NaN,2,0,3,3
49,639,4,133,20,2,2,1,1.864883e+00,NaN,2,0,3,3
49,640,4,85,69,2,1,0,2.138938e+00,NaN,2,0,2,3
49,641,4,111,68,2,2,1,1.754784e+00,NaN,2,0,3,3
49,642,4,61,41,1,1,1,1.609247e+00,NaN,2,1,2,3
49,643,4,106,9,2,2,1,1.526475e+00,NaN,2,0,3,3
49,644,4,134,63,1,1,1,1.446589e+00,NaN,2,1,3,3
49,645,4,113,53,1,1,1,1.633855e+00,NaN,2,0,3,3
49,646,4,121,46,2,2,1,1.693444e+00,NaN,2,0,3,3
49,647,4,27,17,1,1,1,2.614920e+00,NaN,2,1,1,3
49,648,4,24,39,1,1,1,1.339244e+00,NaN,2,0,1,3
49,649,5,9.639000e+01,48,2,1,0,1.164339e+00,1,1,0,2.300000e+00,1
49,650,5,1.008700e+02,15,3,0,0,2.500256e+00,1,1,0,3.200000e+00,1
49,651,5,1.378900e+02,56,3,0,0,2.500376e+00,1,1,0,3.200000e+00,1
49,652,5,1.283100e+02,55,3,2,0,7.871898e-01,1,1,0,3.100000e+00,1
49,653,5,1.059000e+02,43,3,0,0,2.500316e+00,1,1,0,3.200000e+00,1
49,654,5,9.109000e+01,59,2,0,0,2.500466e+00,1,1,0,2.100000e+00,1
49,655,5,3.718000e+01,25,1,1,1,6.003011e-01,1,1,0,1.300000e+00,1
49,656,5,1.153800e+02,34,3,2,0,3.057153e-01,1,1,0,3.100000e+00,1
49,657,5,2.017000e+01,65,1,1,1,4.117952e-01,1,1,0,1.300000e+00,1
49,658,5,2.017000e+01,65,1,1,1,2.844685e-01,2,1,0,1.300000e+00,1
49,659,5,1.354000e+02,49,3,0,0,2.500441e+00,1,1,0,3.100000e+00,1
49,660,5,2.151000e+01,35,1,2,0,2.072933e-01,1,1,0,1.200000e+00,1
49,661,5,3.590000e+00,31,1,1,1,3.445979e-01,1,1,0,1.200000e+00,1
49,662,5,1.146800e+02,57,3,2,0,3.864655e-01,1,1,0,3.200000e+00,1
49,663,5,1.378900e+02,56,3,0,0,2.500567e+00,2,1,0,3.200000e+00,1
49,664,5,1.039300e+02,58,3,1,0,6.854819e-01,1,1,0,3.200000e+00,1
49,665,5,1.354000e+02,49,3,1,0,3.905242e-01,2,1,0,3.100000e+00,1
49,666,5,1.046600e+02,12,3,1,0,3.119617e-01,1,1,0,3.200000e+00,1
49,667,5,1.153800e+02,34,3,0,0,2.500248e+00,2,1,0,3.100000e+00,1
49,668,5,1.713000e+01,53,1,1,1,2.989928e-01,1,1,0,1.300000e+00,1
49,669,5,6.321000e+01,46,2,2,1,2.527282e-01,1,1,0,2.300000e+00,1
49,670,5,7.925000e+01,62,2,2,1,3.819665e-01,1,1,0,2.300000e+00,1
49,671,5,6.321000e+01,46,2,2,1,4.150391e-01,2,1,0,2.300000e+00,1
49,672,5,7.925000e+01,62,2,2,1,3.608153e-01,2,1,0,2.300000e+00,1
49,673,5,1.403700e+02,71,3,1,0,3.299670e-01,1,1,0,3.100000e+00,1
49,674,5,8.211000e+01,1,2,1,0,1.555168e+00,1,1,0,2.100000e+00,1
49,675,5,1.018300e+02,37,3,2,0,2.849662e-01,1,1,0,3.200000e+00,1
49,676,5,1.364700e+02,30,3,0,0,2.500561e+00,1,1,0,3.100000e+00,1
49,677,5,1.283100e+02,55,3,2,0,2.643113e-01,2,1,0,3.100000e+00,1
49,678,5,8.015000e+01,29,2,1,0,4.179987e-01,1,1,0,2.100000e+00,1
49,679,5,1.897000e+01,50,1,1,1,2.748863e-01,1,1,0,1.300000e+00,1
49,680,5,4.602000e+01,36,1,0,0,2.500034e+00,1,1,0,1.300000e+00,1
49,681,5,9.526000e+01,5,2,2,1,3.983514e-01,1,1,0,2.300000e+00,1
49,682,5,4.220000e+01,24,1,1,1,4.558107e-01,1,1,0,1.300000e+00,1
49,683,5,9.932000e+01,64,3,0,0,2.500105e+00,1,1,0,3.100000e+00,1
49,684,5,4.602000e+01,36,1,3,0,4.749401e-01,2,1,0,1.300000e+00,1
49,685,5,8.560000e+00,26,1,0,0,2.500402e+00,1,1,0,1.200000e+00,1
49,686,5,1.146800e+02,57,3,3,1,2.944234e-01,2,1,0,3.200000e+00,1
49,687,5,6.627000e+01,40,2,2,1,2.796359e-01,1,1,0,2.300000e+00,1
49,688,5,7.500000e+00,3,1,1,1,3.291729e-01,1,1,0,1.200000e+00,1
49,689,5,6.627000e+01,40,2,2,1,3.784515e-01,2,1,0,2.300000e+00,1
49,690,5,1.198500e+02,69,3,3,1,4.517647e-01,1,1,0,3.200000e+00,1
49,691,5,1.247900e+02,14,3,3,1,3.811871e-01,1,1,0,3.200000e+00,1
49,692,5,7.331000e+01,13,2,2,1,3.183066e-01,1,1,0,2.300000e+00,1
49,693,5,2.151000e+01,35,1,1,1,4.556855e-01,2,1,0,1.200000e+00,1
49,694,5,1.298600e+02,51,3,2,0,3.927678e-01,1,1,0,3.200000e+00,1
49,695,5,2.151000e+01,35,1,1,1,2.824108e-01,3,1,0,1.200000e+00,1
49,696,5,1.198500e+02,69,3,3,1,3.394882e-01,2,1,0,3.200000e+00,1
49,697,5,3.590000e+00,31,1,1,1,2.607266e-01,2,1,0,1.200000e+00,1
49,698,5,4.406000e+01,9,1,3,0,4.622241e-01,1,1,0,1.300000e+00,1
49,699,5,4.406000e+01,9,1,1,1,2.796108e-01,2,1,0,1.300000e+00,1
49,700,5,7.500000e+00,3,1,1,1,4.247306e-01,2,1,0,1.200000e+00,1
49,701,5,2.017000e+01,65,1,1,1,5.379377e-01,3,1,0,1.300000e+00,1
49,702,5,8.015000e+01,29,2,2,1,3.397478e-01,2,1,0,2.100000e+00,1
49,703,5,7.010000e+01,33,2,2,1,4.927932e-01,1,1,0,2.100000e+00,1
49,704,5,8.401000e+01,16,2,2,1,3.978950e-01,1,1,0,2.100000e+00,1
49,705,5,1.107300e+02,28,3,3,1,3.030983e-01,1,1,0,3.200000e+00,1
49,706,5,9.224000e+01,39,2,0,0,2.500483e+00,1,1,0,2.100000e+00,1
49,707,5,1.247900e+02,14,3,3,1,3.144106e-01,2,1,0,3.200000e+00,1
49,708,5,9.109000e+01,59,2,2,1,3.399639e-01,2,1,0,2.100000e+00,1
49,709,5,8.211000e+01,1,2,2,1,3.170171e-01,2,1,0,2.100000e+00,1
49,710,5,2.311000e+01,68,1,1,1,3.346034e-01,1,1,0,1.300000e+00,1
49,711,5,1.897000e+01,50,1,1,1,1.359616e+00,2,1,0,1.300000e+00,1
49,712,5,8.015000e+01,29,2,2,1,3.210818e-01,3,1,0,2.100000e+00,1
49,713,5,2.955000e+01,8,1,1,1,3.065424e-01,1,1,0,1.200000e+00,1
49,714,5,1.059000e+02,43,3,3,1,3.157732e-01,2,1,0,3.200000e+00,1
49,715,5,1.008700e+02,15,3,3,1,3.251082e-01,2,1,0,3.200000e+00,1
49,716,5,9.224000e+01,39,2,2,1,2.946885e-01,2,1,0,2.100000e+00,1
49,717,5,1.153800e+02,34,3,1,0,3.764743e-01,3,1,0,3.100000e+00,1
49,718,5,6.317000e+01,19,2,2,1,3.291345e-01,1,1,0,2.100000e+00,1
49,719,5,1.107300e+02,28,3,2,0,4.424799e-01,2,1,0,3.200000e+00,1
49,720,5,1.046600e+02,12,3,3,1,2.997598e-01,2,1,0,3.200000e+00,1
49,721,5,2.955000e+01,8,1,1,1,3.410364e-01,2,1,0,1.200000e+00,1
49,722,5,1.008700e+02,15,3,3,1,6.469874e-01,3,1,0,3.200000e+00,1
49,723,5,1.247900e+02,14,3,3,1,3.199523e-01,3,1,0,3.200000e+00,1
49,724,5,3.458000e+01,10,1,1,1,3.049921e-01,1,1,0,1.200000e+00,1
49,725,5,3.590000e+00,31,1,1,1,2.907267e-01,3,1,0,1.200000e+00,1
49,726,5,8.560000e+00,26,1,1,1,2.359868e-01,2,1,0,1.200000e+00,1
49,727,5,4.220000e+01,24,1,1,1,3.494003e-01,2,1,0,1.300000e+00,1
49,728,5,3.112000e+01,70,1,1,1,1.214427e+00,1,1,0,1.300000e+00,1
49,729,5,2.955000e+01,8,1,1,1,2.875965e-01,3,1,0,1.200000e+00,1
49,730,5,2.151000e+01,35,1,1,1,5.288412e-01,4,1,0,1.200000e+00,1
49,731,5,9.730000e+01,27,2,2,1,4.663615e-01,1,1,0,2.300000e+00,1
49,732,5,1.018300e+02,37,3,0,0,2.500595e+00,2,1,0,3.200000e+00,1
49,733,5,2.311000e+01,68,1,1,1,3.498884e-01,2,1,0,1.300000e+00,1
49,734,5,7.033000e+01,20,2,2,1,2.710555e-01,1,1,0,2.300000e+00,1
49,735,5,3.590000e+00,31,1,1,1,2.323926e-01,4,1,0,1.200000e+00,1
49,736,5,9.639000e+01,48,2,1,0,3.539024e-01,2,1,0,2.300000e+00,1
49,737,5,1.146800e+02,57,3,3,1,3.710269e-01,3,1,0,3.200000e+00,1
49,738,5,9.526000e+01,5,2,2,1,2.846007e-01,2,1,0,2.300000e+00,1
49,739,5,8.211000e+01,1,2,2,1,4.456641e-01,3,1,0,2.100000e+00,1
49,740,5,7.925000e+01,62,2,2,1,4.551545e-01,3,1,0,2.300000e+00,1
49,741,5,4.007000e+01,44,1,1,1,2.721863e-01,1,1,0,1.300000e+00,1
49,742,5,3.458000e+01,10,1,2,0,7.375795e-01,2,1,0,1.200000e+00,1
49,743,5,7.010000e+01,33,2,2,1,2.274342e-01,2,1,0,2.100000e+00,1
49,744,5,1.107300e+02,28,3,1,0,5.642598e-01,3,1,0,3.200000e+00,1
49,745,5,1.087100e+02,66,3,3,1,2.935426e-01,1,1,0,3.200000e+00,1
49,746,5,3.112000e+01,70,1,1,1,2.467667e-01,2,1,0,1.300000e+00,1
49,747,5,9.224000e+01,39,2,2,1,3.923298e-01,3,1,0,2.100000e+00,1
49,748,5,1.713000e+01,53,1,1,1,5.296405e-01,2,1,0,1.300000e+00,1
49,749,5,1.423300e+02,47,3,3,1,3.307047e-01,1,1,0,3.100000e+00,1
49,750,5,1.713000e+01,53,1,1,1,1.470003e-04,3,1,0,1.300000e+00,1
49,751,5,1.046600e+02,12,3,3,1,3.815922e-01,3,1,0,3.200000e+00,1
49,752,5,1.403700e+02,71,3,1,0,7.105700e-01,2,1,0,3.100000e+00,1
49,753,5,6.627000e+01,40,2,2,1,3.596885e-01,3,1,0,2.300000e+00,1
49,754,5,1.046600e+02,12,3,3,1,2.573380e-01,4,1,0,3.200000e+00,1
49,755,5,1.164200e+02,21,3,3,1,4.744979e-01,1,1,0,3.100000e+00,1
49,756,5,1.146800e+02,57,3,3,1,4.359138e-01,4,1,0,3.200000e+00,1
49,757,5,4.449000e+01,42,1,1,1,5.170045e-01,1,1,0,1.200000e+00,1
49,758,5,4.406000e+01,9,1,1,1,2.626213e-01,3,1,0,1.300000e+00,1
49,759,5,6.317000e+01,19,2,2,1,3.517442e-01,2,1,0,2.100000e+00,1
49,760,5,6.317000e+01,19,2,2,1,2.733082e-01,3,1,0,2.100000e+00,1
49,761,5,1.423300e+02,47,3,3,1,3.141737e-01,2,1,0,3.100000e+00,1
49,762,5,8.401000e+01,16,2,2,1,3.719267e-01,2,1,0,2.100000e+00,1
49,763,5,1.283100e+02,55,3,3,1,7.650326e-01,3,1,0,3.100000e+00,1
49,764,5,9.526000e+01,5,2,2,1,3.988431e-01,3,1,0,2.300000e+00,1
49,765,5,4.602000e+01,36,1,1,1,1.815563e+00,3,1,0,1.300000e+00,1
49,766,5,9.109000e+01,59,2,2,1,5.535294e-01,3,1,0,2.100000e+00,1
49,767,5,6.520000e+00,67,1,1,1,2.749376e-01,1,1,0,1.200000e+00,1
49,768,5,7.331000e+01,13,2,2,1,3.405284e-01,2,1,0,2.300000e+00,1
49,769,5,1.364700e+02,30,3,3,1,6.054950e-01,2,1,0,3.100000e+00,1
49,770,5,1.423300e+02,47,3,3,1,3.670524e-01,3,1,0,3.100000e+00,1
49,771,5,4.449000e+01,42,1,1,1,6.160914e-01,2,1,0,1.200000e+00,1
49,772,5,6.520000e+00,67,1,1,1,3.133237e-01,2,1,0,1.200000e+00,1
49,773,5,9.526000e+01,5,2,2,1,3.145552e-01,4,1,0,2.300000e+00,1
49,774,5,9.730000e+01,27,2,0,0,2.500171e+00,2,1,0,2.300000e+00,1
49,775,5,1.364700e+02,30,3,3,1,1.596779e-04,3,1,0,3.100000e+00,1
49,776,5,1.039300e+02,58,3,3,1,7.141406e-02,2,1,0,3.200000e+00,1
49,777,5,3.112000e+01,70,1,2,0,1.224624e+00,3,1,0,1.300000e+00,1
49,778,5,8.211000e+01,1,2,2,1,1.491132e-04,4,1,0,2.100000e+00,1
49,779,5,1.164200e+02,21,3,1,0,8.755852e-01,2,1,0,3.100000e+00,1
49,780,5,6.520000e+00,67,1,0,0,2.500400e+00,3,1,0,1.200000e+00,1
49,781,5,9.730000e+01,27,2,2,1,3.271634e-01,3,1,0,2.300000e+00,1
49,782,5,7.822000e+01,23,2,1,0,1.552450e+00,1,1,0,2.300000e+00,1
49,783,5,1.198500e+02,69,3,3,1,2.185336e-01,3,1,0,3.200000e+00,1
49,784,5,1.153800e+02,34,3,1,0,3.477426e-01,4,1,0,3.100000e+00,1
49,785,5,1.247900e+02,14,3,3,1,1.497169e-04,4,1,0,3.200000e+00,1
49,786,5,1.198500e+02,69,3,3,1,1.457929e-04,4,1,0,3.200000e+00,1
49,787,5,7.010000e+01,33,2,1,0,4.885924e-01,3,1,0,2.100000e+00,1
49,788,5,2.955000e+01,8,1,1,1,3.359484e-02,4,1,0,1.200000e+00,1
49,789,5,8.401000e+01,16,2,2,1,2.794182e-02,3,1,0,2.100000e+00,1
49,790,5,7.500000e+00,3,1,1,1,2.049401e-02,3,1,0,1.200000e+00,1
49,791,5,1.378900e+02,56,3,2,0,1.485095e-04,3,1,0,3.200000e+00,1
49,792,5,1.378900e+02,56,3,3,1,1.460947e-04,4,1,0,3.200000e+00,1
49,793,5,1.364700e+02,30,3,3,1,1.608853e-04,4,1,0,3.100000e+00,1
49,794,5,1.059000e+02,43,3,3,1,1.515280e-04,3,1,0,3.200000e+00,1
49,795,5,1.018300e+02,37,3,2,0,4.521689e-01,3,1,0,3.200000e+00,1
49,796,5,4.220000e+01,24,1,1,1,2.377052e-01,3,1,0,1.300000e+00,1
49,797,5,9.109000e+01,59,2,2,1,3.891976e-02,4,1,0,2.100000e+00,1
49,798,5,6.627000e+01,40,2,2,1,8.043058e-02,4,1,0,2.300000e+00,1
49,799,5,1.283100e+02,55,3,3,1,8.139137e-02,4,1,0,3.100000e+00,1
49,800,5,1.164200e+02,21,3,3,1,1.488114e-04,3,1,0,3.100000e+00,1
49,801,5,1.713000e+01,53,1,1,1,1.476040e-04,4,1,0,1.300000e+00,1
49,802,5,9.224000e+01,39,2,2,1,5.962114e-03,4,1,0,2.100000e+00,1
49,803,5,7.822000e+01,23,2,2,1,8.787477e-02,2,1,0,2.300000e+00,1
49,804,5,7.033000e+01,20,2,2,1,4.647297e-01,2,1,0,2.300000e+00,1
49,805,5,1.164200e+02,21,3,3,1,4.194639e-02,4,1,0,3.100000e+00,1
49,806,5,7.331000e+01,13,2,2,1,9.925809e-02,3,1,0,2.300000e+00,1
49,807,5,1.354000e+02,49,3,3,1,1.500188e-04,3,1,0,3.100000e+00,1
49,808,5,4.449000e+01,42,1,1,1,7.014690e-02,3,1,0,1.200000e+00,1
49,809,5,1.423300e+02,47,3,3,1,1.699408e-04,4,1,0,3.100000e+00,1
49,810,5,4.449000e+01,42,1,1,1,1.688620e-01,4,1,0,1.200000e+00,1
49,811,5,3.718000e+01,25,1,3,0,2.824570e-01,2,1,0,1.300000e+00,1
49,812,5,9.932000e+01,64,3,3,1,1.524335e-04,2,1,0,3.100000e+00,1
49,813,5,1.897000e+01,50,1,1,1,5.232848e-03,3,1,0,1.300000e+00,1
49,814,5,7.033000e+01,20,2,2,1,9.422718e-02,3,1,0,2.300000e+00,1
49,815,5,4.220000e+01,24,1,1,1,1.586305e-02,4,1,0,1.300000e+00,1
49,816,5,7.822000e+01,23,2,2,1,1.476040e-04,3,1,0,2.300000e+00,1
49,817,5,1.018300e+02,37,3,3,1,2.723882e-03,4,1,0,3.200000e+00,1
49,818,5,3.458000e+01,10,1,1,1,1.545465e-04,3,1,0,1.200000e+00,1
49,819,5,4.007000e+01,44,1,1,1,2.984196e-02,2,1,0,1.300000e+00,1
49,820,5,1.298600e+02,51,3,3,1,8.668488e-02,2,1,0,3.200000e+00,1
49,821,5,6.321000e+01,46,2,2,1,1.594545e-02,3,1,0,2.300000e+00,1
49,822,5,8.560000e+00,26,1,1,1,8.914404e-02,3,1,0,1.200000e+00,1
49,823,5,2.017000e+01,65,1,1,1,3.433075e-02,4,1,0,1.300000e+00,1
49,824,5,9.639000e+01,48,2,2,1,7.601333e-02,3,1,0,2.300000e+00,1
49,825,5,6.520000e+00,67,1,1,1,1.470003e-04,4,1,0,1.200000e+00,1
49,826,5,1.298600e+02,51,3,3,1,1.479058e-04,3,1,0,3.200000e+00,1
49,827,5,1.087100e+02,66,3,3,1,4.056725e-02,2,1,0,3.200000e+00,1
49,828,5,7.925000e+01,62,2,2,1,1.539428e-04,4,1,0,2.300000e+00,1
49,829,5,8.401000e+01,16,2,2,1,4.326638e-02,4,1,0,2.100000e+00,1
49,830,5,1.039300e+02,58,3,3,1,1.089637e-01,3,1,0,3.200000e+00,1
49,831,5,7.331000e+01,13,2,2,1,7.009649e-02,4,1,0,2.300000e+00,1
49,832,5,1.059000e+02,43,3,3,1,1.527022e-02,4,1,0,3.200000e+00,1
49,833,5,8.015000e+01,29,2,2,1,1.500188e-04,4,1,0,2.100000e+00,1
49,834,5,7.500000e+00,3,1,1,1,8.232196e-02,4,1,0,1.200000e+00,1
49,835,5,4.602000e+01,36,1,1,1,1.157523e-01,4,1,0,1.300000e+00,1
49,836,5,9.730000e+01,27,2,2,1,5.278910e-02,4,1,0,2.300000e+00,1
49,837,5,2.311000e+01,68,1,1,1,3.043811e-02,3,1,0,1.300000e+00,1
49,838,5,7.010000e+01,33,2,2,1,3.935321e-02,4,1,0,2.100000e+00,1
49,839,5,4.007000e+01,44,1,1,1,5.716862e-02,3,1,0,1.300000e+00,1
49,840,5,2.311000e+01,68,1,1,1,5.809197e-02,4,1,0,1.300000e+00,1
49,841,5,7.822000e+01,23,2,2,1,1.491132e-04,4,1,0,2.300000e+00,1
49,842,5,1.354000e+02,49,3,3,1,1.011323e-01,4,1,0,3.100000e+00,1
49,843,5,9.932000e+01,64,3,3,1,5.981544e-01,3,1,0,3.100000e+00,1
49,844,5,1.039300e+02,58,3,3,1,8.759949e-02,4,1,0,3.200000e+00,1
49,845,5,9.639000e+01,48,2,2,1,1.451892e-04,4,1,0,2.300000e+00,1
49,846,5,1.087100e+02,66,3,3,1,3.482065e-02,3,1,0,3.200000e+00,1
49,847,5,3.112000e+01,70,1,1,1,7.598435e-02,4,1,0,1.300000e+00,1
49,848,5,1.403700e+02,71,3,3,1,2.132189e-01,3,1,0,3.100000e+00,1
49,849,5,1.087100e+02,66,3,3,1,3.264629e-01,4,1,0,3.200000e+00,1
49,850,5,8.560000e+00,26,1,1,1,9.593353e-02,4,1,0,1.200000e+00,1
49,851,5,3.718000e+01,25,1,1,1,1.610498e-01,3,1,0,1.300000e+00,1
49,852,5,1.107300e+02,28,3,3,1,1.482077e-04,4,1,0,3.200000e+00,1
49,853,5,7.033000e+01,20,2,2,1,1.756759e-04,4,1,0,2.300000e+00,1
49,854,5,1.298600e+02,51,3,3,1,1.557539e-04,4,1,0,3.200000e+00,1
49,855,5,1.008700e+02,15,3,3,1,1.460947e-04,4,1,0,3.200000e+00,1
49,856,5,1.403700e+02,71,3,3,1,1.491132e-04,4,1,0,3.100000e+00,1
49,857,5,3.458000e+01,10,1,1,1,8.212425e-02,4,1,0,1.200000e+00,1
49,858,5,4.406000e+01,9,1,1,1,5.944063e-02,4,1,0,1.300000e+00,1
49,859,5,6.321000e+01,46,2,2,1,6.848009e-02,4,1,0,2.300000e+00,1
49,860,5,9.932000e+01,64,3,3,1,1.506225e-04,4,1,0,3.100000e+00,1
49,861,5,3.718000e+01,25,1,1,1,5.513808e-02,4,1,0,1.300000e+00,1
49,862,5,4.007000e+01,44,1,1,1,1.284951e-01,4,1,0,1.300000e+00,1
49,863,5,6.317000e+01,19,2,2,1,1.057053e-01,4,1,0,2.100000e+00,1
49,864,5,1.897000e+01,50,1,1,1,1.460947e-04,4,1,0,1.300000e+00,1
49,865,6,121,46,1,1,1,2.017691e+00,NaN,2,0,3,1
49,866,6,54,11,2,2,1,9.441779e-01,NaN,2,1,2,1
49,867,6,32,64,1,1,1,1.273524e+00,NaN,2,0,1,1
49,868,6,64,52,2,2,1,8.128210e-01,NaN,2,1,2,1
49,869,6,31,55,1,1,1,1.530066e+00,NaN,2,0,1,1
49,870,6,109,54,1,1,1,1.090849e+00,NaN,2,1,3,1
49,871,6,24,39,1,1,1,7.894395e-01,NaN,2,0,1,1
49,872,6,59,31,1,1,1,9.247005e-01,NaN,2,0,2,1
49,873,6,50,3,1,1,1,8.378050e-01,NaN,2,0,2,1
49,874,6,87,15,2,2,1,9.623882e-01,NaN,2,0,2,1
49,875,6,26,4,2,1,0,1.337867e+00,NaN,2,1,1,1
49,876,6,11,1,2,2,1,9.789799e-01,NaN,2,0,1,1
49,877,6,17,19,2,2,1,2.809531e+00,NaN,2,0,1,1
49,878,6,122,23,1,1,1,1.616085e+00,NaN,2,0,3,1
49,879,6,130,27,1,1,1,1.277655e+00,NaN,2,0,3,1
49,880,6,55,8,1,1,1,9.846383e-01,NaN,2,0,2,1
49,881,6,118,25,1,1,1,1.815602e+00,NaN,2,0,3,1
49,882,6,73,28,1,2,0,1.813458e+00,NaN,2,0,2,1
49,883,6,56,26,1,1,1,9.072374e-01,NaN,2,0,2,1
49,884,6,9,59,2,1,0,1.220747e+00,NaN,2,0,1,1
49,885,6,61,41,1,1,1,7.700904e-01,NaN,2,1,2,1
49,886,6,2,61,2,1,0,1.617802e+00,NaN,2,1,1,1
49,887,6,98,7,2,2,1,1.103372e+00,NaN,2,1,3,1
49,888,6,4,32,1,1,1,1.730139e+00,NaN,2,1,1,1
49,889,6,83,37,1,1,1,8.027305e-01,NaN,2,0,2,1
49,890,6,47,30,1,1,1,1.817132e+00,NaN,2,0,1,1
49,891,6,52,67,2,2,1,9.348348e-01,NaN,2,0,2,1
49,892,6,1,16,2,1,0,1.759553e+00,NaN,2,0,1,1
49,893,6,27,17,1,1,1,1.183554e+00,NaN,2,1,1,1
49,894,6,12,2,1,1,1,1.526694e+00,NaN,2,1,1,1
49,895,6,93,58,2,2,1,1.159702e+00,NaN,2,0,2,1
49,896,6,15,29,2,2,1,1.423729e+00,NaN,2,0,1,1
49,897,6,102,36,2,2,1,9.252716e-01,NaN,2,0,3,1
49,898,6,139,48,1,1,1,7.263610e-01,NaN,2,0,3,1
49,899,6,13,22,2,2,1,1.888178e+00,NaN,2,1,1,1
49,900,6,120,24,1,1,1,1.402286e+00,NaN,2,0,3,1
49,901,6,112,70,1,1,1,1.360584e+00,NaN,2,0,3,1
49,902,6,35,60,1,2,0,2.320458e+00,NaN,2,1,1,1
49,903,6,68,57,2,2,1,8.016583e-01,NaN,2,0,2,1
49,904,6,113,53,1,1,1,8.803680e-01,NaN,2,0,3,1
49,905,6,90,43,1,1,1,1.331354e+00,NaN,2,0,2,1
49,906,6,134,63,1,1,1,1.564210e+00,NaN,2,1,3,1
49,907,6,89,56,1,1,1,9.155877e-01,NaN,2,0,2,1
49,908,6,33,47,1,1,1,1.157467e+00,NaN,2,0,1,1
49,909,6,85,69,2,2,1,1.037359e+00,NaN,2,0,2,1
49,910,6,10,33,2,2,1,2.570424e+00,NaN,2,0,1,1
49,911,6,111,68,1,1,1,1.425878e+00,NaN,2,0,3,1
49,912,6,86,51,1,1,1,1.462895e+00,NaN,2,0,2,1
49,913,6,58,10,1,1,1,7.303952e-01,NaN,2,0,2,1
49,914,6,5,45,2,2,1,2.203538e+00,NaN,2,1,1,1
49,915,6,40,49,2,2,1,1.153741e+00,NaN,2,0,1,1
49,916,6,144,18,2,0,0,3.499647e+00,NaN,2,1,3,1
49,917,6,107,44,1,1,1,8.123280e-01,NaN,2,0,3,1
49,918,6,79,14,1,1,1,6.980364e-01,NaN,2,0,2,1
49,919,6,48,6,1,1,1,7.564867e-01,NaN,2,1,1,1
49,920,6,42,21,1,2,0,1.708253e+00,NaN,2,0,1,1
49,921,6,127,40,2,2,1,1.446484e+00,NaN,2,0,3,1
49,922,6,71,66,2,2,1,8.189672e-01,NaN,2,0,2,1
49,923,6,37,71,1,1,1,1.352050e+00,NaN,2,0,1,1
49,924,6,133,20,1,1,1,8.887054e-01,NaN,2,0,3,1
49,925,6,132,72,2,1,0,2.147288e+00,NaN,2,1,3,1
49,926,6,51,35,1,1,1,8.357352e-01,NaN,2,0,2,1
49,927,6,66,12,1,1,1,7.046906e-01,NaN,2,0,2,1
49,928,6,131,13,1,1,1,1.354397e+00,NaN,2,0,3,1
49,929,6,125,62,1,1,1,1.970542e+00,NaN,2,0,3,1
49,930,6,97,50,2,2,1,1.697754e+00,NaN,2,0,3,1
49,931,6,49,42,1,1,1,8.602417e-01,NaN,2,0,2,1
49,932,6,38,34,2,2,1,9.766342e-01,NaN,2,0,1,1
49,933,6,57,38,1,1,1,1.255538e+00,NaN,2,1,2,1
49,934,6,106,9,1,2,0,1.715627e+00,NaN,2,0,3,1
49,935,6,126,5,2,2,1,1.605003e+00,NaN,2,0,3,1
49,936,6,117,65,2,1,0,1.786991e+00,NaN,2,0,3,1
49,937,6,94,5,2,2,1,9.060083e-01,NaN,1,0,2,1
49,938,6,92,39,1,1,1,1.115955e+00,NaN,1,0,2,1
49,939,6,25,7,1,1,1,9.576814e-01,NaN,1,1,1,1
49,940,6,39,44,2,2,1,1.309824e+00,NaN,1,0,1,1
49,941,6,119,69,2,2,1,1.103635e+00,NaN,1,0,3,1
49,942,6,75,32,1,1,1,6.978740e-01,NaN,1,1,2,1
49,943,6,101,37,2,2,1,8.604732e-01,NaN,1,0,3,1
49,944,6,21,35,2,2,1,1.304513e+00,NaN,1,0,1,1
49,945,6,91,59,2,2,1,1.114497e+00,NaN,1,0,2,1
49,946,6,30,70,1,1,1,1.956017e+00,NaN,1,0,1,1
49,947,6,108,66,1,1,1,1.243714e+00,NaN,1,0,3,1
49,948,6,100,15,1,1,1,1.688785e+00,NaN,1,0,3,1
49,949,6,76,72,1,1,1,6.673197e-01,NaN,1,1,2,1
49,950,6,36,25,2,2,1,1.038960e+00,NaN,1,0,1,1
49,951,6,16,53,2,2,1,1.635596e+00,NaN,1,0,1,1
49,952,6,110,28,1,2,0,2.048394e+00,NaN,1,0,3,1
49,953,6,62,46,1,1,1,9.729218e-01,NaN,1,0,2,1
49,954,6,103,58,2,2,1,9.561701e-01,NaN,1,0,3,1
49,955,6,140,71,1,1,1,1.700179e+00,NaN,1,0,3,1
49,956,6,99,64,1,1,1,1.038119e+00,NaN,1,0,3,1
49,957,6,65,40,2,2,1,8.832121e-01,NaN,1,0,2,1
49,958,6,23,38,2,1,0,1.246013e+00,NaN,1,1,1,1
49,959,6,142,47,1,2,0,2.138256e+00,NaN,1,0,3,1
49,960,6,95,48,2,2,1,9.147124e-01,NaN,1,0,2,1
49,961,6,34,10,2,2,1,1.628470e+00,NaN,1,0,1,1
49,962,6,7,3,2,2,1,1.665627e+00,NaN,1,0,1,1
49,963,6,60,63,1,1,1,7.091357e-01,NaN,1,1,2,1
49,964,6,67,45,2,2,1,7.752595e-01,NaN,1,1,2,1
49,965,6,53,2,1,1,1,1.022999e+00,NaN,1,1,2,1
49,966,6,96,27,2,2,1,8.920122e-01,NaN,1,0,2,1
49,967,6,69,20,2,2,1,6.707076e-01,NaN,1,0,2,1
49,968,6,46,54,2,2,1,1.898079e+00,NaN,1,1,1,1
49,969,6,138,4,2,2,1,8.765161e-01,NaN,1,1,3,1
49,970,6,41,24,2,2,1,9.037094e-01,NaN,1,0,1,1
49,971,6,43,9,2,2,1,1.985975e+00,NaN,1,0,1,1
49,972,6,22,68,1,1,1,6.809146e-01,NaN,1,0,1,1
49,973,6,77,23,2,2,1,9.319721e-01,NaN,1,0,2,1
49,974,6,44,42,1,2,0,1.580969e+00,NaN,1,0,1,1
49,975,6,141,60,1,1,1,1.700088e+00,NaN,1,1,3,1
49,976,6,78,62,1,1,1,6.862969e-01,NaN,1,0,2,1
49,977,6,80,29,1,1,1,8.574155e-01,NaN,1,0,2,1
49,978,6,70,33,2,2,1,6.612516e-01,NaN,1,0,2,1
49,979,6,45,36,2,2,1,1.105423e+00,NaN,1,0,1,1
49,980,6,29,8,1,1,1,1.083775e+00,NaN,1,0,1,1
49,981,6,14,41,2,2,1,2.662820e+00,NaN,1,1,1,1
49,982,6,84,16,2,2,1,1.002208e+00,NaN,1,0,2,1
49,983,6,135,49,2,2,1,8.005291e-01,NaN,1,0,3,1
49,984,6,105,43,2,2,1,2.303268e+00,NaN,1,0,3,1
49,985,6,124,14,2,2,1,1.137479e+00,NaN,1,0,3,1
49,986,6,81,61,2,2,1,6.584070e-01,NaN,1,1,2,1
49,987,6,19,65,1,2,0,1.694334e+00,NaN,1,0,1,1
49,988,6,63,19,2,2,1,6.167597e-01,NaN,1,0,2,1
49,989,6,8,26,1,1,1,1.294402e+00,NaN,1,0,1,1
49,990,6,104,12,2,2,1,8.729788e-01,NaN,1,0,3,1
49,991,6,137,56,2,2,1,1.140476e+00,NaN,1,0,3,1
49,992,6,129,51,1,2,0,1.989189e+00,NaN,1,0,3,1
49,993,6,123,6,2,2,1,1.011640e+00,NaN,1,1,3,1
49,994,6,82,1,2,2,1,7.935709e-01,NaN,1,0,2,1
49,995,6,3,31,2,2,1,9.921628e-01,NaN,1,0,1,1
49,996,6,143,17,1,1,1,1.206861e+00,NaN,1,1,3,1
49,997,6,20,11,2,2,1,1.397123e+00,NaN,1,1,1,1
49,998,6,6,67,2,1,0,1.115431e+00,NaN,1,0,1,1
49,999,6,88,18,2,2,1,6.368559e-01,NaN,1,1,2,1
49,1000,6,28,52,2,2,1,1.033752e+00,NaN,1,1,1,1
49,1001,6,18,50,1,1,1,1.879096e+00,NaN,1,0,1,1
49,1002,6,115,34,1,2,0,1.634018e+00,NaN,1,0,3,1
49,1003,6,116,21,2,1,0,1.686661e+00,NaN,1,0,3,1
49,1004,6,128,55,2,2,1,1.874065e+00,NaN,1,0,3,1
49,1005,6,136,30,2,2,1,6.767835e-01,NaN,1,0,3,1
49,1006,6,114,57,1,2,0,7.365846e-01,NaN,1,0,3,1
49,1007,6,72,13,2,2,1,7.774935e-01,NaN,1,0,2,1
49,1008,6,74,22,1,1,1,5.766812e-01,NaN,1,1,2,1
