Subject,Trial,Cond,ImageNum,CueNum,Correct,Resp,Accuracy,RT,CueRep,ImageType,Baseline,Category,Block
12,1,1,3,NaN,NaN,2,NaN,2.488786e+00,NaN,0,0,1,1
12,2,1,81,NaN,NaN,1,NaN,5.186891e-01,NaN,1,0,2,1
12,3,1,94,NaN,NaN,1,NaN,3.793202e-01,NaN,1,0,2,1
12,4,1,32,NaN,NaN,1,NaN,4.208867e-01,NaN,2,0,1,1
12,5,1,121,NaN,NaN,1,NaN,5.968322e-01,NaN,2,0,3,1
12,6,1,76,NaN,NaN,1,NaN,3.262500e-01,NaN,1,0,2,1
12,7,1,119,NaN,NaN,1,NaN,4.820540e-01,NaN,0,0,3,1
12,8,1,44,NaN,NaN,2,NaN,7.997058e-01,NaN,1,0,1,1
12,9,1,58,NaN,NaN,1,NaN,6.163757e-01,NaN,0,0,2,1
12,10,1,97,NaN,NaN,2,NaN,6.168879e-01,NaN,0,0,3,1
12,11,1,126,NaN,NaN,2,NaN,3.939272e-01,NaN,1,0,3,1
12,12,1,111,NaN,NaN,1,NaN,4.189488e-01,NaN,2,0,3,1
12,13,1,41,NaN,NaN,1,NaN,2.990050e-01,NaN,1,1,1,1
12,14,1,33,NaN,NaN,1,NaN,2.956725e-01,NaN,0,0,1,1
12,15,1,26,NaN,NaN,1,NaN,2.607511e-01,NaN,2,1,1,1
12,16,1,60,NaN,NaN,1,NaN,3.794581e-01,NaN,1,0,2,1
12,17,1,28,NaN,NaN,1,NaN,2.771752e-01,NaN,1,0,1,1
12,18,1,4,NaN,NaN,1,NaN,3.313761e-01,NaN,0,0,1,1
12,19,1,52,NaN,NaN,1,NaN,3.105156e-01,NaN,2,0,2,1
12,20,1,62,NaN,NaN,1,NaN,3.315165e-01,NaN,0,0,2,1
12,21,1,35,NaN,NaN,2,NaN,3.993080e-01,NaN,2,0,1,1
12,22,1,38,NaN,NaN,1,NaN,4.169924e-01,NaN,0,1,1,1
12,23,1,91,NaN,NaN,1,NaN,3.690955e-01,NaN,0,0,2,1
12,24,1,123,NaN,NaN,1,NaN,2.907191e-01,NaN,2,0,3,1
12,25,1,72,NaN,NaN,1,NaN,4.242448e-01,NaN,0,0,2,1
12,26,1,136,NaN,NaN,1,NaN,2.800127e-01,NaN,0,0,3,1
12,27,1,10,NaN,NaN,1,NaN,2.694849e-01,NaN,0,1,1,1
12,28,1,2,NaN,NaN,1,NaN,5.400948e-01,NaN,2,0,1,1
12,29,1,140,NaN,NaN,1,NaN,3.203434e-01,NaN,0,0,3,1
12,30,1,137,NaN,NaN,1,NaN,2.843829e-01,NaN,0,1,3,1
12,31,1,93,NaN,NaN,1,NaN,3.943597e-01,NaN,2,0,2,1
12,32,1,125,NaN,NaN,1,NaN,3.726685e-01,NaN,1,0,3,1
12,33,1,124,NaN,NaN,2,NaN,3.264837e-01,NaN,0,1,3,1
12,34,1,36,NaN,NaN,2,NaN,2.748177e-01,NaN,1,0,1,1
12,35,1,50,NaN,NaN,1,NaN,2.974680e-01,NaN,0,0,2,1
12,36,1,15,NaN,NaN,1,NaN,2.859094e-01,NaN,0,0,1,1
12,37,1,61,NaN,NaN,1,NaN,3.872121e-01,NaN,1,1,2,1
12,38,1,49,NaN,NaN,1,NaN,3.007998e-01,NaN,1,0,2,1
12,39,1,120,NaN,NaN,1,NaN,3.214659e-01,NaN,1,0,3,1
12,40,1,56,NaN,NaN,1,NaN,3.745974e-01,NaN,0,0,2,1
12,41,1,24,NaN,NaN,1,NaN,4.961014e-01,NaN,0,1,1,1
12,42,1,135,NaN,NaN,2,NaN,6.295223e-01,NaN,0,0,3,1
12,43,1,78,NaN,NaN,1,NaN,2.614764e-01,NaN,0,1,2,1
12,44,1,43,NaN,NaN,1,NaN,3.714883e-01,NaN,1,0,1,1
12,45,1,46,NaN,NaN,2,NaN,2.695845e-01,NaN,0,0,1,1
12,46,1,46,NaN,NaN,2,NaN,6.444484e-01,NaN,2,0,1,1
12,47,1,10,NaN,NaN,1,NaN,2.596544e-01,NaN,2,1,1,1
12,48,1,9,NaN,NaN,1,NaN,2.993395e-01,NaN,2,0,1,1
12,49,1,67,NaN,NaN,1,NaN,3.765235e-01,NaN,1,1,2,1
12,50,1,97,NaN,NaN,1,NaN,2.987720e-01,NaN,1,0,3,1
12,51,1,121,NaN,NaN,1,NaN,3.431946e-01,NaN,0,0,3,1
12,52,1,42,NaN,NaN,1,NaN,2.906080e-01,NaN,0,0,1,1
12,53,1,55,NaN,NaN,1,NaN,3.121607e-01,NaN,0,1,2,1
12,54,1,42,NaN,NaN,1,NaN,3.087618e-01,NaN,2,0,1,1
12,55,1,54,NaN,NaN,1,NaN,2.975564e-01,NaN,2,0,2,1
12,56,1,68,NaN,NaN,1,NaN,4.466532e-01,NaN,1,1,2,1
12,57,1,14,NaN,NaN,1,NaN,3.253756e-01,NaN,1,0,1,1
12,58,1,66,NaN,NaN,1,NaN,3.137738e-01,NaN,0,0,2,1
12,59,1,92,NaN,NaN,1,NaN,2.454422e-01,NaN,2,0,2,1
12,60,1,59,NaN,NaN,1,NaN,3.090341e-01,NaN,2,0,2,1
12,61,1,131,NaN,NaN,1,NaN,1.489967e+00,NaN,1,1,3,1
12,62,1,57,NaN,NaN,1,NaN,2.796592e-01,NaN,0,1,2,1
12,63,1,86,NaN,NaN,1,NaN,2.932652e-01,NaN,0,0,2,1
12,64,1,31,NaN,NaN,1,NaN,2.831100e-01,NaN,0,1,1,1
12,65,1,37,NaN,NaN,1,NaN,2.971166e-01,NaN,0,0,1,1
12,66,1,115,NaN,NaN,2,NaN,2.616762e-01,NaN,0,0,3,1
12,67,1,98,NaN,NaN,1,NaN,4.440745e-01,NaN,0,0,3,1
12,68,1,100,NaN,NaN,1,NaN,2.357618e-01,NaN,2,1,3,1
12,69,1,112,NaN,NaN,1,NaN,2.751353e-01,NaN,2,1,3,1
12,70,1,102,NaN,NaN,2,NaN,2.813601e-01,NaN,1,0,3,1
12,71,1,105,NaN,NaN,1,NaN,3.032460e-01,NaN,0,0,3,1
12,72,1,100,NaN,NaN,1,NaN,2.845417e-01,NaN,0,1,3,1
12,73,1,114,NaN,NaN,1,NaN,3.157042e-01,NaN,2,0,3,1
12,74,1,27,NaN,NaN,1,NaN,5.347369e-01,NaN,0,0,1,1
12,75,1,61,NaN,NaN,1,NaN,2.987285e-01,NaN,0,1,2,1
12,76,1,71,NaN,NaN,1,NaN,3.043671e-01,NaN,2,0,2,1
12,77,1,12,NaN,NaN,1,NaN,3.007971e-01,NaN,2,0,1,1
12,78,1,143,NaN,NaN,2,NaN,2.743834e-01,NaN,2,0,3,1
12,79,1,59,NaN,NaN,1,NaN,3.444820e-01,NaN,0,0,2,1
12,80,1,5,NaN,NaN,1,NaN,2.837285e-01,NaN,0,0,1,1
12,81,1,43,NaN,NaN,1,NaN,2.888579e-01,NaN,0,0,1,1
12,82,1,22,NaN,NaN,2,NaN,2.862610e-01,NaN,0,0,1,1
12,83,1,132,NaN,NaN,1,NaN,3.403780e-01,NaN,0,0,3,1
12,84,1,38,NaN,NaN,1,NaN,3.343355e-01,NaN,1,1,1,1
12,85,1,24,NaN,NaN,1,NaN,2.989869e-01,NaN,2,1,1,1
12,86,1,41,NaN,NaN,1,NaN,3.110179e-01,NaN,0,1,1,1
12,87,1,99,NaN,NaN,2,NaN,5.647004e-01,NaN,0,0,3,1
12,88,1,25,NaN,NaN,1,NaN,3.592922e-01,NaN,1,0,1,1
12,89,1,101,NaN,NaN,2,NaN,3.867195e-01,NaN,0,0,3,1
12,90,1,123,NaN,NaN,1,NaN,3.402684e-01,NaN,0,0,3,1
12,91,1,144,NaN,NaN,1,NaN,6.154985e-01,NaN,2,0,3,1
12,92,1,131,NaN,NaN,1,NaN,2.803845e-01,NaN,0,1,3,1
12,93,1,73,NaN,NaN,1,NaN,6.295320e-01,NaN,1,0,2,1
12,94,1,80,NaN,NaN,1,NaN,3.008149e-01,NaN,2,0,2,1
12,95,1,88,NaN,NaN,1,NaN,3.858218e-01,NaN,0,1,2,1
12,96,1,119,NaN,NaN,1,NaN,4.109013e-01,NaN,1,0,3,1
12,97,1,29,NaN,NaN,1,NaN,5.243779e-01,NaN,1,0,1,1
12,98,1,50,NaN,NaN,1,NaN,4.083600e-01,NaN,2,0,2,1
12,99,1,30,NaN,NaN,1,NaN,3.774248e-01,NaN,1,1,1,1
12,100,1,111,NaN,NaN,1,NaN,6.361987e-01,NaN,0,0,3,1
12,101,1,81,NaN,NaN,1,NaN,2.752216e-01,NaN,0,0,2,1
12,102,1,142,NaN,NaN,1,NaN,2.971525e-01,NaN,0,0,3,1
12,103,1,77,NaN,NaN,1,NaN,3.580241e-01,NaN,0,0,2,1
12,104,1,1,NaN,NaN,1,NaN,3.936860e-01,NaN,0,0,1,1
12,105,1,113,NaN,NaN,1,NaN,2.752485e-01,NaN,0,0,3,1
12,106,1,64,NaN,NaN,1,NaN,2.894477e-01,NaN,0,0,2,1
12,107,1,7,NaN,NaN,1,NaN,2.707919e-01,NaN,1,0,1,1
12,108,1,29,NaN,NaN,1,NaN,3.012028e-01,NaN,0,0,1,1
12,109,1,5,NaN,NaN,1,NaN,3.138538e-01,NaN,2,0,1,1
12,110,1,82,NaN,NaN,1,NaN,3.109874e-01,NaN,0,0,2,1
12,111,1,69,NaN,NaN,1,NaN,2.838030e-01,NaN,2,1,2,1
12,112,1,48,NaN,NaN,1,NaN,3.695268e-01,NaN,1,0,1,1
12,113,1,4,NaN,NaN,1,NaN,3.558003e-01,NaN,1,0,1,1
12,114,1,3,NaN,NaN,1,NaN,3.906125e-01,NaN,1,0,1,1
12,115,1,132,NaN,NaN,1,NaN,2.806230e-01,NaN,1,0,3,1
12,116,1,94,NaN,NaN,1,NaN,2.776244e-01,NaN,0,0,2,1
12,117,1,39,NaN,NaN,2,NaN,3.237794e-01,NaN,2,0,1,1
12,118,1,51,NaN,NaN,1,NaN,6.879398e-01,NaN,1,0,2,1
12,119,1,64,NaN,NaN,1,NaN,3.652945e-01,NaN,1,0,2,1
12,120,1,77,NaN,NaN,1,NaN,2.713482e-01,NaN,1,0,2,1
12,121,1,134,NaN,NaN,1,NaN,3.333364e-01,NaN,0,1,3,1
12,122,1,54,NaN,NaN,1,NaN,2.808735e-01,NaN,0,0,2,1
12,123,1,129,NaN,NaN,1,NaN,2.785218e-01,NaN,0,0,3,1
12,124,1,74,NaN,NaN,1,NaN,3.407523e-01,NaN,0,0,2,1
12,125,1,16,NaN,NaN,1,NaN,3.358360e-01,NaN,2,1,1,1
12,126,1,6,NaN,NaN,1,NaN,2.838975e-01,NaN,2,0,1,1
12,127,1,141,NaN,NaN,1,NaN,3.054137e-01,NaN,0,0,3,1
12,128,1,51,NaN,NaN,1,NaN,2.789498e-01,NaN,0,0,2,1
12,129,1,103,NaN,NaN,1,NaN,2.844258e-01,NaN,0,0,3,1
12,130,1,7,NaN,NaN,1,NaN,2.655656e-01,NaN,0,0,1,1
12,131,1,139,NaN,NaN,1,NaN,2.795369e-01,NaN,2,0,3,1
12,132,1,62,NaN,NaN,1,NaN,3.248989e-01,NaN,2,0,2,1
12,133,1,21,NaN,NaN,1,NaN,2.808246e-01,NaN,0,0,1,1
12,134,1,108,NaN,NaN,1,NaN,5.829623e-01,NaN,0,0,3,1
12,135,1,107,NaN,NaN,1,NaN,7.449513e-01,NaN,0,0,3,1
12,136,1,110,NaN,NaN,1,NaN,6.207601e-01,NaN,0,0,3,1
12,137,1,116,NaN,NaN,1,NaN,2.451389e-01,NaN,0,0,3,1
12,138,1,95,NaN,NaN,1,NaN,3.078481e-01,NaN,0,0,2,1
12,139,1,113,NaN,NaN,1,NaN,2.968371e-01,NaN,1,0,3,1
12,140,1,18,NaN,NaN,1,NaN,5.971814e-01,NaN,0,0,1,1
12,141,1,34,NaN,NaN,1,NaN,3.666185e-01,NaN,1,0,1,1
12,142,1,128,NaN,NaN,1,NaN,6.732281e-01,NaN,0,0,3,1
12,143,1,76,NaN,NaN,1,NaN,2.873912e-01,NaN,0,0,2,1
12,144,1,122,NaN,NaN,1,NaN,3.168249e-01,NaN,1,0,3,1
12,145,1,19,NaN,NaN,2,NaN,4.975023e-01,NaN,0,0,1,1
12,146,1,89,NaN,NaN,1,NaN,2.948180e-01,NaN,0,1,2,1
12,147,1,65,NaN,NaN,1,NaN,2.918025e-01,NaN,2,0,2,1
12,148,1,73,NaN,NaN,1,NaN,3.055758e-01,NaN,0,0,2,1
12,149,1,110,NaN,NaN,1,NaN,4.870503e-01,NaN,1,0,3,1
12,150,1,40,NaN,NaN,2,NaN,5.727696e-01,NaN,1,0,1,1
12,151,1,118,NaN,NaN,1,NaN,3.029738e-01,NaN,2,1,3,1
12,152,1,53,NaN,NaN,1,NaN,3.643651e-01,NaN,0,0,2,1
12,153,1,116,NaN,NaN,1,NaN,2.873915e-01,NaN,2,0,3,1
12,154,1,133,NaN,NaN,2,NaN,3.245533e-01,NaN,2,0,3,1
12,155,1,34,NaN,NaN,1,NaN,2.731889e-01,NaN,0,0,1,1
12,156,1,139,NaN,NaN,1,NaN,1.279751e+00,NaN,0,0,3,1
12,157,1,79,NaN,NaN,1,NaN,3.005888e-01,NaN,1,1,2,1
12,158,1,99,NaN,NaN,2,NaN,3.695947e-01,NaN,1,0,3,1
12,159,1,68,NaN,NaN,1,NaN,2.520009e-01,NaN,0,1,2,1
12,160,1,56,NaN,NaN,1,NaN,2.747381e-01,NaN,1,0,2,1
12,161,1,27,NaN,NaN,1,NaN,3.128486e-01,NaN,2,0,1,1
12,162,1,135,NaN,NaN,1,NaN,2.689820e-01,NaN,2,0,3,1
12,163,1,117,NaN,NaN,2,NaN,3.717784e-01,NaN,0,1,3,1
12,164,1,14,NaN,NaN,1,NaN,2.935686e-01,NaN,0,0,1,1
12,165,1,67,NaN,NaN,1,NaN,2.834049e-01,NaN,0,1,2,1
12,166,1,133,NaN,NaN,2,NaN,3.530097e-01,NaN,0,0,3,1
12,167,1,118,NaN,NaN,1,NaN,3.566473e-01,NaN,0,1,3,1
12,168,1,37,NaN,NaN,1,NaN,2.552781e-01,NaN,2,0,1,1
12,169,1,22,NaN,NaN,2,NaN,2.704792e-01,NaN,2,0,1,1
12,170,1,95,NaN,NaN,1,NaN,2.847792e-01,NaN,1,0,2,1
12,171,1,13,NaN,NaN,1,NaN,2.660465e-01,NaN,0,1,1,1
12,172,1,11,NaN,NaN,1,NaN,2.644744e-01,NaN,0,1,1,1
12,173,1,112,NaN,NaN,1,NaN,2.546627e-01,NaN,0,1,3,1
12,174,1,125,NaN,NaN,1,NaN,7.975040e-01,NaN,0,0,3,1
12,175,1,9,NaN,NaN,1,NaN,4.063005e-01,NaN,0,0,1,1
12,176,1,8,NaN,NaN,2,NaN,2.946236e-01,NaN,1,0,1,1
12,177,1,104,NaN,NaN,1,NaN,2.680345e-01,NaN,0,0,3,1
12,178,1,63,NaN,NaN,1,NaN,2.667172e-01,NaN,0,0,2,1
12,179,1,87,NaN,NaN,1,NaN,2.567759e-01,NaN,0,1,2,1
12,180,1,130,NaN,NaN,2,NaN,2.636126e-01,NaN,1,0,3,1
12,181,1,16,NaN,NaN,1,NaN,2.938723e-01,NaN,0,1,1,1
12,182,1,33,NaN,NaN,1,NaN,4.028904e-01,NaN,1,0,1,1
12,183,1,92,NaN,NaN,1,NaN,3.405395e-01,NaN,0,0,2,1
12,184,1,140,NaN,NaN,1,NaN,2.315893e-01,NaN,1,0,3,1
12,185,1,122,NaN,NaN,2,NaN,2.239608e-01,NaN,0,0,3,1
12,186,1,117,NaN,NaN,2,NaN,5.682762e-01,NaN,2,1,3,1
12,187,1,31,NaN,NaN,1,NaN,2.509414e-01,NaN,2,1,1,1
12,188,1,20,NaN,NaN,1,NaN,1.113897e+00,NaN,1,1,1,1
12,189,1,105,NaN,NaN,1,NaN,2.865493e-01,NaN,1,0,3,1
12,190,1,109,NaN,NaN,1,NaN,4.031820e-01,NaN,0,0,3,1
12,191,1,26,NaN,NaN,1,NaN,2.200267e-01,NaN,0,1,1,1
12,192,1,17,NaN,NaN,1,NaN,2.686684e-01,NaN,0,0,1,1
12,193,1,87,NaN,NaN,1,NaN,3.153936e-01,NaN,1,1,2,1
12,194,1,91,NaN,NaN,1,NaN,2.881573e-01,NaN,2,0,2,1
12,195,1,74,NaN,NaN,1,NaN,2.537067e-01,NaN,2,0,2,1
12,196,1,15,NaN,NaN,1,NaN,4.919739e-01,NaN,1,0,1,1
12,197,1,23,NaN,NaN,2,NaN,5.213195e-01,NaN,0,0,1,1
12,198,1,93,NaN,NaN,1,NaN,3.576960e-01,NaN,0,0,2,1
12,199,1,96,NaN,NaN,1,NaN,2.739653e-01,NaN,0,1,2,1
12,200,1,11,NaN,NaN,1,NaN,3.112271e-01,NaN,1,1,1,1
12,201,1,65,NaN,NaN,1,NaN,2.680508e-01,NaN,0,0,2,1
12,202,1,143,NaN,NaN,1,NaN,2.819672e-01,NaN,0,0,3,1
12,203,1,1,NaN,NaN,1,NaN,2.646742e-01,NaN,2,0,1,1
12,204,1,47,NaN,NaN,1,NaN,2.861077e-01,NaN,2,1,1,1
12,205,1,66,NaN,NaN,1,NaN,5.953636e-01,NaN,2,0,2,1
12,206,1,63,NaN,NaN,1,NaN,3.558876e-01,NaN,2,0,2,1
12,207,1,58,NaN,NaN,1,NaN,2.714497e-01,NaN,2,0,2,1
12,208,1,90,NaN,NaN,1,NaN,2.374854e-01,NaN,1,0,2,1
12,209,1,86,NaN,NaN,1,NaN,2.368669e-01,NaN,1,0,2,1
12,210,1,85,NaN,NaN,1,NaN,2.363045e-01,NaN,1,1,2,1
12,211,1,142,NaN,NaN,1,NaN,2.838562e-01,NaN,2,0,3,1
12,212,1,78,NaN,NaN,1,NaN,3.054146e-01,NaN,2,1,2,1
12,213,1,115,NaN,NaN,1,NaN,3.580383e-01,NaN,2,0,3,1
12,214,1,19,NaN,NaN,1,NaN,2.331963e-01,NaN,1,0,1,1
12,215,1,136,NaN,NaN,1,NaN,2.087483e-01,NaN,2,0,3,1
12,216,1,80,NaN,NaN,1,NaN,2.258359e-01,NaN,0,0,2,1
12,217,1,82,NaN,NaN,1,NaN,4.187695e-01,NaN,2,0,2,1
12,218,1,60,NaN,NaN,1,NaN,2.669379e-01,NaN,0,0,2,1
12,219,1,25,NaN,NaN,1,NaN,1.177909e+00,NaN,0,0,1,1
12,220,1,70,NaN,NaN,1,NaN,3.399119e-01,NaN,0,0,2,1
12,221,1,30,NaN,NaN,1,NaN,3.280518e-01,NaN,0,1,1,1
12,222,1,55,NaN,NaN,1,NaN,4.120049e-01,NaN,1,1,2,1
12,223,1,8,NaN,NaN,1,NaN,3.482440e-01,NaN,0,0,1,1
12,224,1,141,NaN,NaN,1,NaN,2.945219e-01,NaN,2,0,3,1
12,225,1,84,NaN,NaN,1,NaN,3.087700e-01,NaN,0,1,2,1
12,226,1,96,NaN,NaN,1,NaN,2.812699e-01,NaN,2,1,2,1
12,227,1,130,NaN,NaN,2,NaN,7.345648e-01,NaN,0,0,3,1
12,228,1,49,NaN,NaN,1,NaN,2.750293e-01,NaN,0,0,2,1
12,229,1,90,NaN,NaN,1,NaN,2.736067e-01,NaN,0,0,2,1
12,230,1,114,NaN,NaN,1,NaN,3.194967e-01,NaN,0,0,3,1
12,231,1,32,NaN,NaN,1,NaN,3.802342e-01,NaN,0,0,1,1
12,232,1,45,NaN,NaN,2,NaN,4.535925e-01,NaN,2,1,1,1
12,233,1,137,NaN,NaN,1,NaN,3.395823e-01,NaN,1,1,3,1
12,234,1,104,NaN,NaN,1,NaN,3.187924e-01,NaN,2,0,3,1
12,235,1,12,NaN,NaN,1,NaN,3.069033e-01,NaN,0,0,1,1
12,236,1,106,NaN,NaN,1,NaN,2.796254e-01,NaN,1,0,3,1
12,237,1,103,NaN,NaN,1,NaN,4.697556e-01,NaN,1,0,3,1
12,238,1,48,NaN,NaN,1,NaN,3.318373e-01,NaN,0,0,1,1
12,239,1,127,NaN,NaN,1,NaN,2.718502e-01,NaN,1,0,3,1
12,240,1,109,NaN,NaN,1,NaN,3.271145e-01,NaN,2,0,3,1
12,241,1,17,NaN,NaN,1,NaN,2.345070e-01,NaN,1,0,1,1
12,242,1,44,NaN,NaN,1,NaN,2.817993e-01,NaN,0,0,1,1
12,243,1,28,NaN,NaN,1,NaN,2.555003e-01,NaN,0,0,1,1
12,244,1,23,NaN,NaN,1,NaN,2.545718e-01,NaN,2,0,1,1
12,245,1,84,NaN,NaN,1,NaN,3.012927e-01,NaN,2,1,2,1
12,246,1,35,NaN,NaN,2,NaN,2.502640e-01,NaN,0,0,1,1
12,247,1,70,NaN,NaN,1,NaN,2.725943e-01,NaN,1,0,2,1
12,248,1,75,NaN,NaN,1,NaN,3.197843e-01,NaN,1,1,2,1
12,249,1,36,NaN,NaN,1,NaN,2.522496e-01,NaN,0,0,1,1
12,250,1,39,NaN,NaN,2,NaN,3.553418e-01,NaN,0,0,1,1
12,251,1,98,NaN,NaN,1,NaN,2.632263e-01,NaN,1,0,3,1
12,252,1,120,NaN,NaN,1,NaN,2.692117e-01,NaN,0,0,3,1
12,253,1,47,NaN,NaN,1,NaN,2.512777e-01,NaN,0,1,1,1
12,254,1,75,NaN,NaN,1,NaN,2.424503e-01,NaN,0,1,2,1
12,255,1,69,NaN,NaN,1,NaN,2.983811e-01,NaN,0,1,2,1
12,256,1,72,NaN,NaN,1,NaN,2.714376e-01,NaN,2,0,2,1
12,257,1,13,NaN,NaN,1,NaN,2.693521e-01,NaN,1,1,1,1
12,258,1,127,NaN,NaN,1,NaN,3.560970e-01,NaN,0,0,3,1
12,259,1,129,NaN,NaN,1,NaN,2.710177e-01,NaN,1,0,3,1
12,260,1,40,NaN,NaN,2,NaN,3.171911e-01,NaN,0,0,1,1
12,261,1,107,NaN,NaN,1,NaN,2.332027e-01,NaN,1,0,3,1
12,262,1,134,NaN,NaN,1,NaN,2.813547e-01,NaN,1,1,3,1
12,263,1,53,NaN,NaN,1,NaN,2.948835e-01,NaN,2,0,2,1
12,264,1,138,NaN,NaN,1,NaN,3.397351e-01,NaN,2,0,3,1
12,265,1,102,NaN,NaN,1,NaN,2.148850e-01,NaN,0,0,3,1
12,266,1,88,NaN,NaN,1,NaN,2.866872e-01,NaN,2,1,2,1
12,267,1,57,NaN,NaN,1,NaN,3.649414e-01,NaN,1,1,2,1
12,268,1,45,NaN,NaN,1,NaN,2.717253e-01,NaN,0,1,1,1
12,269,1,52,NaN,NaN,1,NaN,3.179149e-01,NaN,0,0,2,1
12,270,1,89,NaN,NaN,1,NaN,2.498070e-01,NaN,2,1,2,1
12,271,1,71,NaN,NaN,1,NaN,1.130023e-01,NaN,0,0,2,1
12,272,1,126,NaN,NaN,1,NaN,3.650102e-01,NaN,0,0,3,1
12,273,1,85,NaN,NaN,1,NaN,2.557234e-01,NaN,0,1,2,1
12,274,1,128,NaN,NaN,1,NaN,2.790618e-01,NaN,2,0,3,1
12,275,1,2,NaN,NaN,1,NaN,3.084896e-01,NaN,0,0,1,1
12,276,1,106,NaN,NaN,1,NaN,2.731536e-01,NaN,0,0,3,1
12,277,1,138,NaN,NaN,1,NaN,1.999498e-01,NaN,0,0,3,1
12,278,1,124,NaN,NaN,1,NaN,2.735883e-01,NaN,2,1,3,1
12,279,1,83,NaN,NaN,1,NaN,3.279579e-01,NaN,0,0,2,1
12,280,1,20,NaN,NaN,2,NaN,1.148909e+00,NaN,0,1,1,1
12,281,1,21,NaN,NaN,1,NaN,4.793075e-01,NaN,2,0,1,1
12,282,1,18,NaN,NaN,1,NaN,3.172998e-01,NaN,2,0,1,1
12,283,1,83,NaN,NaN,1,NaN,3.777514e-01,NaN,1,0,2,1
12,284,1,6,NaN,NaN,1,NaN,2.757272e-01,NaN,0,0,1,1
12,285,1,79,NaN,NaN,1,NaN,3.301237e-01,NaN,0,1,2,1
12,286,1,144,NaN,NaN,1,NaN,2.779293e-01,NaN,0,0,3,1
12,287,1,101,NaN,NaN,1,NaN,3.478525e-01,NaN,1,0,3,1
12,288,1,108,NaN,NaN,1,NaN,5.265207e-01,NaN,2,0,3,1
12,348,2,83,2,2,2,1,2.445065e+00,NaN,1,0,2,1
12,349,2,97,19,1,1,1,1.329489e+00,NaN,1,0,3,1
12,350,2,25,29,1,1,1,2.297610e+00,NaN,1,0,1,1
12,351,2,101,41,2,2,1,1.594982e+00,NaN,1,0,3,1
12,352,2,56,24,1,1,1,9.687397e-01,NaN,1,0,2,1
12,353,2,11,56,2,2,1,2.479809e+00,NaN,1,1,1,1
12,354,2,122,68,1,1,1,8.019316e-01,NaN,1,0,3,1
12,355,2,79,21,2,2,1,1.319868e+00,NaN,1,1,2,1
12,356,2,126,39,2,2,1,1.423965e+00,NaN,1,0,3,1
12,357,2,131,52,2,2,1,9.169808e-01,NaN,1,1,3,1
12,358,2,29,69,1,1,1,1.125890e+00,NaN,1,0,1,1
12,359,2,75,48,1,1,1,7.022966e-01,NaN,1,1,2,1
12,360,2,61,33,1,1,1,8.639864e-01,NaN,1,1,2,1
12,361,2,106,31,2,2,1,1.770656e+00,NaN,1,0,3,1
12,362,2,55,27,2,2,1,1.217284e+00,NaN,1,1,2,1
12,363,2,105,15,1,1,1,2.014006e+00,NaN,1,0,3,1
12,364,2,87,16,1,1,1,1.882809e+00,NaN,1,1,2,1
12,365,2,19,42,2,1,0,1.796983e+00,NaN,1,0,1,1
12,366,2,34,1,2,2,1,1.354511e+00,NaN,1,0,1,1
12,367,2,107,22,1,1,1,9.537095e-01,NaN,1,0,3,1
12,368,2,17,65,2,1,0,1.409450e+00,NaN,1,0,1,1
12,369,2,132,20,2,2,1,2.014837e+00,NaN,1,0,3,1
12,370,2,44,8,2,1,0,1.547572e+00,NaN,1,0,1,1
12,371,2,68,5,2,2,1,8.831415e-01,NaN,1,1,2,1
12,372,3,105,15,2,2,1,1.201192e+00,NaN,1,0,3,1
12,373,3,83,2,2,2,1,4.707581e-01,NaN,1,0,2,1
12,374,3,126,39,1,1,1,2.233328e+00,NaN,1,0,3,1
12,375,3,79,21,1,1,1,1.069607e+00,NaN,1,1,2,1
12,376,3,11,56,1,1,1,1.480329e+00,NaN,1,1,1,1
12,377,3,25,29,2,2,1,2.002240e+00,NaN,1,0,1,1
12,378,3,97,19,2,2,1,1.583677e+00,NaN,1,0,3,1
12,379,3,87,16,1,2,0,1.901993e+00,NaN,1,1,2,1
12,380,3,101,41,1,1,1,1.215265e+00,NaN,1,0,3,1
12,381,3,44,8,1,1,1,1.244100e+00,NaN,1,0,1,1
12,382,3,107,22,2,2,1,1.112231e+00,NaN,1,0,3,1
12,383,3,29,69,1,1,1,1.336894e+00,NaN,1,0,1,1
12,384,3,131,52,2,2,1,6.970718e-01,NaN,1,1,3,1
12,385,3,132,20,2,2,1,1.226781e+00,NaN,1,0,3,1
12,386,3,75,48,1,1,1,6.472052e-01,NaN,1,1,2,1
12,387,3,61,33,2,2,1,9.546603e-01,NaN,1,1,2,1
12,388,3,17,65,2,2,1,2.114228e+00,NaN,1,0,1,1
12,389,3,55,27,2,2,1,1.491169e+00,NaN,1,1,2,1
12,390,3,68,5,1,1,1,1.029178e+00,NaN,1,1,2,1
12,391,3,34,1,2,2,1,1.153217e+00,NaN,1,0,1,1
12,392,3,122,68,1,1,1,9.848460e-01,NaN,1,0,3,1
12,393,3,56,24,1,1,1,1.038683e+00,NaN,1,0,2,1
12,394,3,19,42,1,2,0,2.426613e+00,NaN,1,0,1,1
12,395,3,106,31,2,2,1,1.447366e+00,NaN,1,0,3,1
12,420,2,119,46,2,2,1,1.556638e+00,NaN,1,0,3,2
12,421,2,43,70,1,1,1,2.132341e+00,NaN,1,0,1,2
12,422,2,48,9,2,2,1,2.932182e+00,NaN,1,0,1,2
12,423,2,4,58,2,2,1,8.681209e-01,NaN,1,0,1,2
12,424,2,30,55,1,1,1,1.511131e+00,NaN,1,1,1,2
12,425,2,130,50,2,2,1,9.287350e-01,NaN,1,0,3,2
12,426,2,28,32,1,1,1,1.112201e+00,NaN,1,0,1,2
12,427,2,77,17,1,1,1,6.652114e-01,NaN,1,0,2,2
12,428,2,33,51,2,2,1,1.460094e+00,NaN,1,0,1,2
12,429,2,134,45,1,1,1,1.143524e+00,NaN,1,1,3,2
12,430,2,102,40,2,2,1,8.878217e-01,NaN,1,0,3,2
12,431,2,85,37,2,2,1,5.613426e-01,NaN,1,1,2,2
12,432,2,110,59,2,2,1,8.884463e-01,NaN,1,0,3,2
12,433,2,140,35,2,2,1,1.106409e+00,NaN,1,0,3,2
12,434,2,67,18,2,2,1,1.179813e+00,NaN,1,1,2,2
12,435,2,36,3,2,2,1,1.097941e+00,NaN,1,0,1,2
12,436,2,137,30,2,2,1,6.837712e-01,NaN,1,1,3,2
12,437,2,113,67,1,1,1,1.149687e+00,NaN,1,0,3,2
12,438,2,38,4,1,1,1,7.729262e-01,NaN,1,1,1,2
12,439,2,60,6,2,2,1,2.771622e+00,NaN,1,0,2,2
12,440,2,127,66,1,1,1,2.042696e+00,NaN,1,0,3,2
12,441,2,103,57,2,2,1,1.118607e+00,NaN,1,0,3,2
12,442,2,90,44,1,1,1,2.111308e+00,NaN,1,0,2,2
12,443,2,20,14,1,2,0,2.376757e+00,NaN,1,1,1,2
12,444,3,38,4,2,2,1,1.003619e+00,NaN,1,1,1,2
12,445,3,48,9,1,1,1,1.817262e+00,NaN,1,0,1,2
12,446,3,4,58,2,2,1,7.498328e-01,NaN,1,0,1,2
12,447,3,127,66,2,2,1,8.132994e-01,NaN,1,0,3,2
12,448,3,28,32,2,2,1,7.064797e-01,NaN,1,0,1,2
12,449,3,134,45,1,1,1,9.717006e-01,NaN,1,1,3,2
12,450,3,30,55,1,1,1,1.178306e+00,NaN,1,1,1,2
12,451,3,137,30,2,2,1,5.928667e-01,NaN,1,1,3,2
12,452,3,33,51,2,2,1,2.086881e+00,NaN,1,0,1,2
12,453,3,67,18,1,1,1,5.531343e-01,NaN,1,1,2,2
12,454,3,90,44,2,2,1,1.376724e+00,NaN,1,0,2,2
12,455,3,140,35,2,2,1,8.471699e-01,NaN,1,0,3,2
12,456,3,102,40,1,1,1,1.754709e+00,NaN,1,0,3,2
12,457,3,20,14,1,1,1,8.903498e-01,NaN,1,1,1,2
12,458,3,130,50,2,2,1,8.201739e-01,NaN,1,0,3,2
12,459,3,119,46,1,1,1,9.770507e-01,NaN,1,0,3,2
12,460,3,113,67,1,1,1,6.157653e-01,NaN,1,0,3,2
12,461,3,77,17,1,1,1,6.606610e-01,NaN,1,0,2,2
12,462,3,85,37,2,2,1,5.443736e-01,NaN,1,1,2,2
12,463,3,110,59,1,1,1,8.641428e-01,NaN,1,0,3,2
12,464,3,60,6,1,1,1,6.508402e-01,NaN,1,0,2,2
12,465,3,43,70,2,2,1,2.070521e+00,NaN,1,0,1,2
12,466,3,103,57,2,2,1,7.453078e-01,NaN,1,0,3,2
12,467,3,36,3,1,1,1,1.032553e+00,NaN,1,0,1,2
12,492,2,64,62,2,2,1,8.157339e-01,NaN,1,0,2,3
12,493,2,49,54,2,2,1,1.172500e+00,NaN,1,0,2,3
12,494,2,7,61,1,1,1,1.691139e+00,NaN,1,0,1,3
12,495,2,13,34,1,2,0,2.004993e+00,NaN,1,1,1,3
12,496,2,73,47,2,1,0,1.242601e+00,NaN,1,0,2,3
12,497,2,41,36,1,1,1,9.584800e-01,NaN,1,1,1,3
12,498,2,81,7,2,2,1,2.471026e+00,NaN,1,0,2,3
12,499,2,14,63,1,1,1,1.176971e+00,NaN,1,0,1,3
12,500,2,51,72,1,1,1,5.435353e-01,NaN,1,0,2,3
12,501,2,125,64,2,2,1,1.327738e+00,NaN,1,0,3,3
12,502,2,99,12,1,1,1,1.224884e+00,NaN,1,0,3,3
12,503,2,98,11,1,1,1,1.053160e+00,NaN,1,0,3,3
12,504,2,40,38,1,1,1,7.767268e-01,NaN,1,0,1,3
12,505,2,57,10,1,1,1,1.239215e+00,NaN,1,1,2,3
12,506,2,3,26,1,1,1,1.019808e+00,NaN,1,0,1,3
12,507,2,15,49,1,1,1,1.144367e+00,NaN,1,0,1,3
12,508,2,8,23,2,2,1,1.984547e+00,NaN,1,0,1,3
12,509,2,86,53,1,2,0,1.614710e+00,NaN,1,0,2,3
12,510,2,129,25,2,2,1,1.611291e+00,NaN,1,0,3,3
12,511,2,70,43,2,2,1,1.416659e+00,NaN,1,0,2,3
12,512,2,120,71,2,2,1,1.157693e+00,NaN,1,0,3,3
12,513,2,95,13,2,2,1,8.457801e-01,NaN,1,0,2,3
12,514,2,94,60,1,1,1,3.208272e+00,NaN,1,0,2,3
12,515,2,76,28,2,2,1,6.219304e-01,NaN,1,0,2,3
12,516,3,120,71,2,2,1,7.987679e-01,NaN,1,0,3,3
12,517,3,8,23,1,1,1,5.483565e-01,NaN,1,0,1,3
12,518,3,125,64,1,1,1,1.283434e+00,NaN,1,0,3,3
12,519,3,76,28,1,1,1,4.777940e-01,NaN,1,0,2,3
12,520,3,7,61,2,2,1,6.644553e-01,NaN,1,0,1,3
12,521,3,98,11,2,1,0,8.032054e-01,NaN,1,0,3,3
12,522,3,3,26,2,2,1,1.544227e+00,NaN,1,0,1,3
12,523,3,14,63,1,1,1,1.232904e+00,NaN,1,0,1,3
12,524,3,95,13,1,1,1,4.686849e-01,NaN,1,0,2,3
12,525,3,41,36,1,1,1,4.153313e-01,NaN,1,1,1,3
12,526,3,40,38,1,1,1,6.199931e-01,NaN,1,0,1,3
12,527,3,86,53,1,1,1,4.247594e-01,NaN,1,0,2,3
12,528,3,51,72,1,1,1,4.535934e-01,NaN,1,0,2,3
12,529,3,81,7,1,1,1,1.280983e+00,NaN,1,0,2,3
12,530,3,129,25,2,2,1,9.555475e-01,NaN,1,0,3,3
12,531,3,70,43,2,2,1,5.386927e-01,NaN,1,0,2,3
12,532,3,57,10,1,1,1,5.708262e-01,NaN,1,1,2,3
12,533,3,94,60,1,1,1,1.705473e+00,NaN,1,0,2,3
12,534,3,73,47,2,1,0,1.499135e+00,NaN,1,0,2,3
12,535,3,15,49,2,2,1,1.868192e+00,NaN,1,0,1,3
12,536,3,49,54,2,2,1,6.230394e-01,NaN,1,0,2,3
12,537,3,99,12,1,1,1,1.251813e+00,NaN,1,0,3,3
12,538,3,13,34,1,2,0,1.383701e+00,NaN,1,1,1,3
12,539,3,64,62,1,1,1,7.093307e-01,NaN,1,0,2,3
12,564,4,16,30,2,2,1,1.884065e+00,NaN,2,1,1,1
12,565,4,111,7,2,2,1,7.504468e-01,NaN,2,0,3,1
12,566,4,45,16,2,2,1,9.979082e-01,NaN,2,1,1,1
12,567,4,123,61,1,1,1,2.019075e+00,NaN,2,0,3,1
12,568,4,144,69,1,1,1,4.476173e-01,NaN,2,0,3,1
12,569,4,62,71,1,2,0,7.634169e-01,NaN,2,0,2,1
12,570,4,54,67,1,2,0,1.106066e+00,NaN,2,0,2,1
12,571,4,136,51,2,1,0,9.794323e-01,NaN,2,0,3,1
12,572,4,121,62,1,0,0,3.499779e+00,NaN,2,0,3,1
12,573,4,46,43,2,2,1,9.069991e-01,NaN,2,0,1,1
12,574,4,66,15,1,1,1,8.207616e-01,NaN,2,0,2,1
12,575,4,63,41,2,2,1,1.601286e+00,NaN,2,0,2,1
12,576,4,2,25,2,2,1,3.270762e+00,NaN,2,0,1,1
12,577,4,52,46,2,2,1,6.338053e-01,NaN,2,0,2,1
12,578,4,117,37,1,1,1,1.637442e+00,NaN,2,1,3,1
12,579,4,65,40,1,1,1,1.377956e+00,NaN,2,0,2,1
12,580,4,71,64,1,1,1,7.761319e-01,NaN,2,0,2,1
12,581,4,135,63,1,1,1,5.110812e-01,NaN,2,0,3,1
12,582,4,89,36,2,1,0,1.056799e+00,NaN,2,1,2,1
12,583,4,35,44,1,1,1,1.444285e+00,NaN,2,0,1,1
12,584,4,115,13,1,1,1,1.328352e+00,NaN,2,0,3,1
12,585,4,91,8,1,1,1,1.408850e+00,NaN,2,0,2,1
12,586,4,22,66,2,2,1,1.398440e+00,NaN,2,0,1,1
12,587,4,69,52,1,1,1,8.198482e-01,NaN,2,1,2,1
12,612,4,26,10,2,2,1,1.061239e+00,NaN,2,1,1,2
12,613,4,124,55,1,2,0,1.728345e+00,NaN,2,1,3,2
12,614,4,139,26,2,1,0,1.056762e+00,NaN,2,0,3,2
12,615,4,78,34,2,2,1,7.237714e-01,NaN,2,1,2,2
12,616,4,128,38,1,1,1,9.323693e-01,NaN,2,0,3,2
12,617,4,39,60,1,1,1,1.700596e+00,NaN,2,0,1,2
12,618,4,31,33,1,1,1,2.318170e+00,NaN,2,1,1,2
12,619,4,47,18,2,2,1,1.230774e+00,NaN,2,1,1,2
12,620,4,82,49,1,1,1,1.155001e+00,NaN,2,0,2,2
12,621,4,143,1,2,2,1,1.489907e+00,NaN,2,0,3,2
12,622,4,74,23,2,1,0,1.268618e+00,NaN,2,0,2,2
12,623,4,84,56,2,2,1,7.669262e-01,NaN,2,1,2,2
12,624,4,116,6,1,1,1,2.742182e+00,NaN,2,0,3,2
12,625,4,142,32,2,2,1,1.725889e+00,NaN,2,0,3,2
12,626,4,118,27,2,2,1,1.734936e+00,NaN,2,1,3,2
12,627,4,10,45,1,1,1,1.230781e+00,NaN,2,1,1,2
12,628,4,27,53,1,1,1,2.571324e+00,NaN,2,0,1,2
12,629,4,37,17,2,2,1,2.649696e+00,NaN,2,0,1,2
12,630,4,141,65,1,1,1,1.517517e+00,NaN,2,0,3,2
12,631,4,114,2,2,2,1,1.237811e+00,NaN,2,0,3,2
12,632,4,96,14,1,1,1,1.242107e+00,NaN,2,1,2,2
12,633,4,92,3,1,1,1,6.945127e-01,NaN,2,0,2,2
12,634,4,80,70,1,1,1,9.521350e-01,NaN,2,0,2,2
12,635,4,18,31,2,2,1,1.127688e+00,NaN,2,0,1,2
12,660,4,12,39,1,1,1,3.213760e+00,NaN,2,0,1,3
12,661,4,133,29,1,1,1,1.162721e+00,NaN,2,0,3,3
12,662,4,32,47,1,1,1,1.505887e+00,NaN,2,0,1,3
12,663,4,72,42,2,2,1,1.082937e+00,NaN,2,0,2,3
12,664,4,108,72,1,1,1,1.397006e+00,NaN,2,0,3,3
12,665,4,6,68,1,1,1,1.314498e+00,NaN,2,0,1,3
12,666,4,138,58,1,2,0,2.003270e+00,NaN,2,0,3,3
12,667,4,112,48,1,1,1,1.256739e+00,NaN,2,1,3,3
12,668,4,24,5,2,2,1,1.516394e+00,NaN,2,1,1,3
12,669,4,9,20,1,1,1,1.021071e+00,NaN,2,0,1,3
12,670,4,53,50,1,1,1,9.378305e-01,NaN,2,0,2,3
12,671,4,58,57,2,1,0,1.369723e+00,NaN,2,0,2,3
12,672,4,1,22,1,1,1,1.736621e+00,NaN,2,0,1,3
12,673,4,21,35,2,2,1,8.328080e-01,NaN,2,0,1,3
12,674,4,59,12,1,1,1,1.124942e+00,NaN,2,0,2,3
12,675,4,5,19,2,2,1,1.141659e+00,NaN,2,0,1,3
12,676,4,104,28,2,2,1,7.735441e-01,NaN,2,0,3,3
12,677,4,88,4,1,1,1,8.766344e-01,NaN,2,1,2,3
12,678,4,42,54,1,1,1,2.407165e+00,NaN,2,0,1,3
12,679,4,23,11,2,1,0,1.324597e+00,NaN,2,0,1,3
12,680,4,50,59,2,2,1,1.349424e+00,NaN,2,0,2,3
12,681,4,109,24,2,2,1,7.726491e-01,NaN,2,0,3,3
12,682,4,93,9,1,1,1,1.019843e+00,NaN,2,0,2,3
12,683,4,100,21,1,1,1,1.184285e+00,NaN,2,1,3,3
12,684,5,9.035000e+01,44,2,0,0,2.500289e+00,1,1,0,2.100000e+00,1
12,685,5,1.261200e+02,39,3,3,1,3.128507e-01,1,1,0,3.100000e+00,1
12,686,5,7.737000e+01,17,2,2,1,5.380679e-01,1,1,0,2.100000e+00,1
12,687,5,1.535000e+01,63,1,1,1,3.559799e-01,1,1,0,1.300000e+00,1
12,688,5,8.230000e+00,61,1,1,1,3.093676e-01,1,1,0,1.300000e+00,1
12,689,5,9.439000e+01,60,2,2,1,4.872459e-01,1,1,0,2.100000e+00,1
12,690,5,8.211000e+01,7,2,2,1,3.686312e-01,1,1,0,2.300000e+00,1
12,691,5,3.543000e+01,1,1,3,0,5.541355e-01,1,1,0,1.300000e+00,1
12,692,5,9.439000e+01,60,2,2,1,3.153833e-01,2,1,0,2.100000e+00,1
12,693,5,4.390000e+00,26,1,1,1,3.007606e-01,1,1,0,1.300000e+00,1
12,694,5,1.056600e+02,15,3,2,0,3.024368e-01,1,1,0,3.200000e+00,1
12,695,5,1.272200e+02,66,3,3,1,2.877048e-01,1,1,0,3.100000e+00,1
12,696,5,1.972000e+01,42,1,1,1,4.091599e-01,1,1,0,1.200000e+00,1
12,697,5,8.740000e+00,23,1,1,1,3.391971e-01,1,1,0,1.200000e+00,1
12,698,5,1.305300e+02,50,3,4,0,4.766249e-01,1,1,0,3.200000e+00,1
12,699,5,9.823000e+01,11,3,2,0,6.946727e-01,1,1,0,3.100000e+00,1
12,700,5,7.332000e+01,47,2,2,1,3.121486e-01,1,1,0,2.100000e+00,1
12,701,5,1.272200e+02,66,3,3,1,3.855670e-01,2,1,0,3.100000e+00,1
12,702,5,3.436000e+01,51,1,1,1,1.066725e+00,1,1,0,1.300000e+00,1
12,703,5,7.332000e+01,47,2,3,0,3.483895e-01,2,1,0,2.100000e+00,1
12,704,5,1.841000e+01,65,1,1,1,5.098116e-01,1,1,0,1.300000e+00,1
12,705,5,1.206200e+02,71,3,3,1,4.400194e-01,1,1,0,3.200000e+00,1
12,706,5,1.257100e+02,64,3,3,1,3.130279e-01,1,1,0,3.200000e+00,1
12,707,5,1.290200e+02,25,3,4,0,4.587609e-01,1,1,0,3.100000e+00,1
12,708,5,1.841000e+01,65,1,1,1,2.687447e-01,2,1,0,1.300000e+00,1
12,709,5,1.135400e+02,67,3,1,0,2.863513e-01,1,1,0,3.200000e+00,1
12,710,5,2.633000e+01,29,1,1,1,3.279540e-01,1,1,0,1.300000e+00,1
12,711,5,8.414000e+01,2,2,1,0,3.140551e-01,1,1,0,2.300000e+00,1
12,712,5,9.705000e+01,19,3,3,1,3.070135e-01,1,1,0,3.100000e+00,1
12,713,5,9.439000e+01,60,2,2,1,2.927101e-01,3,1,0,2.100000e+00,1
12,714,5,9.615000e+01,13,2,2,1,3.184613e-01,1,1,0,2.300000e+00,1
12,715,5,1.582000e+01,49,1,1,1,2.879756e-01,1,1,0,1.200000e+00,1
12,716,5,3.543000e+01,1,1,3,0,5.782540e-01,2,1,0,1.300000e+00,1
12,717,5,1.582000e+01,49,1,1,1,3.551525e-01,2,1,0,1.200000e+00,1
12,718,5,1.105000e+02,59,3,3,1,7.562838e-01,1,1,0,3.200000e+00,1
12,719,5,5.709000e+01,24,2,2,1,3.980722e-01,1,1,0,2.300000e+00,1
12,720,5,1.272200e+02,66,3,3,1,2.792399e-01,3,1,0,3.100000e+00,1
12,721,5,9.959000e+01,12,3,3,1,2.887559e-01,1,1,0,3.200000e+00,1
12,722,5,5.380000e+00,58,1,1,1,4.346144e-01,1,1,0,1.300000e+00,1
12,723,5,8.230000e+00,61,1,1,1,2.597115e-01,2,1,0,1.300000e+00,1
12,724,5,1.320900e+02,20,3,3,1,2.537592e-01,1,1,0,3.100000e+00,1
12,725,5,1.257100e+02,64,3,3,1,3.272434e-01,2,1,0,3.200000e+00,1
12,726,5,1.056600e+02,15,3,2,0,3.773521e-01,2,1,0,3.200000e+00,1
12,727,5,4.380000e+01,70,1,1,1,2.824402e-01,1,1,0,1.200000e+00,1
12,728,5,1.035800e+02,57,3,3,1,1.596093e+00,1,1,0,3.200000e+00,1
12,729,5,1.535000e+01,63,1,1,1,3.982998e-01,2,1,0,1.300000e+00,1
12,730,5,6.521000e+01,62,2,1,0,2.795644e-01,1,1,0,2.300000e+00,1
12,731,5,4.942000e+01,54,2,2,1,3.051360e-01,1,1,0,2.100000e+00,1
12,732,5,3.692000e+01,3,1,1,1,3.223277e-01,1,1,0,1.200000e+00,1
12,733,5,9.959000e+01,12,3,3,1,3.078867e-01,2,1,0,3.200000e+00,1
12,734,5,7.332000e+01,47,2,2,1,5.172426e-01,3,1,0,2.100000e+00,1
12,735,5,9.035000e+01,44,2,1,0,4.146848e-01,2,1,0,2.100000e+00,1
12,736,5,6.116000e+01,6,2,2,1,3.200684e-01,1,1,0,2.300000e+00,1
12,737,5,1.061800e+02,31,3,3,1,2.816348e-01,1,1,0,3.100000e+00,1
12,738,5,8.740000e+00,23,1,1,1,2.665376e-01,2,1,0,1.200000e+00,1
12,739,5,5.380000e+00,58,1,1,1,2.600179e-01,2,1,0,1.300000e+00,1
12,740,5,8.230000e+00,61,1,1,1,2.700599e-01,3,1,0,1.300000e+00,1
12,741,5,1.135400e+02,67,3,1,0,1.751587e+00,2,1,0,3.200000e+00,1
12,742,5,8.627000e+01,53,2,1,0,7.937399e-01,1,1,0,2.100000e+00,1
12,743,5,7.704000e+01,28,2,2,1,4.761458e-01,1,1,0,2.300000e+00,1
12,744,5,1.305300e+02,50,3,3,1,2.941971e-01,2,1,0,3.200000e+00,1
12,745,5,3.543000e+01,1,1,2,0,3.040251e-01,3,1,0,1.300000e+00,1
12,746,5,2.942000e+01,32,1,1,1,3.295855e-01,1,1,0,1.300000e+00,1
12,747,5,4.942000e+01,54,2,2,1,7.868444e-01,2,1,0,2.100000e+00,1
12,748,5,1.841000e+01,65,1,1,1,3.166930e-01,3,1,0,1.300000e+00,1
12,749,5,9.705000e+01,19,3,3,1,2.700095e-01,2,1,0,3.100000e+00,1
12,750,5,7.046000e+01,43,2,2,1,7.435531e-01,1,1,0,2.100000e+00,1
12,751,5,3.436000e+01,51,1,0,0,2.500314e+00,2,1,0,1.300000e+00,1
12,752,5,1.195200e+02,46,3,3,1,2.678769e-01,1,1,0,3.200000e+00,1
12,753,5,9.439000e+01,60,2,2,1,2.928855e-01,4,1,0,2.100000e+00,1
12,754,5,1.261200e+02,39,3,3,1,3.825868e-01,2,1,0,3.100000e+00,1
12,755,5,4.942000e+01,54,2,2,1,4.086081e-01,3,1,0,2.100000e+00,1
12,756,5,9.615000e+01,13,2,0,0,2.500313e+00,2,1,0,2.300000e+00,1
12,757,5,1.972000e+01,42,1,1,1,3.327888e-01,2,1,0,1.200000e+00,1
12,758,5,4.128000e+01,38,1,0,0,2.500197e+00,1,1,0,1.300000e+00,1
12,759,5,4.380000e+01,70,1,1,1,2.880706e-01,2,1,0,1.200000e+00,1
12,760,5,7.046000e+01,43,2,1,0,4.176100e-01,2,1,0,2.100000e+00,1
12,761,5,7.704000e+01,28,2,2,1,3.869145e-01,2,1,0,2.300000e+00,1
12,762,5,3.436000e+01,51,1,1,1,2.841130e-01,3,1,0,1.300000e+00,1
12,763,5,1.972000e+01,42,1,1,1,3.339479e-01,3,1,0,1.200000e+00,1
12,764,5,5.380000e+00,58,1,1,1,4.150087e-01,3,1,0,1.300000e+00,1
12,765,5,1.135400e+02,67,3,1,0,4.644783e-01,3,1,0,3.200000e+00,1
12,766,5,4.491000e+01,8,1,1,1,3.699938e-01,1,1,0,1.200000e+00,1
12,767,5,1.290200e+02,25,3,3,1,2.997464e-01,2,1,0,3.100000e+00,1
12,768,5,4.491000e+01,8,1,1,1,8.844859e-01,2,1,0,1.200000e+00,1
12,769,5,3.044000e+01,69,1,1,1,3.904731e-01,1,1,0,1.300000e+00,1
12,770,5,5.208000e+01,72,2,2,1,3.358408e-01,1,1,0,2.300000e+00,1
12,771,5,1.016300e+02,41,3,3,1,1.808995e+00,1,1,0,3.200000e+00,1
12,772,5,4.491000e+01,8,1,1,1,3.311956e-01,3,1,0,1.200000e+00,1
12,773,5,6.116000e+01,6,2,2,1,2.845954e-01,2,1,0,2.300000e+00,1
12,774,5,9.705000e+01,19,3,3,1,3.579652e-01,3,1,0,3.100000e+00,1
12,775,5,1.290200e+02,25,3,3,1,2.793576e-01,3,1,0,3.100000e+00,1
12,776,5,8.740000e+00,23,1,1,1,3.527256e-01,3,1,0,1.200000e+00,1
12,777,5,1.016300e+02,41,3,3,1,4.342790e-01,2,1,0,3.200000e+00,1
12,778,5,1.056600e+02,15,3,3,1,3.556660e-01,3,1,0,3.200000e+00,1
12,779,5,1.070100e+02,22,3,1,0,8.850338e-01,1,1,0,3.100000e+00,1
12,780,5,7.046000e+01,43,2,2,1,1.678260e+00,3,1,0,2.100000e+00,1
12,781,5,1.035800e+02,57,3,1,0,5.365604e-01,2,1,0,3.200000e+00,1
12,782,5,1.220600e+02,68,3,1,0,4.182258e-01,1,1,0,3.100000e+00,1
12,783,5,3.692000e+01,3,1,1,1,2.353585e-01,2,1,0,1.200000e+00,1
12,784,5,7.737000e+01,17,2,2,1,2.447733e-01,2,1,0,2.100000e+00,1
12,785,5,9.959000e+01,12,3,3,1,1.278718e+00,3,1,0,3.200000e+00,1
12,786,5,1.195200e+02,46,3,3,1,6.320289e-01,2,1,0,3.200000e+00,1
12,787,5,2.942000e+01,32,1,1,1,2.329805e-01,2,1,0,1.300000e+00,1
12,788,5,1.061800e+02,31,3,3,1,1.538325e+00,2,1,0,3.100000e+00,1
12,789,5,1.026500e+02,40,3,3,1,3.649836e-01,1,1,0,3.200000e+00,1
12,790,5,4.128000e+01,38,1,1,1,1.446321e+00,2,1,0,1.300000e+00,1
12,791,5,1.305300e+02,50,3,3,1,2.796420e-01,3,1,0,3.200000e+00,1
12,792,5,1.290200e+02,25,3,3,1,3.686756e-01,4,1,0,3.100000e+00,1
12,793,5,8.230000e+00,61,1,1,1,1.866984e-01,4,1,0,1.300000e+00,1
12,794,5,4.893000e+01,9,1,1,1,3.076048e-01,1,1,0,1.200000e+00,1
12,795,5,1.402100e+02,35,3,3,1,4.536535e-01,1,1,0,3.100000e+00,1
12,796,5,9.035000e+01,44,2,2,1,4.465925e-01,3,1,0,2.100000e+00,1
12,797,5,1.535000e+01,63,1,1,1,2.718572e-01,3,1,0,1.300000e+00,1
12,798,5,3.692000e+01,3,1,1,1,3.054976e-01,3,1,0,1.200000e+00,1
12,799,5,8.211000e+01,7,2,2,1,2.826922e-01,2,1,0,2.300000e+00,1
12,800,5,1.070100e+02,22,3,3,1,3.645526e-01,2,1,0,3.100000e+00,1
12,801,5,1.061800e+02,31,3,3,1,3.496220e-01,3,1,0,3.100000e+00,1
12,802,5,1.035800e+02,57,3,3,1,3.110695e-01,3,1,0,3.200000e+00,1
12,803,5,1.135400e+02,67,3,1,0,5.300419e-01,4,1,0,3.200000e+00,1
12,804,5,1.195200e+02,46,3,3,1,1.610406e+00,3,1,0,3.200000e+00,1
12,805,5,1.257100e+02,64,3,3,1,2.686071e-01,3,1,0,3.200000e+00,1
12,806,5,4.491000e+01,8,1,1,1,1.238247e+00,4,1,0,1.200000e+00,1
12,807,5,1.261200e+02,39,3,3,1,3.678343e-01,3,1,0,3.100000e+00,1
12,808,5,1.026500e+02,40,3,3,1,3.530103e-01,2,1,0,3.200000e+00,1
12,809,5,5.208000e+01,72,2,2,1,2.585792e-01,2,1,0,2.300000e+00,1
12,810,5,4.893000e+01,9,1,2,0,1.476216e+00,2,1,0,1.200000e+00,1
12,811,5,1.070100e+02,22,3,3,1,3.268610e-01,3,1,0,3.100000e+00,1
12,812,5,1.402100e+02,35,3,3,1,2.805862e-01,2,1,0,3.100000e+00,1
12,813,5,4.893000e+01,9,1,1,1,2.578517e-01,3,1,0,1.200000e+00,1
12,814,5,1.320900e+02,20,3,3,1,3.314449e-01,2,1,0,3.100000e+00,1
12,815,5,9.959000e+01,12,3,3,1,3.567967e-01,4,1,0,3.200000e+00,1
12,816,5,1.305300e+02,50,3,3,1,3.824815e-01,4,1,0,3.200000e+00,1
12,817,5,5.380000e+00,58,1,1,1,3.276491e-01,4,1,0,1.300000e+00,1
12,818,5,1.261200e+02,39,3,3,1,4.026634e-01,4,1,0,3.100000e+00,1
12,819,5,4.942000e+01,54,2,2,1,2.915836e-01,4,1,0,2.100000e+00,1
12,820,5,4.390000e+00,26,1,1,1,2.286625e-01,2,1,0,1.300000e+00,1
12,821,5,2.942000e+01,32,1,1,1,3.181066e-01,3,1,0,1.300000e+00,1
12,822,5,1.535000e+01,63,1,1,1,3.114613e-01,4,1,0,1.300000e+00,1
12,823,5,1.105000e+02,59,3,3,1,7.449603e-01,2,1,0,3.200000e+00,1
12,824,5,5.709000e+01,24,2,2,1,3.143995e-01,2,1,0,2.300000e+00,1
12,825,5,9.705000e+01,19,3,3,1,2.758024e-01,4,1,0,3.100000e+00,1
12,826,5,9.823000e+01,11,3,3,1,3.497002e-01,2,1,0,3.100000e+00,1
12,827,5,3.436000e+01,51,1,1,1,2.875665e-01,4,1,0,1.300000e+00,1
12,828,5,1.035800e+02,57,3,3,1,4.008753e-01,4,1,0,3.200000e+00,1
12,829,5,1.582000e+01,49,1,1,1,3.784348e-01,3,1,0,1.200000e+00,1
12,830,5,1.026500e+02,40,3,3,1,2.197086e-01,3,1,0,3.200000e+00,1
12,831,5,5.709000e+01,24,2,2,1,6.119122e-02,3,1,0,2.300000e+00,1
12,832,5,6.116000e+01,6,2,2,1,1.522219e-02,3,1,0,2.300000e+00,1
12,833,5,8.627000e+01,53,2,1,0,1.391546e-04,2,1,0,2.100000e+00,1
12,834,5,1.206200e+02,71,3,3,1,3.303033e-01,2,1,0,3.200000e+00,1
12,835,5,6.521000e+01,62,2,2,1,4.346032e-02,2,1,0,2.300000e+00,1
12,836,5,5.208000e+01,72,2,2,1,1.439843e-04,3,1,0,2.300000e+00,1
12,837,5,8.414000e+01,2,2,2,1,1.473047e-04,2,1,0,2.300000e+00,1
12,838,5,1.056600e+02,15,3,3,1,1.046102e-01,4,1,0,3.200000e+00,1
12,839,5,3.543000e+01,1,1,1,1,1.476066e-04,4,1,0,1.300000e+00,1
12,840,5,7.704000e+01,28,2,2,1,1.427769e-04,3,1,0,2.300000e+00,1
12,841,5,9.615000e+01,13,2,2,1,4.482651e-02,3,1,0,2.300000e+00,1
12,842,5,8.740000e+00,23,1,1,1,1.978990e-01,4,1,0,1.200000e+00,1
12,843,5,8.414000e+01,2,2,2,1,1.482103e-04,3,1,0,2.300000e+00,1
12,844,5,1.320900e+02,20,3,3,1,1.450686e-01,3,1,0,3.100000e+00,1
12,845,5,1.105000e+02,59,3,3,1,1.142789e-01,3,1,0,3.200000e+00,1
12,846,5,9.823000e+01,11,3,3,1,1.156227e-01,3,1,0,3.100000e+00,1
12,847,5,9.823000e+01,11,3,3,1,1.338058e-02,4,1,0,3.100000e+00,1
12,848,5,7.332000e+01,47,2,3,0,2.868850e-01,4,1,0,2.100000e+00,1
12,849,5,4.128000e+01,38,1,1,1,2.642501e-01,3,1,0,1.300000e+00,1
12,850,5,5.709000e+01,24,2,0,0,2.500136e+00,4,1,0,2.300000e+00,1
12,851,5,2.633000e+01,29,1,1,1,7.538499e-02,2,1,0,1.300000e+00,1
12,852,5,4.390000e+00,26,1,1,1,2.457571e-01,3,1,0,1.300000e+00,1
12,853,5,1.320900e+02,20,3,3,1,1.415695e-04,4,1,0,3.100000e+00,1
12,854,5,8.414000e+01,2,2,3,0,7.764681e-01,4,1,0,2.300000e+00,1
12,855,5,4.390000e+00,26,1,1,1,1.463991e-04,4,1,0,1.300000e+00,1
12,856,5,6.116000e+01,6,2,2,1,1.557566e-04,4,1,0,2.300000e+00,1
12,857,5,4.128000e+01,38,1,1,1,1.894927e-01,4,1,0,1.300000e+00,1
12,858,5,9.035000e+01,44,2,2,1,1.421732e-04,4,1,0,2.100000e+00,1
12,859,5,3.692000e+01,3,1,1,1,8.852862e-02,4,1,0,1.200000e+00,1
12,860,5,2.633000e+01,29,1,1,1,3.345175e-02,3,1,0,1.300000e+00,1
12,861,5,1.220600e+02,68,3,3,1,6.720234e-02,2,1,0,3.100000e+00,1
12,862,5,1.972000e+01,42,1,1,1,2.841230e-02,4,1,0,1.200000e+00,1
12,863,5,7.737000e+01,17,2,2,1,1.500202e-01,3,1,0,2.100000e+00,1
12,864,5,2.942000e+01,32,1,1,1,2.791312e-01,4,1,0,1.300000e+00,1
12,865,5,1.070100e+02,22,3,3,1,3.529393e-01,4,1,0,3.100000e+00,1
12,866,5,9.615000e+01,13,2,2,1,2.260526e-01,4,1,0,2.300000e+00,1
12,867,5,1.272200e+02,66,3,3,1,1.801081e-01,4,1,0,3.100000e+00,1
12,868,5,1.220600e+02,68,3,3,1,2.615881e-01,3,1,0,3.100000e+00,1
12,869,5,3.044000e+01,69,1,1,1,1.828580e-01,2,1,0,1.300000e+00,1
12,870,5,1.257100e+02,64,3,3,1,3.204333e-01,4,1,0,3.200000e+00,1
12,871,5,3.044000e+01,69,1,1,1,3.543143e-01,3,1,0,1.300000e+00,1
12,872,5,5.208000e+01,72,2,2,1,2.912504e-01,4,1,0,2.300000e+00,1
12,873,5,8.627000e+01,53,2,2,1,1.439843e-04,3,1,0,2.100000e+00,1
12,874,5,7.737000e+01,17,2,2,1,3.104453e-01,4,1,0,2.100000e+00,1
12,875,5,1.402100e+02,35,3,3,1,1.439843e-04,3,1,0,3.100000e+00,1
12,876,5,1.195200e+02,46,3,3,1,2.258024e-01,4,1,0,3.200000e+00,1
12,877,5,3.044000e+01,69,1,1,1,1.403621e-04,4,1,0,1.300000e+00,1
12,878,5,1.402100e+02,35,3,3,1,8.494652e-02,4,1,0,3.100000e+00,1
12,879,5,8.627000e+01,53,2,2,1,1.828066e-01,4,1,0,2.100000e+00,1
12,880,5,1.841000e+01,65,1,1,1,5.614120e-02,4,1,0,1.300000e+00,1
12,881,5,6.521000e+01,62,2,2,1,2.813544e-01,3,1,0,2.300000e+00,1
12,882,5,8.211000e+01,7,2,3,0,2.431343e-01,3,1,0,2.300000e+00,1
12,883,5,7.704000e+01,28,2,2,1,1.406639e-04,4,1,0,2.300000e+00,1
12,884,5,1.220600e+02,68,3,3,1,1.465410e-02,4,1,0,3.100000e+00,1
12,885,5,4.380000e+01,70,1,2,0,5.836873e-01,3,1,0,1.200000e+00,1
12,886,5,1.206200e+02,71,3,3,1,4.155109e-02,3,1,0,3.200000e+00,1
12,887,5,6.521000e+01,62,2,2,1,5.848902e-02,4,1,0,2.300000e+00,1
12,888,5,1.061800e+02,31,3,3,1,1.500214e-04,4,1,0,3.100000e+00,1
12,889,5,1.105000e+02,59,3,3,1,2.615054e-01,4,1,0,3.200000e+00,1
12,890,5,1.206200e+02,71,3,3,1,7.827615e-01,4,1,0,3.200000e+00,1
12,891,5,8.211000e+01,7,2,2,1,8.376446e-03,4,1,0,2.300000e+00,1
12,892,5,4.380000e+01,70,1,1,1,7.358896e-02,4,1,0,1.200000e+00,1
12,893,5,1.026500e+02,40,3,3,1,2.990865e-01,4,1,0,3.200000e+00,1
12,894,5,1.016300e+02,41,3,1,0,1.473047e-04,3,1,0,3.200000e+00,1
12,895,5,7.046000e+01,43,2,2,1,1.343199e-01,4,1,0,2.100000e+00,1
12,896,5,1.582000e+01,49,1,1,1,1.479454e+00,4,1,0,1.200000e+00,1
12,897,5,1.016300e+02,41,3,1,0,7.617983e-01,4,1,0,3.200000e+00,1
12,898,5,2.633000e+01,29,1,1,1,1.415695e-04,4,1,0,1.300000e+00,1
12,899,5,4.893000e+01,9,1,1,1,4.596181e-01,4,1,0,1.200000e+00,1
12,900,6,118,27,1,1,1,9.342327e-01,NaN,2,1,3,1
12,901,6,2,25,1,1,1,6.323175e-01,NaN,2,0,1,1
12,902,6,47,18,1,1,1,7.329305e-01,NaN,2,1,1,1
12,903,6,116,6,2,2,1,7.335804e-01,NaN,2,0,3,1
12,904,6,138,58,1,1,1,9.420247e-01,NaN,2,0,3,1
12,905,6,39,60,2,2,1,9.667864e-01,NaN,2,0,1,1
12,906,6,16,30,2,2,1,1.150601e+00,NaN,2,1,1,1
12,907,6,135,63,1,1,1,6.620969e-01,NaN,2,0,3,1
12,908,6,31,33,2,2,1,9.215690e-01,NaN,2,1,1,1
12,909,6,26,10,2,2,1,1.035290e+00,NaN,2,1,1,1
12,910,6,114,2,1,1,1,9.915925e-01,NaN,2,0,3,1
12,911,6,74,23,2,1,0,1.230239e+00,NaN,2,0,2,1
12,912,6,124,55,1,1,1,1.074957e+00,NaN,2,1,3,1
12,913,6,35,44,2,2,1,1.022405e+00,NaN,2,0,1,1
12,914,6,5,19,1,1,1,9.078739e-01,NaN,2,0,1,1
12,915,6,123,61,2,2,1,8.940502e-01,NaN,2,0,3,1
12,916,6,80,70,2,2,1,8.402625e-01,NaN,2,0,2,1
12,917,6,58,57,2,2,1,7.011432e-01,NaN,2,0,2,1
12,918,6,78,34,2,2,1,1.175021e+00,NaN,2,1,2,1
12,919,6,84,56,1,1,1,8.387868e-01,NaN,2,1,2,1
12,920,6,109,24,2,2,1,8.113724e-01,NaN,2,0,3,1
12,921,6,54,67,2,2,1,1.169066e+00,NaN,2,0,2,1
12,922,6,112,48,2,2,1,1.488568e+00,NaN,2,1,3,1
12,923,6,12,39,2,2,1,1.075363e+00,NaN,2,0,1,1
12,924,6,91,8,1,1,1,6.546556e-01,NaN,2,0,2,1
12,925,6,71,64,2,2,1,6.826652e-01,NaN,2,0,2,1
12,926,6,21,35,2,2,1,6.851836e-01,NaN,2,0,1,1
12,927,6,22,66,2,2,1,1.176105e+00,NaN,2,0,1,1
12,928,6,108,72,2,2,1,1.111539e+00,NaN,2,0,3,1
12,929,6,92,3,1,1,1,6.336330e-01,NaN,2,0,2,1
12,930,6,62,71,2,2,1,6.220940e-01,NaN,2,0,2,1
12,931,6,23,11,2,1,0,1.739442e+00,NaN,2,0,1,1
12,932,6,69,52,2,2,1,6.761014e-01,NaN,2,1,2,1
12,933,6,9,20,2,2,1,1.863326e+00,NaN,2,0,1,1
12,934,6,42,54,1,1,1,1.684062e+00,NaN,2,0,1,1
12,935,6,96,14,2,2,1,7.178016e-01,NaN,2,1,2,1
12,936,6,27,53,2,2,1,2.015571e+00,NaN,2,0,1,1
12,937,6,104,28,2,2,1,9.162238e-01,NaN,2,0,3,1
12,938,6,115,13,1,1,1,1.765711e+00,NaN,2,0,3,1
12,939,6,59,12,2,2,1,9.176310e-01,NaN,2,0,2,1
12,940,6,66,15,1,1,1,8.304188e-01,NaN,2,0,2,1
12,941,6,1,22,2,2,1,1.171438e+00,NaN,2,0,1,1
12,942,6,45,16,1,2,0,1.146704e+00,NaN,2,1,1,1
12,943,6,50,59,2,2,1,6.508151e-01,NaN,2,0,2,1
12,944,6,63,41,1,1,1,1.070594e+00,NaN,2,0,2,1
12,945,6,24,5,2,2,1,1.274405e+00,NaN,2,1,1,1
12,946,6,139,26,2,1,0,1.309449e+00,NaN,2,0,3,1
12,947,6,65,40,2,2,1,7.512501e-01,NaN,2,0,2,1
12,948,6,32,47,1,1,1,1.175298e+00,NaN,2,0,1,1
12,949,6,100,21,1,1,1,1.206916e+00,NaN,2,1,3,1
12,950,6,46,43,2,2,1,9.728138e-01,NaN,2,0,1,1
12,951,6,6,68,1,2,0,1.436167e+00,NaN,2,0,1,1
12,952,6,52,46,2,2,1,9.531387e-01,NaN,2,0,2,1
12,953,6,72,42,1,1,1,8.969513e-01,NaN,2,0,2,1
12,954,6,142,32,1,2,0,9.710477e-01,NaN,2,0,3,1
12,955,6,117,37,2,2,1,1.786380e+00,NaN,2,1,3,1
12,956,6,82,49,2,2,1,1.032796e+00,NaN,2,0,2,1
12,957,6,133,29,2,2,1,1.341422e+00,NaN,2,0,3,1
12,958,6,89,36,2,2,1,1.030563e+00,NaN,2,1,2,1
12,959,6,37,17,1,2,0,1.203316e+00,NaN,2,0,1,1
12,960,6,88,4,2,2,1,1.241033e+00,NaN,2,1,2,1
12,961,6,93,9,2,2,1,7.338210e-01,NaN,2,0,2,1
12,962,6,136,51,2,2,1,1.382375e+00,NaN,2,0,3,1
12,963,6,143,1,1,1,1,1.141245e+00,NaN,2,0,3,1
12,964,6,53,50,2,2,1,7.577776e-01,NaN,2,0,2,1
12,965,6,111,7,1,2,0,1.525726e+00,NaN,2,0,3,1
12,966,6,18,31,2,2,1,1.007356e+00,NaN,2,0,1,1
12,967,6,121,62,2,2,1,1.733188e+00,NaN,2,0,3,1
12,968,6,10,45,2,2,1,1.005809e+00,NaN,2,1,1,1
12,969,6,128,38,2,2,1,1.651753e+00,NaN,2,0,3,1
12,970,6,144,69,1,1,1,9.278400e-01,NaN,2,0,3,1
12,971,6,141,65,2,2,1,1.377609e+00,NaN,2,0,3,1
12,972,6,29,69,2,2,1,9.526376e-01,NaN,1,0,1,1
12,973,6,19,42,1,2,0,1.064703e+00,NaN,1,0,1,1
12,974,6,119,46,1,1,1,1.068441e+00,NaN,1,0,3,1
12,975,6,51,72,2,2,1,6.874149e-01,NaN,1,0,2,1
12,976,6,33,51,2,1,0,1.434056e+00,NaN,1,0,1,1
12,977,6,56,24,1,1,1,9.428859e-01,NaN,1,0,2,1
12,978,6,11,56,1,2,0,1.159843e+00,NaN,1,1,1,1
12,979,6,90,44,2,1,0,1.703510e+00,NaN,1,0,2,1
12,980,6,30,55,2,2,1,1.257860e+00,NaN,1,1,1,1
12,981,6,134,45,2,2,1,1.037564e+00,NaN,1,1,3,1
12,982,6,83,2,1,1,1,8.742410e-01,NaN,1,0,2,1
12,983,6,61,33,1,1,1,7.338171e-01,NaN,1,1,2,1
12,984,6,28,32,1,1,1,8.144109e-01,NaN,1,0,1,1
12,985,6,25,29,1,2,0,1.908001e+00,NaN,1,0,1,1
12,986,6,105,15,2,2,1,1.045696e+00,NaN,1,0,3,1
12,987,6,125,64,1,1,1,1.745695e+00,NaN,1,0,3,1
12,988,6,48,9,1,1,1,2.481831e+00,NaN,1,0,1,1
12,989,6,73,47,1,1,1,1.948538e+00,NaN,1,0,2,1
12,990,6,49,54,2,2,1,7.804701e-01,NaN,1,0,2,1
12,991,6,137,30,1,1,1,9.633531e-01,NaN,1,1,3,1
12,992,6,81,7,2,2,1,1.706933e+00,NaN,1,0,2,1
12,993,6,3,26,1,1,1,2.005053e+00,NaN,1,0,1,1
12,994,6,101,41,2,2,1,1.242654e+00,NaN,1,0,3,1
12,995,6,130,50,2,2,1,2.503445e+00,NaN,1,0,3,1
12,996,6,127,66,1,1,1,1.281756e+00,NaN,1,0,3,1
12,997,6,75,48,1,1,1,7.802833e-01,NaN,1,1,2,1
12,998,6,67,18,1,1,1,1.282735e+00,NaN,1,1,2,1
12,999,6,64,62,2,2,1,7.496243e-01,NaN,1,0,2,1
12,1000,6,110,59,1,1,1,8.617256e-01,NaN,1,0,3,1
12,1001,6,4,58,2,2,1,9.936475e-01,NaN,1,0,1,1
12,1002,6,13,34,2,2,1,8.405131e-01,NaN,1,1,1,1
12,1003,6,95,13,1,1,1,1.588759e+00,NaN,1,0,2,1
12,1004,6,41,36,1,1,1,7.317551e-01,NaN,1,1,1,1
12,1005,6,102,40,2,2,1,1.716457e+00,NaN,1,0,3,1
12,1006,6,126,39,2,2,1,2.045860e+00,NaN,1,0,3,1
12,1007,6,94,60,1,1,1,8.576783e-01,NaN,1,0,2,1
12,1008,6,20,14,2,1,0,1.493959e+00,NaN,1,1,1,1
12,1009,6,87,16,2,2,1,2.120576e+00,NaN,1,1,2,1
12,1010,6,103,57,2,2,1,1.602251e+00,NaN,1,0,3,1
12,1011,6,140,35,2,2,1,8.720538e-01,NaN,1,0,3,1
12,1012,6,85,37,1,1,1,5.872818e-01,NaN,1,1,2,1
12,1013,6,38,4,1,1,1,1.026048e+00,NaN,1,1,1,1
12,1014,6,34,1,2,2,1,2.047013e+00,NaN,1,0,1,1
12,1015,6,15,49,1,1,1,1.123615e+00,NaN,1,0,1,1
12,1016,6,57,10,2,2,1,6.769644e-01,NaN,1,1,2,1
12,1017,6,44,8,2,2,1,1.799919e+00,NaN,1,0,1,1
12,1018,6,132,20,2,2,1,1.046094e+00,NaN,1,0,3,1
12,1019,6,8,23,2,2,1,1.138050e+00,NaN,1,0,1,1
12,1020,6,14,63,2,1,0,7.627896e-01,NaN,1,0,1,1
12,1021,6,98,11,1,1,1,1.305920e+00,NaN,1,0,3,1
12,1022,6,77,17,2,2,1,6.921658e-01,NaN,1,0,2,1
12,1023,6,122,68,2,2,1,1.127404e+00,NaN,1,0,3,1
12,1024,6,55,27,1,1,1,9.042628e-01,NaN,1,1,2,1
12,1025,6,7,61,1,1,1,2.554362e+00,NaN,1,0,1,1
12,1026,6,17,65,2,1,0,3.042367e+00,NaN,1,0,1,1
12,1027,6,129,25,1,1,1,2.047003e+00,NaN,1,0,3,1
12,1028,6,131,52,2,2,1,7.071066e-01,NaN,1,1,3,1
12,1029,6,107,22,2,2,1,1.749101e+00,NaN,1,0,3,1
12,1030,6,99,12,2,2,1,2.517362e+00,NaN,1,0,3,1
12,1031,6,79,21,1,1,1,2.150887e+00,NaN,1,1,2,1
12,1032,6,70,43,2,2,1,1.006805e+00,NaN,1,0,2,1
12,1033,6,43,70,2,2,1,1.236883e+00,NaN,1,0,1,1
12,1034,6,40,38,1,1,1,2.113463e+00,NaN,1,0,1,1
12,1035,6,120,71,1,1,1,2.203021e+00,NaN,1,0,3,1
12,1036,6,86,53,1,1,1,7.130658e-01,NaN,1,0,2,1
12,1037,6,106,31,2,2,1,1.610313e+00,NaN,1,0,3,1
12,1038,6,60,6,1,1,1,8.241728e-01,NaN,1,0,2,1
12,1039,6,97,19,1,1,1,1.357653e+00,NaN,1,0,3,1
12,1040,6,76,28,2,2,1,7.335931e-01,NaN,1,0,2,1
12,1041,6,113,67,1,1,1,8.862799e-01,NaN,1,0,3,1
12,1042,6,36,3,2,2,1,1.089156e+00,NaN,1,0,1,1
12,1043,6,68,5,2,2,1,7.076726e-01,NaN,1,1,2,1
