Subject,Trial,Cond,ImageNum,CueNum,Correct,Resp,Accuracy,RT,CueRep,ImageType,Baseline,Category,Block
5,1,1,42,NaN,NaN,1,NaN,2.558959e-02,NaN,2,0,1,1
5,2,1,103,NaN,NaN,1,NaN,8.808071e-04,NaN,1,1,3,1
5,3,1,30,NaN,NaN,1,NaN,1.280676e+00,NaN,0,0,1,1
5,4,1,58,NaN,NaN,1,NaN,1.917519e+00,NaN,0,1,2,1
5,5,1,123,NaN,NaN,2,NaN,1.442278e+00,NaN,0,0,3,1
5,6,1,105,NaN,NaN,2,NaN,1.378269e+00,NaN,2,0,3,1
5,7,1,71,NaN,NaN,1,NaN,1.399406e-01,NaN,2,0,2,1
5,8,1,94,NaN,NaN,1,NaN,3.759519e-01,NaN,2,0,2,1
5,9,1,69,NaN,NaN,1,NaN,4.190534e-01,NaN,0,0,2,1
5,10,1,128,NaN,NaN,1,NaN,2.331745e+00,NaN,2,0,3,1
5,11,1,38,NaN,NaN,1,NaN,9.439414e-01,NaN,0,0,1,1
5,12,1,65,NaN,NaN,1,NaN,8.383786e-02,NaN,0,1,2,1
5,13,1,69,NaN,NaN,1,NaN,7.539457e-01,NaN,2,0,2,1
5,14,1,61,NaN,NaN,1,NaN,6.692633e-01,NaN,0,0,2,1
5,15,1,34,NaN,NaN,1,NaN,1.231560e-04,NaN,0,0,1,1
5,16,1,140,NaN,NaN,1,NaN,5.574102e-01,NaN,0,1,3,1
5,17,1,111,NaN,NaN,1,NaN,6.248001e-01,NaN,2,0,3,1
5,18,1,11,NaN,NaN,1,NaN,2.732307e-01,NaN,1,0,1,1
5,19,1,137,NaN,NaN,1,NaN,1.920410e-01,NaN,1,0,3,1
5,20,1,48,NaN,NaN,1,NaN,2.664915e-01,NaN,2,0,1,1
5,21,1,141,NaN,NaN,1,NaN,2.808805e-01,NaN,0,0,3,1
5,22,1,42,NaN,NaN,1,NaN,8.950421e-01,NaN,0,0,1,1
5,23,1,49,NaN,NaN,1,NaN,1.218913e-02,NaN,1,0,2,1
5,24,1,13,NaN,NaN,1,NaN,4.499481e-02,NaN,2,0,1,1
5,25,1,127,NaN,NaN,1,NaN,5.001846e-01,NaN,2,0,3,1
5,26,1,50,NaN,NaN,1,NaN,4.495536e-01,NaN,0,0,2,1
5,27,1,9,NaN,NaN,1,NaN,4.568524e-01,NaN,0,0,1,1
5,28,1,45,NaN,NaN,2,NaN,4.083434e-01,NaN,2,1,1,1
5,29,1,95,NaN,NaN,1,NaN,4.659019e-01,NaN,2,0,2,1
5,30,1,81,NaN,NaN,1,NaN,5.841776e-01,NaN,0,0,2,1
5,31,1,22,NaN,NaN,2,NaN,6.346969e-01,NaN,2,0,1,1
5,32,1,5,NaN,NaN,1,NaN,3.146464e-01,NaN,2,0,1,1
5,33,1,52,NaN,NaN,1,NaN,1.255708e-04,NaN,1,0,2,1
5,34,1,8,NaN,NaN,1,NaN,4.967006e-01,NaN,0,0,1,1
5,35,1,37,NaN,NaN,2,NaN,4.701173e-01,NaN,0,0,1,1
5,36,1,121,NaN,NaN,1,NaN,4.607122e-01,NaN,1,1,3,1
5,37,1,30,NaN,NaN,1,NaN,5.634554e-01,NaN,2,0,1,1
5,38,1,33,NaN,NaN,1,NaN,1.328153e-04,NaN,0,0,1,1
5,39,1,123,NaN,NaN,1,NaN,5.275439e-01,NaN,2,0,3,1
5,40,1,41,NaN,NaN,2,NaN,2.038884e-01,NaN,1,0,1,1
5,41,1,139,NaN,NaN,2,NaN,1.477497e+00,NaN,0,1,3,1
5,42,1,51,NaN,NaN,1,NaN,5.556467e-01,NaN,0,0,2,1
5,43,1,107,NaN,NaN,1,NaN,4.547527e-01,NaN,0,0,3,1
5,44,1,72,NaN,NaN,1,NaN,4.464599e-01,NaN,0,1,2,1
5,45,1,111,NaN,NaN,1,NaN,4.136802e-01,NaN,0,0,3,1
5,46,1,17,NaN,NaN,1,NaN,6.142298e-01,NaN,0,0,1,1
5,47,1,114,NaN,NaN,1,NaN,2.073504e-01,NaN,2,0,3,1
5,48,1,134,NaN,NaN,2,NaN,7.367730e-01,NaN,0,1,3,1
5,49,1,12,NaN,NaN,1,NaN,1.216467e-04,NaN,0,0,1,1
5,50,1,89,NaN,NaN,1,NaN,5.817281e-01,NaN,0,0,2,1
5,51,1,118,NaN,NaN,1,NaN,1.255709e-04,NaN,1,0,3,1
5,52,1,37,NaN,NaN,1,NaN,4.974643e-01,NaN,2,0,1,1
5,53,1,7,NaN,NaN,1,NaN,3.825504e-01,NaN,0,0,1,1
5,54,1,90,NaN,NaN,1,NaN,8.245790e-01,NaN,1,1,2,1
5,55,1,44,NaN,NaN,1,NaN,1.240616e-04,NaN,1,0,1,1
5,56,1,75,NaN,NaN,1,NaN,3.707826e-01,NaN,0,0,2,1
5,57,1,96,NaN,NaN,1,NaN,1.645476e+00,NaN,2,0,2,1
5,58,1,101,NaN,NaN,2,NaN,5.967567e-01,NaN,1,0,3,1
5,59,1,100,NaN,NaN,2,NaN,5.661820e-01,NaN,0,0,3,1
5,60,1,91,NaN,NaN,1,NaN,5.288781e-01,NaN,0,0,2,1
5,61,1,41,NaN,NaN,2,NaN,1.621038e+00,NaN,0,0,1,1
5,62,1,112,NaN,NaN,1,NaN,3.895944e-01,NaN,2,0,3,1
5,63,1,27,NaN,NaN,1,NaN,6.155963e-01,NaN,1,0,1,1
5,64,1,67,NaN,NaN,1,NaN,5.045011e-01,NaN,1,0,2,1
5,65,1,47,NaN,NaN,1,NaN,3.737009e-01,NaN,0,0,1,1
5,66,1,132,NaN,NaN,2,NaN,3.456072e-01,NaN,2,0,3,1
5,67,1,132,NaN,NaN,2,NaN,3.560006e-01,NaN,0,0,3,1
5,68,1,35,NaN,NaN,2,NaN,7.273480e-01,NaN,1,0,1,1
5,69,1,125,NaN,NaN,1,NaN,4.045234e-01,NaN,1,0,3,1
5,70,1,79,NaN,NaN,1,NaN,1.222505e-04,NaN,2,0,2,1
5,71,1,122,NaN,NaN,2,NaN,4.146367e-01,NaN,1,0,3,1
5,72,1,129,NaN,NaN,2,NaN,1.912954e-01,NaN,2,0,3,1
5,73,1,88,NaN,NaN,1,NaN,5.138093e-01,NaN,1,1,2,1
5,74,1,87,NaN,NaN,1,NaN,5.983351e-01,NaN,0,1,2,1
5,75,1,84,NaN,NaN,1,NaN,4.235308e-01,NaN,0,0,2,1
5,76,1,43,NaN,NaN,1,NaN,8.813202e-02,NaN,2,1,1,1
5,77,1,73,NaN,NaN,1,NaN,7.872265e-02,NaN,0,0,2,1
5,78,1,106,NaN,NaN,2,NaN,1.068208e+00,NaN,0,0,3,1
5,79,1,102,NaN,NaN,2,NaN,6.107977e-01,NaN,2,0,3,1
5,80,1,55,NaN,NaN,1,NaN,7.639836e-01,NaN,1,1,2,1
5,81,1,29,NaN,NaN,1,NaN,1.664333e-01,NaN,0,1,1,1
5,82,1,24,NaN,NaN,1,NaN,7.210278e-01,NaN,1,0,1,1
5,83,1,71,NaN,NaN,1,NaN,5.179239e-01,NaN,0,0,2,1
5,84,1,39,NaN,NaN,2,NaN,8.105770e-01,NaN,2,0,1,1
5,85,1,97,NaN,NaN,2,NaN,5.398629e-01,NaN,2,0,3,1
5,86,1,86,NaN,NaN,1,NaN,4.803145e-02,NaN,0,0,2,1
5,87,1,108,NaN,NaN,2,NaN,7.196489e-01,NaN,2,1,3,1
5,88,1,63,NaN,NaN,1,NaN,6.441516e-01,NaN,0,0,2,1
5,89,1,129,NaN,NaN,2,NaN,1.252690e-04,NaN,0,0,3,1
5,90,1,46,NaN,NaN,2,NaN,4.047251e-01,NaN,1,1,1,1
5,91,1,59,NaN,NaN,1,NaN,4.863012e-01,NaN,0,0,2,1
5,92,1,100,NaN,NaN,2,NaN,7.484460e-01,NaN,1,0,3,1
5,93,1,81,NaN,NaN,1,NaN,1.597958e-01,NaN,2,0,2,1
5,94,1,125,NaN,NaN,1,NaN,1.467005e-04,NaN,0,0,3,1
5,95,1,65,NaN,NaN,1,NaN,1.319097e-04,NaN,2,1,2,1
5,96,1,31,NaN,NaN,1,NaN,3.500260e-01,NaN,2,0,1,1
5,97,1,6,NaN,NaN,1,NaN,3.374565e-01,NaN,2,0,1,1
5,98,1,80,NaN,NaN,1,NaN,3.973722e-01,NaN,0,1,2,1
5,99,1,124,NaN,NaN,2,NaN,5.583459e-01,NaN,2,1,3,1
5,100,1,2,NaN,NaN,1,NaN,6.098445e-01,NaN,1,1,1,1
5,101,1,63,NaN,NaN,1,NaN,2.984792e-01,NaN,2,0,2,1
5,102,1,44,NaN,NaN,1,NaN,3.841994e-01,NaN,0,0,1,1
5,103,1,83,NaN,NaN,1,NaN,1.785760e+00,NaN,1,1,2,1
5,104,1,98,NaN,NaN,2,NaN,6.442463e-01,NaN,1,0,3,1
5,105,1,1,NaN,NaN,1,NaN,1.148135e+00,NaN,2,0,1,1
5,106,1,96,NaN,NaN,1,NaN,6.875468e-01,NaN,0,0,2,1
5,107,1,38,NaN,NaN,1,NaN,4.539138e-01,NaN,1,0,1,1
5,108,1,131,NaN,NaN,2,NaN,3.500606e+00,NaN,1,0,3,1
5,109,1,112,NaN,NaN,1,NaN,2.226186e+00,NaN,0,0,3,1
5,110,1,118,NaN,NaN,1,NaN,1.330822e+00,NaN,0,0,3,1
5,111,1,54,NaN,NaN,1,NaN,5.112738e-01,NaN,1,1,2,1
5,112,1,131,NaN,NaN,2,NaN,5.877962e-01,NaN,0,0,3,1
5,113,1,67,NaN,NaN,1,NaN,5.820583e-01,NaN,0,0,2,1
5,114,1,60,NaN,NaN,1,NaN,2.801054e-01,NaN,1,0,2,1
5,115,1,51,NaN,NaN,1,NaN,3.660444e-01,NaN,2,0,2,1
5,116,1,14,NaN,NaN,1,NaN,3.687007e-01,NaN,0,0,1,1
5,117,1,62,NaN,NaN,1,NaN,7.716063e-01,NaN,0,0,2,1
5,118,1,82,NaN,NaN,1,NaN,3.102016e-01,NaN,2,0,2,1
5,119,1,135,NaN,NaN,1,NaN,8.996979e-01,NaN,2,0,3,1
5,120,1,107,NaN,NaN,1,NaN,6.730377e-01,NaN,2,0,3,1
5,121,1,78,NaN,NaN,1,NaN,5.917417e-01,NaN,0,0,2,1
5,122,1,68,NaN,NaN,1,NaN,5.138383e-01,NaN,2,0,2,1
5,123,1,17,NaN,NaN,1,NaN,3.103565e-01,NaN,2,0,1,1
5,124,1,142,NaN,NaN,2,NaN,3.321955e-01,NaN,0,0,3,1
5,125,1,104,NaN,NaN,2,NaN,1.127776e+00,NaN,2,0,3,1
5,126,1,27,NaN,NaN,1,NaN,4.278639e-01,NaN,0,0,1,1
5,127,1,18,NaN,NaN,1,NaN,1.956050e-01,NaN,2,0,1,1
5,128,1,56,NaN,NaN,1,NaN,1.492832e-01,NaN,0,1,2,1
5,129,1,113,NaN,NaN,2,NaN,7.048107e-01,NaN,2,1,3,1
5,130,1,23,NaN,NaN,1,NaN,3.337694e-01,NaN,0,0,1,1
5,131,1,89,NaN,NaN,1,NaN,2.817764e-01,NaN,1,0,2,1
5,132,1,86,NaN,NaN,1,NaN,2.961311e-01,NaN,2,0,2,1
5,133,1,73,NaN,NaN,1,NaN,2.775870e-01,NaN,2,0,2,1
5,134,1,121,NaN,NaN,1,NaN,2.199482e-01,NaN,0,1,3,1
5,135,1,60,NaN,NaN,1,NaN,3.408829e-01,NaN,0,0,2,1
5,136,1,83,NaN,NaN,1,NaN,2.328787e-01,NaN,0,1,2,1
5,137,1,144,NaN,NaN,1,NaN,2.727435e-01,NaN,0,0,3,1
5,138,1,116,NaN,NaN,1,NaN,9.514853e-01,NaN,1,0,3,1
5,139,1,108,NaN,NaN,2,NaN,1.714558e+00,NaN,0,1,3,1
5,140,1,40,NaN,NaN,1,NaN,1.255709e-04,NaN,0,1,1,1
5,141,1,76,NaN,NaN,1,NaN,3.127767e-01,NaN,1,0,2,1
5,142,1,115,NaN,NaN,2,NaN,4.380264e-01,NaN,1,0,3,1
5,143,1,8,NaN,NaN,1,NaN,4.134583e-01,NaN,1,0,1,1
5,144,1,26,NaN,NaN,1,NaN,3.905489e-01,NaN,0,0,1,1
5,145,1,91,NaN,NaN,1,NaN,5.847261e-01,NaN,1,0,2,1
5,146,1,10,NaN,NaN,2,NaN,4.103233e-01,NaN,2,1,1,1
5,147,1,99,NaN,NaN,2,NaN,1.561784e-01,NaN,1,0,3,1
5,148,1,141,NaN,NaN,1,NaN,2.393996e-01,NaN,1,0,3,1
5,149,1,126,NaN,NaN,2,NaN,1.252690e-04,NaN,1,0,3,1
5,150,1,2,NaN,NaN,1,NaN,7.047362e-01,NaN,0,1,1,1
5,151,1,19,NaN,NaN,1,NaN,2.700673e-01,NaN,2,1,1,1
5,152,1,101,NaN,NaN,1,NaN,2.846996e-01,NaN,0,0,3,1
5,153,1,29,NaN,NaN,1,NaN,9.889700e-02,NaN,1,1,1,1
5,154,1,21,NaN,NaN,2,NaN,1.360768e-01,NaN,0,0,1,1
5,155,1,138,NaN,NaN,2,NaN,1.963575e-01,NaN,0,0,3,1
5,156,1,76,NaN,NaN,1,NaN,4.136509e-01,NaN,0,0,2,1
5,157,1,104,NaN,NaN,2,NaN,3.183701e-01,NaN,0,0,3,1
5,158,1,15,NaN,NaN,2,NaN,1.389622e-01,NaN,2,1,1,1
5,159,1,124,NaN,NaN,2,NaN,1.388523e-04,NaN,0,1,3,1
5,160,1,56,NaN,NaN,1,NaN,1.234579e-04,NaN,2,1,2,1
5,161,1,53,NaN,NaN,1,NaN,3.696392e-01,NaN,2,1,2,1
5,162,1,122,NaN,NaN,2,NaN,1.885905e-01,NaN,0,0,3,1
5,163,1,135,NaN,NaN,1,NaN,4.542770e-01,NaN,0,0,3,1
5,164,1,25,NaN,NaN,1,NaN,1.420279e-02,NaN,1,0,1,1
5,165,1,82,NaN,NaN,1,NaN,5.824090e-01,NaN,0,0,2,1
5,166,1,106,NaN,NaN,1,NaN,1.640616e+00,NaN,2,0,3,1
5,167,1,16,NaN,NaN,1,NaN,6.404318e-01,NaN,1,1,1,1
5,168,1,22,NaN,NaN,1,NaN,6.164765e-01,NaN,0,0,1,1
5,169,1,143,NaN,NaN,2,NaN,8.173186e-01,NaN,0,1,3,1
5,170,1,3,NaN,NaN,2,NaN,1.288912e-04,NaN,0,1,1,1
5,171,1,80,NaN,NaN,1,NaN,3.475837e-03,NaN,1,1,2,1
5,172,1,57,NaN,NaN,1,NaN,2.527563e-01,NaN,2,0,2,1
5,173,1,64,NaN,NaN,1,NaN,4.759213e-01,NaN,1,0,2,1
5,174,1,120,NaN,NaN,2,NaN,1.227036e+00,NaN,1,0,3,1
5,175,1,68,NaN,NaN,1,NaN,4.197607e-01,NaN,0,0,2,1
5,176,1,34,NaN,NaN,1,NaN,1.403016e-01,NaN,1,0,1,1
5,177,1,5,NaN,NaN,1,NaN,2.963940e-01,NaN,0,0,1,1
5,178,1,98,NaN,NaN,1,NaN,1.896989e-01,NaN,0,0,3,1
5,179,1,13,NaN,NaN,1,NaN,2.881244e-01,NaN,0,0,1,1
5,180,1,84,NaN,NaN,1,NaN,2.055263e-01,NaN,1,0,2,1
5,181,1,19,NaN,NaN,1,NaN,4.794509e-01,NaN,0,1,1,1
5,182,1,50,NaN,NaN,1,NaN,1.469262e+00,NaN,2,0,2,1
5,183,1,115,NaN,NaN,2,NaN,2.541167e+00,NaN,0,0,3,1
5,184,1,1,NaN,NaN,1,NaN,3.676971e-01,NaN,0,0,1,1
5,185,1,127,NaN,NaN,1,NaN,3.870706e-01,NaN,0,0,3,1
5,186,1,14,NaN,NaN,1,NaN,6.607218e-01,NaN,1,0,1,1
5,187,1,36,NaN,NaN,1,NaN,5.236537e-01,NaN,1,1,1,1
5,188,1,128,NaN,NaN,2,NaN,6.421530e-02,NaN,0,0,3,1
5,189,1,109,NaN,NaN,1,NaN,9.511086e-02,NaN,0,0,3,1
5,190,1,102,NaN,NaN,2,NaN,2.200695e-01,NaN,0,0,3,1
5,191,1,77,NaN,NaN,1,NaN,3.410063e-01,NaN,1,0,2,1
5,192,1,28,NaN,NaN,2,NaN,3.689857e-01,NaN,1,0,1,1
5,193,1,16,NaN,NaN,1,NaN,3.477857e-01,NaN,0,1,1,1
5,194,1,46,NaN,NaN,2,NaN,2.069764e-01,NaN,0,1,1,1
5,195,1,31,NaN,NaN,1,NaN,1.283349e-01,NaN,0,0,1,1
5,196,1,94,NaN,NaN,1,NaN,1.803523e-01,NaN,0,0,2,1
5,197,1,79,NaN,NaN,1,NaN,3.427583e-01,NaN,0,0,2,1
5,198,1,138,NaN,NaN,1,NaN,1.627283e-01,NaN,1,0,3,1
5,199,1,144,NaN,NaN,1,NaN,3.813928e-01,NaN,2,0,3,1
5,200,1,117,NaN,NaN,2,NaN,7.591500e-01,NaN,0,0,3,1
5,201,1,133,NaN,NaN,2,NaN,8.746942e-01,NaN,1,0,3,1
5,202,1,52,NaN,NaN,1,NaN,3.691342e-01,NaN,0,0,2,1
5,203,1,137,NaN,NaN,1,NaN,4.201416e-01,NaN,0,0,3,1
5,204,1,99,NaN,NaN,2,NaN,2.765118e-01,NaN,0,0,3,1
5,205,1,97,NaN,NaN,2,NaN,3.952276e-01,NaN,0,0,3,1
5,206,1,92,NaN,NaN,1,NaN,1.222505e-04,NaN,2,1,2,1
5,207,1,48,NaN,NaN,1,NaN,7.343138e-01,NaN,0,0,1,1
5,208,1,23,NaN,NaN,1,NaN,2.664879e-02,NaN,2,0,1,1
5,209,1,32,NaN,NaN,1,NaN,3.950169e-01,NaN,0,0,1,1
5,210,1,61,NaN,NaN,1,NaN,5.166896e-01,NaN,2,0,2,1
5,211,1,18,NaN,NaN,1,NaN,4.168025e-01,NaN,0,0,1,1
5,212,1,70,NaN,NaN,1,NaN,2.099653e-01,NaN,0,0,2,1
5,213,1,136,NaN,NaN,2,NaN,4.593599e-01,NaN,0,0,3,1
5,214,1,114,NaN,NaN,1,NaN,9.759933e-02,NaN,0,0,3,1
5,215,1,62,NaN,NaN,1,NaN,3.429445e-01,NaN,2,0,2,1
5,216,1,4,NaN,NaN,1,NaN,4.513049e-01,NaN,2,1,1,1
5,217,1,6,NaN,NaN,1,NaN,3.710824e-01,NaN,0,0,1,1
5,218,1,59,NaN,NaN,1,NaN,1.890735e-01,NaN,1,0,2,1
5,219,1,113,NaN,NaN,2,NaN,8.235938e-01,NaN,0,1,3,1
5,220,1,93,NaN,NaN,1,NaN,1.222505e-04,NaN,0,1,2,1
5,221,1,57,NaN,NaN,1,NaN,3.215404e-01,NaN,0,0,2,1
5,222,1,4,NaN,NaN,1,NaN,3.178756e-01,NaN,0,1,1,1
5,223,1,35,NaN,NaN,2,NaN,5.146222e-01,NaN,0,0,1,1
5,224,1,36,NaN,NaN,1,NaN,2.875989e-01,NaN,0,1,1,1
5,225,1,133,NaN,NaN,2,NaN,5.737697e-01,NaN,0,0,3,1
5,226,1,7,NaN,NaN,1,NaN,2.324525e-01,NaN,2,0,1,1
5,227,1,95,NaN,NaN,1,NaN,1.237597e-04,NaN,0,0,2,1
5,228,1,87,NaN,NaN,1,NaN,3.292833e-01,NaN,1,1,2,1
5,229,1,55,NaN,NaN,1,NaN,7.336884e-01,NaN,0,1,2,1
5,230,1,78,NaN,NaN,1,NaN,6.259794e-01,NaN,1,0,2,1
5,231,1,93,NaN,NaN,1,NaN,7.228132e-01,NaN,1,1,2,1
5,232,1,74,NaN,NaN,1,NaN,2.710278e-01,NaN,1,0,2,1
5,233,1,40,NaN,NaN,1,NaN,6.939099e-01,NaN,1,1,1,1
5,234,1,140,NaN,NaN,1,NaN,9.320088e-01,NaN,1,1,3,1
5,235,1,20,NaN,NaN,1,NaN,2.883523e-01,NaN,1,0,1,1
5,236,1,20,NaN,NaN,1,NaN,5.927789e-03,NaN,0,0,1,1
5,237,1,64,NaN,NaN,1,NaN,2.075420e-01,NaN,0,0,2,1
5,238,1,126,NaN,NaN,2,NaN,5.047737e-01,NaN,0,0,3,1
5,239,1,45,NaN,NaN,2,NaN,1.286275e+00,NaN,0,1,1,1
5,240,1,116,NaN,NaN,1,NaN,3.961033e-01,NaN,0,0,3,1
5,241,1,90,NaN,NaN,1,NaN,4.773986e-01,NaN,0,1,2,1
5,242,1,3,NaN,NaN,2,NaN,3.716743e-01,NaN,2,1,1,1
5,243,1,110,NaN,NaN,2,NaN,1.702515e+00,NaN,0,0,3,1
5,244,1,53,NaN,NaN,1,NaN,4.114111e-01,NaN,0,1,2,1
5,245,1,117,NaN,NaN,2,NaN,9.642672e-01,NaN,2,0,3,1
5,246,1,58,NaN,NaN,1,NaN,1.234579e-04,NaN,2,1,2,1
5,247,1,25,NaN,NaN,1,NaN,3.525549e-01,NaN,0,0,1,1
5,248,1,109,NaN,NaN,1,NaN,3.478729e-01,NaN,1,0,3,1
5,249,1,136,NaN,NaN,2,NaN,3.189119e-01,NaN,1,0,3,1
5,250,1,103,NaN,NaN,1,NaN,1.304005e-04,NaN,0,1,3,1
5,251,1,66,NaN,NaN,1,NaN,3.892932e-01,NaN,1,0,2,1
5,252,1,143,NaN,NaN,2,NaN,3.597771e-01,NaN,2,1,3,1
5,253,1,47,NaN,NaN,1,NaN,3.790332e-01,NaN,2,0,1,1
5,254,1,142,NaN,NaN,2,NaN,7.727349e-01,NaN,1,0,3,1
5,255,1,10,NaN,NaN,1,NaN,1.388524e-04,NaN,0,1,1,1
5,256,1,33,NaN,NaN,1,NaN,8.049332e-02,NaN,1,0,1,1
5,257,1,11,NaN,NaN,1,NaN,8.699011e-02,NaN,0,0,1,1
5,258,1,110,NaN,NaN,2,NaN,1.036962e+00,NaN,2,0,3,1
5,259,1,74,NaN,NaN,1,NaN,5.487388e-01,NaN,0,0,2,1
5,260,1,12,NaN,NaN,1,NaN,2.724281e-01,NaN,1,0,1,1
5,261,1,70,NaN,NaN,1,NaN,4.148885e-01,NaN,2,0,2,1
5,262,1,66,NaN,NaN,1,NaN,4.799085e-01,NaN,0,0,2,1
5,263,1,54,NaN,NaN,1,NaN,3.656955e-01,NaN,0,1,2,1
5,264,1,26,NaN,NaN,1,NaN,1.206045e-01,NaN,1,0,1,1
5,265,1,88,NaN,NaN,1,NaN,9.357593e-02,NaN,0,1,2,1
5,266,1,139,NaN,NaN,1,NaN,1.231561e-04,NaN,2,1,3,1
5,267,1,130,NaN,NaN,2,NaN,2.206530e-01,NaN,0,0,3,1
5,268,1,105,NaN,NaN,2,NaN,4.933986e-01,NaN,0,0,3,1
5,269,1,39,NaN,NaN,2,NaN,5.949866e-01,NaN,0,0,1,1
5,270,1,43,NaN,NaN,1,NaN,5.405936e-01,NaN,0,1,1,1
5,271,1,130,NaN,NaN,2,NaN,5.046487e-01,NaN,1,0,3,1
5,272,1,72,NaN,NaN,1,NaN,2.697971e-01,NaN,1,1,2,1
5,273,1,92,NaN,NaN,1,NaN,2.850328e-01,NaN,0,1,2,1
5,274,1,134,NaN,NaN,2,NaN,3.549541e-01,NaN,2,1,3,1
5,275,1,32,NaN,NaN,1,NaN,6.703557e-01,NaN,2,0,1,1
5,276,1,119,NaN,NaN,1,NaN,4.046801e-01,NaN,0,0,3,1
5,277,1,49,NaN,NaN,1,NaN,6.263721e-02,NaN,0,0,2,1
5,278,1,77,NaN,NaN,1,NaN,8.490883e-02,NaN,0,0,2,1
5,279,1,119,NaN,NaN,1,NaN,3.711684e-01,NaN,1,0,3,1
5,280,1,28,NaN,NaN,2,NaN,4.136249e-01,NaN,0,0,1,1
5,281,1,120,NaN,NaN,2,NaN,4.063312e-01,NaN,0,0,3,1
5,282,1,9,NaN,NaN,1,NaN,3.121106e-01,NaN,1,0,1,1
5,283,1,15,NaN,NaN,1,NaN,2.287388e-01,NaN,0,1,1,1
5,284,1,85,NaN,NaN,1,NaN,2.043967e-02,NaN,1,0,2,1
5,285,1,85,NaN,NaN,1,NaN,1.267782e-04,NaN,0,0,2,1
5,286,1,24,NaN,NaN,1,NaN,3.024733e-01,NaN,0,0,1,1
5,287,1,21,NaN,NaN,1,NaN,5.876715e-01,NaN,1,0,1,1
5,288,1,75,NaN,NaN,1,NaN,3.980037e-01,NaN,2,0,2,1
5,387,2,26,47,2,2,1,1.745042e+00,NaN,1,0,1,1
5,388,2,131,48,1,1,1,1.153406e+00,NaN,1,0,3,1
5,389,2,100,66,1,1,1,1.145035e+00,NaN,1,0,3,1
5,390,2,9,24,1,1,1,1.432089e+00,NaN,1,0,1,1
5,391,2,40,19,2,2,1,1.828595e+00,NaN,1,1,1,1
5,392,2,83,63,2,2,1,1.392671e+00,NaN,1,1,2,1
5,393,2,137,71,2,2,1,1.614834e+00,NaN,1,0,3,1
5,394,2,89,50,2,2,1,8.994875e-01,NaN,1,0,2,1
5,395,2,60,23,1,2,0,2.428854e+00,NaN,1,0,2,1
5,396,2,84,1,1,1,1,8.089240e-01,NaN,1,0,2,1
5,397,2,2,44,2,1,0,2.541969e+00,NaN,1,1,1,1
5,398,2,35,43,2,1,0,1.798201e+00,NaN,1,0,1,1
5,399,2,46,40,1,2,0,9.881659e-01,NaN,1,1,1,1
5,400,2,90,7,1,2,0,1.978111e+00,NaN,1,1,2,1
5,401,2,125,61,1,0,0,3.500082e+00,NaN,1,0,3,1
5,402,2,72,68,1,2,0,2.641783e+00,NaN,1,1,2,1
5,403,2,20,59,1,1,1,1.093928e+00,NaN,1,0,1,1
5,404,2,122,55,2,2,1,1.919649e+00,NaN,1,0,3,1
5,405,2,115,4,2,1,0,1.688479e+00,NaN,1,0,3,1
5,406,2,34,52,2,1,0,2.290812e+00,NaN,1,0,1,1
5,407,2,67,31,1,1,1,1.284693e+00,NaN,1,0,2,1
5,408,2,44,56,1,1,1,1.079105e+00,NaN,1,0,1,1
5,409,2,21,10,1,1,1,7.452047e-01,NaN,1,0,1,1
5,410,2,28,53,2,2,1,1.104152e+00,NaN,1,0,1,1
5,411,3,83,63,2,2,1,1.008655e+00,NaN,1,1,2,1
5,412,3,137,71,1,1,1,1.382435e+00,NaN,1,0,3,1
5,413,3,40,19,2,2,1,1.029764e+00,NaN,1,1,1,1
5,414,3,122,55,2,2,1,8.244607e-01,NaN,1,0,3,1
5,415,3,20,59,2,2,1,8.055161e-01,NaN,1,0,1,1
5,416,3,131,48,1,1,1,6.906949e-01,NaN,1,0,3,1
5,417,3,28,53,1,1,1,9.170520e-01,NaN,1,0,1,1
5,418,3,46,40,2,2,1,1.597864e+00,NaN,1,1,1,1
5,419,3,35,43,2,2,1,1.123250e+00,NaN,1,0,1,1
5,420,3,67,31,2,1,0,1.059697e+00,NaN,1,0,2,1
5,421,3,9,24,2,2,1,1.455329e+00,NaN,1,0,1,1
5,422,3,60,23,1,1,1,7.706968e-01,NaN,1,0,2,1
5,423,3,2,44,1,1,1,2.489718e+00,NaN,1,1,1,1
5,424,3,90,7,2,2,1,1.827405e+00,NaN,1,1,2,1
5,425,3,44,56,1,1,1,1.535914e+00,NaN,1,0,1,1
5,426,3,89,50,2,2,1,8.236738e-01,NaN,1,0,2,1
5,427,3,115,4,1,1,1,2.012767e+00,NaN,1,0,3,1
5,428,3,100,66,2,2,1,1.449240e+00,NaN,1,0,3,1
5,429,3,26,47,1,1,1,1.108737e+00,NaN,1,0,1,1
5,430,3,72,68,1,1,1,8.386870e-01,NaN,1,1,2,1
5,431,3,125,61,2,1,0,1.394570e+00,NaN,1,0,3,1
5,432,3,34,52,2,1,0,1.767822e+00,NaN,1,0,1,1
5,433,3,21,10,1,1,1,1.070544e+00,NaN,1,0,1,1
5,434,3,84,1,2,1,0,4.895563e-01,NaN,1,0,2,1
5,459,2,136,16,1,1,1,1.277759e+00,NaN,1,0,3,2
5,460,2,80,12,2,2,1,2.175653e+00,NaN,1,1,2,2
5,461,2,74,13,2,2,1,1.238705e+00,NaN,1,0,2,2
5,462,2,78,9,2,2,1,8.582565e-01,NaN,1,0,2,2
5,463,2,77,46,1,1,1,6.382555e-01,NaN,1,0,2,2
5,464,2,36,70,2,1,0,1.634088e+00,NaN,1,1,1,2
5,465,2,59,27,2,2,1,8.540562e-01,NaN,1,0,2,2
5,466,2,87,67,2,2,1,1.033546e+00,NaN,1,1,2,2
5,467,2,33,30,1,1,1,1.997745e+00,NaN,1,0,1,2
5,468,2,126,20,2,1,0,1.923258e+00,NaN,1,0,3,2
5,469,2,133,54,2,2,1,9.719244e-01,NaN,1,0,3,2
5,470,2,141,62,2,2,1,1.394791e+00,NaN,1,0,3,2
5,471,2,55,38,2,2,1,1.368375e+00,NaN,1,1,2,2
5,472,2,99,17,1,1,1,2.558910e+00,NaN,1,0,3,2
5,473,2,27,57,2,2,1,3.014559e+00,NaN,1,0,1,2
5,474,2,98,39,1,0,0,3.500051e+00,NaN,1,0,3,2
5,475,2,29,64,2,2,1,1.492847e+00,NaN,1,1,1,2
5,476,2,14,15,1,1,1,1.606759e+00,NaN,1,0,1,2
5,477,2,38,8,1,1,1,3.027877e+00,NaN,1,0,1,2
5,478,2,25,51,1,1,1,1.416076e+00,NaN,1,0,1,2
5,479,2,142,35,1,1,1,1.948694e+00,NaN,1,0,3,2
5,480,2,85,32,2,2,1,5.725910e-01,NaN,1,0,2,2
5,481,2,54,69,1,1,1,2.282894e+00,NaN,1,1,2,2
5,482,2,130,72,1,1,1,2.013256e+00,NaN,1,0,3,2
5,483,3,38,8,2,1,0,1.925456e+00,NaN,1,0,1,2
5,484,3,80,12,2,2,1,8.301787e-01,NaN,1,1,2,2
5,485,3,59,27,2,2,1,6.265058e-01,NaN,1,0,2,2
5,486,3,99,17,2,2,1,1.854958e+00,NaN,1,0,3,2
5,487,3,126,20,1,2,0,2.322713e+00,NaN,1,0,3,2
5,488,3,54,69,1,1,1,1.339265e+00,NaN,1,1,2,2
5,489,3,14,15,1,1,1,1.475534e+00,NaN,1,0,1,2
5,490,3,25,51,2,2,1,1.174580e+00,NaN,1,0,1,2
5,491,3,98,39,1,1,1,2.708924e+00,NaN,1,0,3,2
5,492,3,27,57,1,1,1,1.958442e+00,NaN,1,0,1,2
5,493,3,136,16,2,2,1,9.270977e-01,NaN,1,0,3,2
5,494,3,74,13,2,2,1,7.027231e-01,NaN,1,0,2,2
5,495,3,78,9,2,2,1,5.442144e-01,NaN,1,0,2,2
5,496,3,85,32,1,1,1,6.722145e-01,NaN,1,0,2,2
5,497,3,130,72,2,1,0,1.210882e+00,NaN,1,0,3,2
5,498,3,141,62,2,2,1,1.112128e+00,NaN,1,0,3,2
5,499,3,142,35,1,1,1,1.689165e+00,NaN,1,0,3,2
5,500,3,55,38,1,2,0,9.310085e-01,NaN,1,1,2,2
5,501,3,33,30,1,1,1,2.050963e+00,NaN,1,0,1,2
5,502,3,87,67,2,2,1,1.942639e+00,NaN,1,1,2,2
5,503,3,36,70,1,1,1,1.118587e+00,NaN,1,1,1,2
5,504,3,133,54,1,1,1,1.503441e+00,NaN,1,0,3,2
5,505,3,77,46,1,1,1,7.373052e-01,NaN,1,0,2,2
5,506,3,29,64,1,1,1,1.017123e+00,NaN,1,1,1,2
5,531,2,121,41,2,2,1,1.758805e+00,NaN,1,1,3,3
5,532,2,41,26,1,1,1,1.670402e+00,NaN,1,0,1,3
5,533,2,16,45,1,1,1,1.304981e+00,NaN,1,1,1,3
5,534,2,101,11,1,1,1,1.306445e+00,NaN,1,0,3,3
5,535,2,49,65,2,2,1,9.955779e-01,NaN,1,0,2,3
5,536,2,118,29,2,2,1,7.770665e-01,NaN,1,0,3,3
5,537,2,8,36,1,1,1,7.757302e-01,NaN,1,0,1,3
5,538,2,76,25,1,1,1,9.669604e-01,NaN,1,0,2,3
5,539,2,12,21,2,2,1,1.877733e+00,NaN,1,0,1,3
5,540,2,64,49,1,1,1,1.016355e+00,NaN,1,0,2,3
5,541,2,119,34,2,1,0,2.004884e+00,NaN,1,0,3,3
5,542,2,103,14,2,2,1,1.938197e+00,NaN,1,1,3,3
5,543,2,120,33,2,2,1,1.074460e+00,NaN,1,0,3,3
5,544,2,109,2,2,2,1,9.011736e-01,NaN,1,0,3,3
5,545,2,52,18,2,2,1,6.308202e-01,NaN,1,0,2,3
5,546,2,24,42,2,2,1,1.522746e+00,NaN,1,0,1,3
5,547,2,140,37,1,1,1,1.219370e+00,NaN,1,1,3,3
5,548,2,88,28,1,2,0,2.760312e+00,NaN,1,1,2,3
5,549,2,93,6,2,2,1,7.357262e-01,NaN,1,1,2,3
5,550,2,91,22,2,2,1,1.280207e+00,NaN,1,0,2,3
5,551,2,116,58,1,1,1,1.306243e+00,NaN,1,0,3,3
5,552,2,66,5,2,2,1,1.195767e+00,NaN,1,0,2,3
5,553,2,138,60,2,1,0,1.032781e+00,NaN,1,0,3,3
5,554,2,11,3,1,1,1,1.685072e+00,NaN,1,0,1,3
5,555,3,91,22,1,1,1,8.369200e-01,NaN,1,0,2,3
5,556,3,41,26,2,2,1,1.521194e+00,NaN,1,0,1,3
5,557,3,66,5,1,1,1,1.770225e+00,NaN,1,0,2,3
5,558,3,109,2,1,1,1,8.089382e-01,NaN,1,0,3,3
5,559,3,49,65,2,2,1,9.338048e-01,NaN,1,0,2,3
5,560,3,12,21,1,1,1,1.894546e+00,NaN,1,0,1,3
5,561,3,120,33,2,2,1,7.921957e-01,NaN,1,0,3,3
5,562,3,52,18,1,1,1,7.182414e-01,NaN,1,0,2,3
5,563,3,11,3,2,2,1,1.367389e+00,NaN,1,0,1,3
5,564,3,76,25,2,2,1,1.302037e+00,NaN,1,0,2,3
5,565,3,88,28,2,2,1,1.047140e+00,NaN,1,1,2,3
5,566,3,119,34,2,1,0,2.162465e+00,NaN,1,0,3,3
5,567,3,138,60,2,2,1,2.401658e+00,NaN,1,0,3,3
5,568,3,140,37,1,1,1,1.239132e+00,NaN,1,1,3,3
5,569,3,8,36,2,2,1,8.991527e-01,NaN,1,0,1,3
5,570,3,64,49,2,2,1,8.764824e-01,NaN,1,0,2,3
5,571,3,93,6,1,1,1,1.071389e+00,NaN,1,1,2,3
5,572,3,16,45,1,1,1,1.369919e+00,NaN,1,1,1,3
5,573,3,24,42,1,1,1,8.244846e-01,NaN,1,0,1,3
5,574,3,118,29,2,2,1,1.093517e+00,NaN,1,0,3,3
5,575,3,121,41,2,2,1,2.423684e+00,NaN,1,1,3,3
5,576,3,103,14,2,1,0,1.284087e+00,NaN,1,1,3,3
5,577,3,101,11,1,1,1,1.110421e+00,NaN,1,0,3,3
5,578,3,116,58,1,1,1,1.631961e+00,NaN,1,0,3,3
5,603,4,10,69,2,2,1,1.443148e+00,NaN,2,1,1,1
5,604,4,143,68,2,2,1,1.214884e+00,NaN,2,1,3,1
5,605,4,135,25,1,1,1,1.141222e+00,NaN,2,0,3,1
5,606,4,62,57,2,2,1,8.042136e-01,NaN,2,0,2,1
5,607,4,1,23,2,2,1,1.097879e+00,NaN,2,0,1,1
5,608,4,57,53,1,1,1,8.028815e-01,NaN,2,0,2,1
5,609,4,92,41,1,1,1,1.551996e+00,NaN,2,1,2,1
5,610,4,43,37,1,1,1,1.615901e+00,NaN,2,1,1,1
5,611,4,56,40,1,1,1,8.128714e-01,NaN,2,1,2,1
5,612,4,112,47,2,2,1,1.537011e+00,NaN,2,0,3,1
5,613,4,111,59,1,1,1,1.065857e+00,NaN,2,0,3,1
5,614,4,75,55,2,2,1,7.404774e-01,NaN,2,0,2,1
5,615,4,104,8,1,1,1,1.877528e+00,NaN,2,0,3,1
5,616,4,53,44,2,2,1,7.747733e-01,NaN,2,1,2,1
5,617,4,65,64,2,2,1,1.501612e+00,NaN,2,1,2,1
5,618,4,42,72,2,2,1,2.247259e+00,NaN,2,0,1,1
5,619,4,51,36,1,1,1,8.986670e-01,NaN,2,0,2,1
5,620,4,95,61,1,1,1,1.220237e+00,NaN,2,0,2,1
5,621,4,123,9,1,1,1,9.927939e-01,NaN,2,0,3,1
5,622,4,18,31,2,2,1,1.702900e+00,NaN,2,0,1,1
5,623,4,17,13,2,2,1,1.232225e+00,NaN,2,0,1,1
5,624,4,144,46,1,1,1,1.396686e+00,NaN,2,0,3,1
5,625,4,79,2,2,2,1,1.001976e+00,NaN,2,0,2,1
5,626,4,127,27,2,2,1,1.303426e+00,NaN,2,0,3,1
5,651,4,70,54,1,1,1,1.574890e+00,NaN,2,0,2,2
5,652,4,128,32,2,1,0,2.709813e+00,NaN,2,0,3,2
5,653,4,5,22,2,2,1,1.095346e+00,NaN,2,0,1,2
5,654,4,37,29,2,2,1,1.504283e+00,NaN,2,0,1,2
5,655,4,73,71,1,1,1,1.954176e+00,NaN,2,0,2,2
5,656,4,139,28,2,2,1,2.137410e+00,NaN,2,1,3,2
5,657,4,61,24,2,2,1,9.857945e-01,NaN,2,0,2,2
5,658,4,50,26,1,1,1,9.038315e-01,NaN,2,0,2,2
5,659,4,39,35,2,2,1,9.292043e-01,NaN,2,0,1,2
5,660,4,132,49,2,2,1,2.032948e+00,NaN,2,0,3,2
5,661,4,113,70,2,2,1,1.381341e+00,NaN,2,1,3,2
5,662,4,114,15,2,2,1,1.611164e+00,NaN,2,0,3,2
5,663,4,129,1,2,1,0,2.600160e+00,NaN,2,0,3,2
5,664,4,19,7,1,1,1,2.837379e+00,NaN,2,1,1,2
5,665,4,31,62,2,2,1,1.057501e+00,NaN,2,0,1,2
5,666,4,23,39,2,2,1,1.478392e+00,NaN,2,0,1,2
5,667,4,71,17,2,2,1,8.313716e-01,NaN,2,0,2,2
5,668,4,63,3,1,1,1,8.596498e-01,NaN,2,0,2,2
5,669,4,47,34,2,2,1,1.806913e+00,NaN,2,0,1,2
5,670,4,94,58,2,2,1,1.108513e+00,NaN,2,0,2,2
5,671,4,97,30,2,2,1,1.469442e+00,NaN,2,0,3,2
5,672,4,96,16,1,1,1,6.483579e-01,NaN,2,0,2,2
5,673,4,82,11,2,2,1,1.331854e+00,NaN,2,0,2,2
5,674,4,3,63,1,1,1,1.059870e+00,NaN,2,1,1,2
5,699,4,6,5,1,1,1,9.947420e-01,NaN,2,0,1,3
5,700,4,81,20,1,1,1,1.072207e+00,NaN,2,0,2,3
5,701,4,108,19,1,1,1,1.458642e+00,NaN,2,1,3,3
5,702,4,22,48,1,1,1,1.894519e+00,NaN,2,0,1,3
5,703,4,86,66,1,1,1,8.641070e-01,NaN,2,0,2,3
5,704,4,7,65,1,1,1,7.548589e-01,NaN,2,0,1,3
5,705,4,107,21,1,1,1,1.458057e+00,NaN,2,0,3,3
5,706,4,48,60,1,1,1,1.557770e+00,NaN,2,0,1,3
5,707,4,105,52,1,2,0,1.949095e+00,NaN,2,0,3,3
5,708,4,45,14,1,1,1,1.332577e+00,NaN,2,1,1,3
5,709,4,134,38,1,1,1,1.284622e+00,NaN,2,1,3,3
5,710,4,106,43,1,1,1,1.206331e+00,NaN,2,0,3,3
5,711,4,117,50,2,2,1,1.899883e+00,NaN,2,0,3,3
5,712,4,110,42,1,1,1,1.173098e+00,NaN,2,0,3,3
5,713,4,15,6,2,2,1,1.108111e+00,NaN,2,1,1,3
5,714,4,68,51,1,1,1,7.014535e-01,NaN,2,0,2,3
5,715,4,30,33,1,1,1,8.085808e-01,NaN,2,0,1,3
5,716,4,102,56,1,1,1,1.620427e+00,NaN,2,0,3,3
5,717,4,4,12,2,2,1,1.017129e+00,NaN,2,1,1,3
5,718,4,58,45,1,1,1,1.302247e+00,NaN,2,1,2,3
5,719,4,124,67,1,1,1,1.856577e+00,NaN,2,1,3,3
5,720,4,69,10,2,2,1,1.426787e+00,NaN,2,0,2,3
5,721,4,13,18,1,1,1,1.095654e+00,NaN,2,0,1,3
5,722,4,32,4,2,1,0,1.336980e+00,NaN,2,0,1,3
5,723,5,1.153200e+02,4,3,0,0,2.500321e+00,1,1,0,3.100000e+00,1
5,724,5,1.203000e+02,33,3,2,0,5.793220e-01,1,1,0,3.100000e+00,1
5,725,5,6.001000e+01,23,2,2,1,5.328089e-01,1,1,0,2.100000e+00,1
5,726,5,2.169000e+01,10,1,1,1,4.864575e-01,1,1,0,1.200000e+00,1
5,727,5,4.150000e+01,26,1,1,1,5.196100e-01,1,1,0,1.200000e+00,1
5,728,5,1.259500e+02,61,3,3,1,5.608495e-01,1,1,0,3.200000e+00,1
5,729,5,1.268100e+02,20,3,3,1,5.462537e-01,1,1,0,3.200000e+00,1
5,730,5,3.904000e+01,8,1,3,0,5.957555e-01,1,1,0,1.300000e+00,1
5,731,5,1.377300e+02,71,3,2,0,3.971594e-01,1,1,0,3.200000e+00,1
5,732,5,3.606000e+01,43,1,1,1,3.826956e-01,1,1,0,1.300000e+00,1
5,733,5,7.844000e+01,46,2,2,1,4.880736e-01,1,1,0,2.300000e+00,1
5,734,5,1.268100e+02,20,3,3,1,5.772742e-01,2,1,0,3.200000e+00,1
5,735,5,6.718000e+01,31,2,1,0,4.431926e-01,1,1,0,2.100000e+00,1
5,736,5,6.532000e+01,49,2,3,0,3.087189e-01,1,1,0,2.300000e+00,1
5,737,5,6.027000e+01,27,2,2,1,4.789568e-01,1,1,0,2.300000e+00,1
5,738,5,4.150000e+01,26,1,1,1,3.847168e-01,2,1,0,1.200000e+00,1
5,739,5,2.762000e+01,57,1,3,0,3.701146e-01,1,1,0,1.200000e+00,1
5,740,5,1.153200e+02,4,3,2,0,4.115056e-01,2,1,0,3.100000e+00,1
5,741,5,9.105000e+01,22,2,1,0,1.332754e+00,1,1,0,2.100000e+00,1
5,742,5,1.018200e+02,11,3,2,0,3.420571e-01,1,1,0,3.200000e+00,1
5,743,5,1.304200e+02,72,3,1,0,2.885198e-01,1,1,0,3.100000e+00,1
5,744,5,9.823000e+01,39,3,2,0,3.937645e-01,1,1,0,3.100000e+00,1
5,745,5,9.971000e+01,17,3,3,1,3.233890e-01,1,1,0,3.200000e+00,1
5,746,5,2.111000e+01,59,1,1,1,2.847575e-01,1,1,0,1.300000e+00,1
5,747,5,3.397000e+01,30,1,1,1,4.061713e-01,1,1,0,1.300000e+00,1
5,748,5,1.514000e+01,15,1,3,0,3.677200e-01,1,1,0,1.300000e+00,1
5,749,5,1.369600e+02,16,3,2,0,4.248689e-01,1,1,0,3.200000e+00,1
5,750,5,1.169400e+02,58,3,1,0,4.986264e-01,1,1,0,3.200000e+00,1
5,751,5,3.606000e+01,43,1,1,1,2.837563e-01,2,1,0,1.300000e+00,1
5,752,5,1.097900e+02,2,3,3,1,3.011231e-01,1,1,0,3.200000e+00,1
5,753,5,1.018200e+02,11,3,2,0,2.947084e-01,2,1,0,3.200000e+00,1
5,754,5,3.505000e+01,52,1,1,1,2.959720e-01,1,1,0,1.300000e+00,1
5,755,5,9.017000e+01,50,2,2,1,4.253905e-01,1,1,0,2.300000e+00,1
5,756,5,2.857000e+01,53,1,2,0,3.634560e-01,1,1,0,1.200000e+00,1
5,757,5,9.105000e+01,22,2,3,0,2.767020e-01,2,1,0,2.100000e+00,1
5,758,5,2.169000e+01,10,1,1,1,3.270622e-01,2,1,0,1.200000e+00,1
5,759,5,1.268100e+02,20,3,3,1,5.932685e-01,3,1,0,3.200000e+00,1
5,760,5,9.017000e+01,50,2,2,1,2.832754e-01,2,1,0,2.300000e+00,1
5,761,5,1.369600e+02,16,3,1,0,4.363475e-01,2,1,0,3.200000e+00,1
5,762,5,8.529000e+01,1,2,2,1,2.702390e-01,1,1,0,2.300000e+00,1
5,763,5,2.568000e+01,51,1,1,1,1.023363e+00,1,1,0,1.200000e+00,1
5,764,5,9.105000e+01,22,2,2,1,3.206291e-01,3,1,0,2.100000e+00,1
5,765,5,1.423900e+02,35,3,3,1,3.544980e-01,1,1,0,3.100000e+00,1
5,766,5,1.203000e+02,33,3,2,0,3.957576e-01,2,1,0,3.100000e+00,1
5,767,5,1.423900e+02,35,3,3,1,2.612058e-01,2,1,0,3.100000e+00,1
5,768,5,1.384800e+02,60,3,2,0,2.783115e-01,1,1,0,3.100000e+00,1
5,769,5,8.510000e+00,36,1,1,1,4.637630e-01,1,1,0,1.200000e+00,1
5,770,5,1.153200e+02,4,3,3,1,4.734667e-01,3,1,0,3.100000e+00,1
5,771,5,4.907000e+01,65,2,1,0,3.239329e-01,1,1,0,2.100000e+00,1
5,772,5,1.008600e+02,66,3,2,0,3.323278e-01,1,1,0,3.200000e+00,1
5,773,5,2.510000e+01,42,1,1,1,3.897366e-01,1,1,0,1.300000e+00,1
5,774,5,2.169000e+01,10,1,1,1,3.032835e-01,3,1,0,1.200000e+00,1
5,775,5,1.153200e+02,4,3,3,1,3.285407e-01,4,1,0,3.100000e+00,1
5,776,5,1.227500e+02,55,3,3,1,2.498999e-01,1,1,0,3.200000e+00,1
5,777,5,5.213000e+01,18,2,2,1,2.674529e-01,1,1,0,2.100000e+00,1
5,778,5,2.568000e+01,51,1,1,1,4.285422e-01,2,1,0,1.200000e+00,1
5,779,5,9.823000e+01,39,3,3,1,2.699649e-01,2,1,0,3.100000e+00,1
5,780,5,7.923000e+01,9,2,3,0,4.156383e-01,1,1,0,2.300000e+00,1
5,781,5,9.823000e+01,39,3,3,1,2.967351e-01,3,1,0,3.100000e+00,1
5,782,5,4.907000e+01,65,2,2,1,1.031734e-02,2,1,0,2.100000e+00,1
5,783,5,4.502000e+01,56,1,1,1,3.727226e-01,1,1,0,1.300000e+00,1
5,784,5,1.312200e+02,48,3,3,1,3.501199e-01,1,1,0,3.100000e+00,1
5,785,5,2.510000e+01,42,1,1,1,4.313703e-01,2,1,0,1.300000e+00,1
5,786,5,1.337000e+02,54,3,1,0,3.203949e-01,1,1,0,3.200000e+00,1
5,787,5,1.337000e+02,54,3,3,1,3.144086e-01,2,1,0,3.200000e+00,1
5,788,5,1.183700e+02,29,3,3,1,3.397431e-01,1,1,0,3.100000e+00,1
5,789,5,5.213000e+01,18,2,2,1,3.490073e-01,2,1,0,2.100000e+00,1
5,790,5,4.907000e+01,65,2,2,1,3.505144e-01,3,1,0,2.100000e+00,1
5,791,5,4.150000e+01,26,1,1,1,2.960915e-01,3,1,0,1.200000e+00,1
5,792,5,1.413100e+02,62,3,2,0,4.410996e-01,1,1,0,3.100000e+00,1
5,793,5,2.857000e+01,53,1,1,1,4.825214e-01,2,1,0,1.200000e+00,1
5,794,5,6.027000e+01,27,2,2,1,1.180297e+00,2,1,0,2.300000e+00,1
5,795,5,9.610000e+00,24,1,1,1,3.176713e-01,1,1,0,1.200000e+00,1
5,796,5,1.183700e+02,29,3,3,1,1.166721e+00,2,1,0,3.100000e+00,1
5,797,5,3.505000e+01,52,1,1,1,3.200532e-01,2,1,0,1.300000e+00,1
5,798,5,6.001000e+01,23,2,2,1,3.055848e-01,2,1,0,2.100000e+00,1
5,799,5,1.304200e+02,72,3,1,0,2.509675e-01,2,1,0,3.100000e+00,1
5,800,5,6.001000e+01,23,2,3,0,1.052616e+00,3,1,0,2.100000e+00,1
5,801,5,1.312200e+02,48,3,3,1,3.900590e-01,2,1,0,3.100000e+00,1
5,802,5,1.268100e+02,20,3,3,1,3.514616e-01,4,1,0,3.200000e+00,1
5,803,5,8.510000e+00,36,1,1,1,5.852567e-01,2,1,0,1.200000e+00,1
5,804,5,2.169000e+01,10,1,1,1,4.265098e-01,4,1,0,1.200000e+00,1
5,805,5,1.307000e+01,21,1,3,0,2.604744e-01,1,1,0,1.300000e+00,1
5,806,5,8.529000e+01,1,2,2,1,3.260311e-01,2,1,0,2.300000e+00,1
5,807,5,7.844000e+01,46,2,2,1,3.042159e-01,2,1,0,2.300000e+00,1
5,808,5,2.111000e+01,59,1,1,1,3.370750e-01,2,1,0,1.300000e+00,1
5,809,5,3.606000e+01,43,1,1,1,3.150666e-01,3,1,0,1.300000e+00,1
5,810,5,1.304200e+02,72,3,3,1,3.160561e-01,3,1,0,3.100000e+00,1
5,811,5,7.735000e+01,25,2,2,1,2.936384e-01,1,1,0,2.300000e+00,1
5,812,5,1.423900e+02,35,3,3,1,2.956143e-01,3,1,0,3.100000e+00,1
5,813,5,2.762000e+01,57,1,3,0,4.893632e-01,2,1,0,1.200000e+00,1
5,814,5,2.568000e+01,51,1,1,1,3.383023e-01,3,1,0,1.200000e+00,1
5,815,5,1.337000e+02,54,3,3,1,1.482491e-01,3,1,0,3.200000e+00,1
5,816,5,1.163000e+01,3,1,2,0,2.935430e-01,1,1,0,1.200000e+00,1
5,817,5,9.610000e+00,24,1,2,0,6.555670e-01,2,1,0,1.200000e+00,1
5,818,5,1.194700e+02,34,3,2,0,8.373402e-04,1,1,0,3.100000e+00,1
5,819,5,8.510000e+00,36,1,1,1,1.130138e+00,3,1,0,1.200000e+00,1
5,820,5,6.001000e+01,23,2,3,0,2.916253e-01,4,1,0,2.100000e+00,1
5,821,5,8.529000e+01,1,2,2,1,1.205243e+00,3,1,0,2.300000e+00,1
5,822,5,1.008600e+02,66,3,3,1,3.025786e-01,2,1,0,3.200000e+00,1
5,823,5,4.502000e+01,56,1,1,1,6.162145e-01,2,1,0,1.300000e+00,1
5,824,5,9.105000e+01,22,2,2,1,3.376908e-01,4,1,0,2.100000e+00,1
5,825,5,1.183700e+02,29,3,3,1,2.026656e-01,3,1,0,3.100000e+00,1
5,826,5,1.259500e+02,61,3,0,0,2.500363e+00,2,1,0,3.200000e+00,1
5,827,5,1.312200e+02,48,3,3,1,1.078568e+00,3,1,0,3.100000e+00,1
5,828,5,9.610000e+00,24,1,1,1,2.961314e-01,3,1,0,1.200000e+00,1
5,829,5,3.505000e+01,52,1,1,1,5.374758e-01,3,1,0,1.300000e+00,1
5,830,5,1.377300e+02,71,3,3,1,4.984909e-01,2,1,0,3.200000e+00,1
5,831,5,8.628000e+01,32,2,2,1,2.682531e-01,1,1,0,2.300000e+00,1
5,832,5,6.606000e+01,5,2,3,0,2.691705e-01,1,1,0,2.100000e+00,1
5,833,5,1.259500e+02,61,3,3,1,6.299974e-02,3,1,0,3.200000e+00,1
5,834,5,1.169400e+02,58,3,2,0,2.878609e-01,2,1,0,3.200000e+00,1
5,835,5,1.307000e+01,21,1,1,1,2.576946e-01,2,1,0,1.300000e+00,1
5,836,5,1.384800e+02,60,3,3,1,2.769501e-03,2,1,0,3.100000e+00,1
5,837,5,1.312200e+02,48,3,3,1,1.482098e-04,4,1,0,3.100000e+00,1
5,838,5,7.417000e+01,13,2,1,0,2.779275e-01,1,1,0,2.100000e+00,1
5,839,5,1.194700e+02,34,3,3,1,3.832956e-01,2,1,0,3.100000e+00,1
5,840,5,1.163000e+01,3,1,1,1,6.495242e-02,2,1,0,1.200000e+00,1
5,841,5,1.097900e+02,2,3,3,1,2.822416e-01,2,1,0,3.200000e+00,1
5,842,5,1.169400e+02,58,3,0,0,2.500063e+00,3,1,0,3.200000e+00,1
5,843,5,9.971000e+01,17,3,3,1,4.214426e-01,2,1,0,3.200000e+00,1
5,844,5,6.027000e+01,27,2,2,1,7.139729e-02,3,1,0,2.300000e+00,1
5,845,5,1.307000e+01,21,1,1,1,4.877190e-02,3,1,0,1.300000e+00,1
5,846,5,8.529000e+01,1,2,2,1,2.659077e-01,4,1,0,2.300000e+00,1
5,847,5,1.514000e+01,15,1,3,0,3.476631e-01,2,1,0,1.300000e+00,1
5,848,5,1.377300e+02,71,3,3,1,3.889705e-01,3,1,0,3.200000e+00,1
5,849,5,6.718000e+01,31,2,1,0,3.343490e-01,2,1,0,2.100000e+00,1
5,850,5,2.510000e+01,42,1,1,1,5.574530e-02,3,1,0,1.300000e+00,1
5,851,5,3.904000e+01,8,1,3,0,2.892268e-01,2,1,0,1.300000e+00,1
5,852,5,3.397000e+01,30,1,1,1,3.146612e-01,2,1,0,1.300000e+00,1
5,853,5,6.606000e+01,5,2,2,1,2.840823e-01,2,1,0,2.100000e+00,1
5,854,5,7.735000e+01,25,2,2,1,3.812080e-01,2,1,0,2.300000e+00,1
5,855,5,7.735000e+01,25,2,2,1,3.109397e-01,3,1,0,2.300000e+00,1
5,856,5,2.510000e+01,42,1,1,1,2.810773e-01,4,1,0,1.300000e+00,1
5,857,5,9.823000e+01,39,3,3,1,2.581637e-01,4,1,0,3.100000e+00,1
5,858,5,2.111000e+01,59,1,1,1,2.835631e-01,3,1,0,1.300000e+00,1
5,859,5,1.259500e+02,61,3,3,1,1.663210e-04,4,1,0,3.200000e+00,1
5,860,5,9.610000e+00,24,1,1,1,3.029801e-01,4,1,0,1.200000e+00,1
5,861,5,7.735000e+01,25,2,2,1,3.760850e-01,4,1,0,2.300000e+00,1
5,862,5,8.628000e+01,32,2,2,1,2.259928e-01,2,1,0,2.300000e+00,1
5,863,5,6.027000e+01,27,2,2,1,2.999054e-01,4,1,0,2.300000e+00,1
5,864,5,6.532000e+01,49,2,3,0,3.255663e-01,2,1,0,2.300000e+00,1
5,865,5,1.307000e+01,21,1,1,1,5.757499e-01,4,1,0,1.300000e+00,1
5,866,5,1.194700e+02,34,3,3,1,3.219045e-01,3,1,0,3.100000e+00,1
5,867,5,6.718000e+01,31,2,2,1,3.553908e-01,3,1,0,2.100000e+00,1
5,868,5,2.857000e+01,53,1,1,1,2.768067e-01,3,1,0,1.200000e+00,1
5,869,5,8.628000e+01,32,2,2,1,1.105449e-01,3,1,0,2.300000e+00,1
5,870,5,1.183700e+02,29,3,3,1,5.601244e-01,4,1,0,3.100000e+00,1
5,871,5,2.857000e+01,53,1,1,1,1.714206e+00,4,1,0,1.200000e+00,1
5,872,5,3.505000e+01,52,1,1,1,1.433802e-04,4,1,0,1.300000e+00,1
5,873,5,3.397000e+01,30,1,1,1,3.978296e-01,3,1,0,1.300000e+00,1
5,874,5,4.502000e+01,56,1,1,1,2.710223e-01,3,1,0,1.300000e+00,1
5,875,5,1.018200e+02,11,3,3,1,3.286539e-01,3,1,0,3.200000e+00,1
5,876,5,8.510000e+00,36,1,1,1,2.819038e-01,4,1,0,1.200000e+00,1
5,877,5,1.203000e+02,33,3,1,0,6.191741e-01,3,1,0,3.100000e+00,1
5,878,5,2.712000e+01,47,1,1,1,3.408711e-01,1,1,0,1.300000e+00,1
5,879,5,1.514000e+01,15,1,1,1,1.099838e-01,3,1,0,1.300000e+00,1
5,880,5,6.532000e+01,49,2,2,1,2.403734e-01,3,1,0,2.300000e+00,1
5,881,5,3.904000e+01,8,1,2,0,6.258943e-01,3,1,0,1.300000e+00,1
5,882,5,1.337000e+02,54,3,3,1,1.659597e+00,4,1,0,3.200000e+00,1
5,883,5,1.377300e+02,71,3,3,1,7.339380e-01,4,1,0,3.200000e+00,1
5,884,5,1.018200e+02,11,3,2,0,1.367519e+00,4,1,0,3.200000e+00,1
5,885,5,9.017000e+01,50,2,1,0,1.464849e+00,3,1,0,2.300000e+00,1
5,886,5,1.227500e+02,55,3,3,1,2.983681e-01,2,1,0,3.200000e+00,1
5,887,5,1.097900e+02,2,3,3,1,3.396290e-01,3,1,0,3.200000e+00,1
5,888,5,1.169400e+02,58,3,3,1,1.173225e+00,4,1,0,3.200000e+00,1
5,889,5,9.971000e+01,17,3,3,1,2.786305e-01,3,1,0,3.200000e+00,1
5,890,5,6.606000e+01,5,2,2,1,3.835287e-01,3,1,0,2.100000e+00,1
5,891,5,2.762000e+01,57,1,0,0,2.500454e+00,3,1,0,1.200000e+00,1
5,892,5,1.384800e+02,60,3,3,1,3.155281e-01,3,1,0,3.100000e+00,1
5,893,5,1.008600e+02,66,3,3,1,2.451251e-01,3,1,0,3.200000e+00,1
5,894,5,1.423900e+02,35,3,1,0,1.125979e+00,4,1,0,3.100000e+00,1
5,895,5,1.413100e+02,62,3,3,1,3.124686e-01,2,1,0,3.100000e+00,1
5,896,5,4.150000e+01,26,1,1,1,6.813154e-01,4,1,0,1.200000e+00,1
5,897,5,7.923000e+01,9,2,3,0,5.228954e-01,2,1,0,2.300000e+00,1
5,898,5,9.017000e+01,50,2,2,1,3.403957e-01,4,1,0,2.300000e+00,1
5,899,5,7.417000e+01,13,2,2,1,1.077730e+00,2,1,0,2.100000e+00,1
5,900,5,1.369600e+02,16,3,1,0,8.715673e-02,3,1,0,3.200000e+00,1
5,901,5,9.971000e+01,17,3,3,1,1.208740e-01,4,1,0,3.200000e+00,1
5,902,5,1.413100e+02,62,3,3,1,1.298238e+00,3,1,0,3.100000e+00,1
5,903,5,6.532000e+01,49,2,3,0,1.243443e+00,4,1,0,2.300000e+00,1
5,904,5,1.369600e+02,16,3,0,0,2.500571e+00,4,1,0,3.200000e+00,1
5,905,5,1.203000e+02,33,3,1,0,5.989065e-01,4,1,0,3.100000e+00,1
5,906,5,4.907000e+01,65,2,2,1,1.568730e-03,4,1,0,2.100000e+00,1
5,907,5,7.417000e+01,13,2,2,1,4.822817e-01,3,1,0,2.100000e+00,1
5,908,5,2.712000e+01,47,1,1,1,2.913147e-01,2,1,0,1.300000e+00,1
5,909,5,4.502000e+01,56,1,1,1,1.892815e+00,4,1,0,1.300000e+00,1
5,910,5,1.163000e+01,3,1,1,1,3.026656e-01,3,1,0,1.200000e+00,1
5,911,5,3.904000e+01,8,1,1,1,7.923436e-01,4,1,0,1.300000e+00,1
5,912,5,6.606000e+01,5,2,2,1,1.707501e-01,4,1,0,2.100000e+00,1
5,913,5,8.628000e+01,32,2,2,1,1.079275e-01,4,1,0,2.300000e+00,1
5,914,5,5.213000e+01,18,2,2,1,2.852589e-01,3,1,0,2.100000e+00,1
5,915,5,1.304200e+02,72,3,1,0,3.508552e-01,4,1,0,3.100000e+00,1
5,916,5,1.413100e+02,62,3,3,1,1.463987e-04,4,1,0,3.100000e+00,1
5,917,5,6.718000e+01,31,2,2,1,2.895893e-01,4,1,0,2.100000e+00,1
5,918,5,1.384800e+02,60,3,3,1,3.629619e-01,4,1,0,3.100000e+00,1
5,919,5,1.097900e+02,2,3,3,1,2.843054e-01,4,1,0,3.200000e+00,1
5,920,5,1.227500e+02,55,3,3,1,2.551542e-01,3,1,0,3.200000e+00,1
5,921,5,7.844000e+01,46,2,2,1,1.592972e-01,3,1,0,2.300000e+00,1
5,922,5,7.923000e+01,9,2,2,1,3.453720e-01,3,1,0,2.300000e+00,1
5,923,5,2.111000e+01,59,1,1,1,2.989214e-01,4,1,0,1.300000e+00,1
5,924,5,2.762000e+01,57,1,1,1,2.682782e-01,4,1,0,1.200000e+00,1
5,925,5,2.712000e+01,47,1,1,1,2.616262e-01,3,1,0,1.300000e+00,1
5,926,5,3.606000e+01,43,1,3,0,3.187320e-01,4,1,0,1.300000e+00,1
5,927,5,7.923000e+01,9,2,2,1,1.203862e-01,4,1,0,2.300000e+00,1
5,928,5,7.417000e+01,13,2,2,1,2.976446e-01,4,1,0,2.100000e+00,1
5,929,5,7.844000e+01,46,2,2,1,1.811029e+00,4,1,0,2.300000e+00,1
5,930,5,1.514000e+01,15,1,1,1,2.931753e-01,4,1,0,1.300000e+00,1
5,931,5,1.194700e+02,34,3,3,1,6.313044e-02,4,1,0,3.100000e+00,1
5,932,5,2.568000e+01,51,1,1,1,3.288827e-01,4,1,0,1.200000e+00,1
5,933,5,5.213000e+01,18,2,2,1,2.185666e-01,4,1,0,2.100000e+00,1
5,934,5,3.397000e+01,30,1,1,1,3.474856e-01,4,1,0,1.300000e+00,1
5,935,5,2.712000e+01,47,1,1,1,4.212618e-01,4,1,0,1.300000e+00,1
5,936,5,1.008600e+02,66,3,3,1,1.439839e-04,4,1,0,3.200000e+00,1
5,937,5,1.163000e+01,3,1,1,1,5.760906e-01,4,1,0,1.200000e+00,1
5,938,5,1.227500e+02,55,3,3,1,3.299576e-01,4,1,0,3.200000e+00,1
5,939,6,117,50,2,1,0,1.243573e+00,NaN,2,0,3,1
5,940,6,129,1,1,1,1,1.920375e+00,NaN,2,0,3,1
5,941,6,31,62,2,2,1,1.009818e+00,NaN,2,0,1,1
5,942,6,37,29,2,2,1,1.535623e+00,NaN,2,0,1,1
5,943,6,58,45,1,1,1,7.686095e-01,NaN,2,1,2,1
5,944,6,124,67,2,2,1,1.279973e+00,NaN,2,1,3,1
5,945,6,82,11,2,2,1,8.427168e-01,NaN,2,0,2,1
5,946,6,17,13,2,2,1,1.351077e+00,NaN,2,0,1,1
5,947,6,56,40,2,2,1,6.870895e-01,NaN,2,1,2,1
5,948,6,43,37,2,2,1,9.378415e-01,NaN,2,1,1,1
5,949,6,73,71,1,1,1,1.434683e+00,NaN,2,0,2,1
5,950,6,53,44,2,2,1,7.275858e-01,NaN,2,1,2,1
5,951,6,62,57,1,1,1,1.185011e+00,NaN,2,0,2,1
5,952,6,48,60,1,1,1,1.175129e+00,NaN,2,0,1,1
5,953,6,143,68,2,2,1,9.269920e-01,NaN,2,1,3,1
5,954,6,4,12,2,2,1,9.361789e-01,NaN,2,1,1,1
5,955,6,134,38,1,1,1,1.320976e+00,NaN,2,1,3,1
5,956,6,68,51,1,1,1,6.582683e-01,NaN,2,0,2,1
5,957,6,105,52,2,2,1,1.454113e+00,NaN,2,0,3,1
5,958,6,110,42,2,1,0,1.218372e+00,NaN,2,0,3,1
5,959,6,95,61,2,1,0,1.431598e+00,NaN,2,0,2,1
5,960,6,75,55,2,2,1,8.363607e-01,NaN,2,0,2,1
5,961,6,135,25,1,1,1,1.192966e+00,NaN,2,0,3,1
5,962,6,70,54,1,1,1,7.195421e-01,NaN,2,0,2,1
5,963,6,106,43,1,1,1,1.017237e+00,NaN,2,0,3,1
5,964,6,104,8,1,1,1,1.246187e+00,NaN,2,0,3,1
5,965,6,102,56,1,1,1,1.922461e+00,NaN,2,0,3,1
5,966,6,81,20,2,2,1,8.607054e-01,NaN,2,0,2,1
5,967,6,97,30,1,1,1,1.991448e+00,NaN,2,0,3,1
5,968,6,39,35,2,2,1,8.544000e-01,NaN,2,0,1,1
5,969,6,22,48,2,1,0,1.642578e+00,NaN,2,0,1,1
5,970,6,128,32,1,0,0,3.499567e+00,NaN,2,0,3,1
5,971,6,45,14,2,1,0,8.810277e-01,NaN,2,1,1,1
5,972,6,5,22,1,1,1,8.680960e-01,NaN,2,0,1,1
5,973,6,63,3,2,2,1,7.113929e-01,NaN,2,0,2,1
5,974,6,92,41,2,2,1,1.289058e+00,NaN,2,1,2,1
5,975,6,112,47,2,2,1,2.979792e+00,NaN,2,0,3,1
5,976,6,139,28,1,2,0,2.114766e+00,NaN,2,1,3,1
5,977,6,32,4,1,1,1,1.164308e+00,NaN,2,0,1,1
5,978,6,51,36,1,1,1,6.355035e-01,NaN,2,0,2,1
5,979,6,123,9,1,2,0,1.439871e+00,NaN,2,0,3,1
5,980,6,23,39,2,2,1,1.821323e+00,NaN,2,0,1,1
5,981,6,6,5,2,2,1,9.464941e-01,NaN,2,0,1,1
5,982,6,50,26,2,2,1,9.783967e-01,NaN,2,0,2,1
5,983,6,65,64,1,1,1,9.290975e-01,NaN,2,1,2,1
5,984,6,79,2,2,2,1,6.014843e-01,NaN,2,0,2,1
5,985,6,132,49,1,1,1,1.695253e+00,NaN,2,0,3,1
5,986,6,111,59,2,2,1,1.889598e+00,NaN,2,0,3,1
5,987,6,57,53,1,1,1,6.602346e-01,NaN,2,0,2,1
5,988,6,13,18,1,1,1,1.408248e+00,NaN,2,0,1,1
5,989,6,107,21,1,2,0,8.946458e-01,NaN,2,0,3,1
5,990,6,18,31,1,2,0,1.537213e+00,NaN,2,0,1,1
5,991,6,86,66,1,1,1,7.856144e-01,NaN,2,0,2,1
5,992,6,7,65,1,1,1,8.885034e-01,NaN,2,0,1,1
5,993,6,127,27,1,1,1,1.106959e+00,NaN,2,0,3,1
5,994,6,69,10,2,2,1,6.536883e-01,NaN,2,0,2,1
5,995,6,15,6,2,2,1,1.169347e+00,NaN,2,1,1,1
5,996,6,61,24,1,1,1,8.489808e-01,NaN,2,0,2,1
5,997,6,71,17,2,2,1,7.968502e-01,NaN,2,0,2,1
5,998,6,144,46,2,1,0,1.522735e+00,NaN,2,0,3,1
5,999,6,94,58,2,2,1,8.842841e-01,NaN,2,0,2,1
5,1000,6,19,7,2,2,1,2.094420e+00,NaN,2,1,1,1
5,1001,6,10,69,2,2,1,1.240911e+00,NaN,2,1,1,1
5,1002,6,113,70,2,1,0,1.901446e+00,NaN,2,1,3,1
5,1003,6,3,63,2,2,1,1.623413e+00,NaN,2,1,1,1
5,1004,6,1,23,2,1,0,2.764524e+00,NaN,2,0,1,1
5,1005,6,42,72,2,2,1,1.588514e+00,NaN,2,0,1,1
5,1006,6,96,16,1,1,1,1.034986e+00,NaN,2,0,2,1
5,1007,6,114,15,2,2,1,2.063692e+00,NaN,2,0,3,1
5,1008,6,47,34,2,2,1,1.090809e+00,NaN,2,0,1,1
5,1009,6,108,19,1,1,1,1.757724e+00,NaN,2,1,3,1
5,1010,6,30,33,1,1,1,1.245868e+00,NaN,2,0,1,1
5,1011,6,28,53,2,2,1,1.993635e+00,NaN,1,0,1,1
5,1012,6,33,30,2,2,1,2.808498e+00,NaN,1,0,1,1
5,1013,6,90,7,2,1,0,7.344774e-01,NaN,1,1,2,1
5,1014,6,87,67,2,2,1,1.487480e+00,NaN,1,1,2,1
5,1015,6,77,46,2,2,1,1.018174e+00,NaN,1,0,2,1
5,1016,6,85,32,2,2,1,7.593595e-01,NaN,1,0,2,1
5,1017,6,27,57,1,2,0,1.903243e+00,NaN,1,0,1,1
5,1018,6,74,13,1,1,1,8.173201e-01,NaN,1,0,2,1
5,1019,6,80,12,2,2,1,7.029160e-01,NaN,1,1,2,1
5,1020,6,88,28,1,1,1,1.448825e+00,NaN,1,1,2,1
5,1021,6,120,33,2,2,1,2.500454e+00,NaN,1,0,3,1
5,1022,6,119,34,2,1,0,2.526912e+00,NaN,1,0,3,1
5,1023,6,99,17,2,2,1,2.016486e+00,NaN,1,0,3,1
5,1024,6,26,47,1,1,1,1.213622e+00,NaN,1,0,1,1
5,1025,6,83,63,2,2,1,1.602828e+00,NaN,1,1,2,1
5,1026,6,20,59,1,1,1,1.025319e+00,NaN,1,0,1,1
5,1027,6,130,72,2,1,0,2.358216e+00,NaN,1,0,3,1
5,1028,6,38,8,1,2,0,1.270238e+00,NaN,1,0,1,1
5,1029,6,54,69,1,1,1,1.105853e+00,NaN,1,1,2,1
5,1030,6,8,36,2,2,1,1.259899e+00,NaN,1,0,1,1
5,1031,6,36,70,2,2,1,1.064185e+00,NaN,1,1,1,1
5,1032,6,141,62,2,2,1,9.791411e-01,NaN,1,0,3,1
5,1033,6,122,55,2,2,1,1.314120e+00,NaN,1,0,3,1
5,1034,6,24,42,1,1,1,1.139343e+00,NaN,1,0,1,1
5,1035,6,55,38,2,2,1,1.716082e+00,NaN,1,1,2,1
5,1036,6,101,11,1,1,1,9.251975e-01,NaN,1,0,3,1
5,1037,6,49,65,1,1,1,1.342554e+00,NaN,1,0,2,1
5,1038,6,21,10,2,2,1,1.087549e+00,NaN,1,0,1,1
5,1039,6,116,58,1,2,0,2.282473e+00,NaN,1,0,3,1
5,1040,6,44,56,1,2,0,2.005070e+00,NaN,1,0,1,1
5,1041,6,40,19,2,2,1,1.178856e+00,NaN,1,1,1,1
5,1042,6,66,5,1,1,1,1.009707e+00,NaN,1,0,2,1
5,1043,6,11,3,2,2,1,8.958764e-01,NaN,1,0,1,1
5,1044,6,72,68,2,2,1,1.017911e+00,NaN,1,1,2,1
5,1045,6,60,23,1,1,1,6.870488e-01,NaN,1,0,2,1
5,1046,6,64,49,2,2,1,6.817437e-01,NaN,1,0,2,1
5,1047,6,29,64,1,1,1,1.900351e+00,NaN,1,1,1,1
5,1048,6,25,51,2,2,1,7.985216e-01,NaN,1,0,1,1
5,1049,6,118,29,1,1,1,1.260343e+00,NaN,1,0,3,1
5,1050,6,35,43,2,2,1,1.272341e+00,NaN,1,0,1,1
5,1051,6,142,35,2,2,1,2.363570e+00,NaN,1,0,3,1
5,1052,6,121,41,1,1,1,3.371411e+00,NaN,1,1,3,1
5,1053,6,98,39,1,1,1,2.634541e+00,NaN,1,0,3,1
5,1054,6,2,44,2,1,0,1.983009e+00,NaN,1,1,1,1
5,1055,6,16,45,2,2,1,9.739441e-01,NaN,1,1,1,1
5,1056,6,140,37,1,1,1,1.205591e+00,NaN,1,1,3,1
5,1057,6,34,52,1,1,1,1.779362e+00,NaN,1,0,1,1
5,1058,6,59,27,1,1,1,1.466292e+00,NaN,1,0,2,1
5,1059,6,100,66,1,1,1,1.309550e+00,NaN,1,0,3,1
5,1060,6,131,48,2,2,1,8.076206e-01,NaN,1,0,3,1
5,1061,6,115,4,1,2,0,1.805623e+00,NaN,1,0,3,1
5,1062,6,103,14,1,1,1,1.371523e+00,NaN,1,1,3,1
5,1063,6,67,31,2,2,1,1.130964e+00,NaN,1,0,2,1
5,1064,6,89,50,2,2,1,6.434250e-01,NaN,1,0,2,1
5,1065,6,126,20,1,2,0,1.504424e+00,NaN,1,0,3,1
5,1066,6,76,25,1,1,1,8.421747e-01,NaN,1,0,2,1
5,1067,6,12,21,1,1,1,2.766771e+00,NaN,1,0,1,1
5,1068,6,41,26,1,1,1,1.454177e+00,NaN,1,0,1,1
5,1069,6,93,6,1,1,1,8.827464e-01,NaN,1,1,2,1
5,1070,6,109,2,1,1,1,9.573120e-01,NaN,1,0,3,1
5,1071,6,14,15,2,2,1,2.549103e+00,NaN,1,0,1,1
5,1072,6,46,40,1,1,1,1.693342e+00,NaN,1,1,1,1
5,1073,6,137,71,1,1,1,1.656130e+00,NaN,1,0,3,1
5,1074,6,125,61,2,1,0,1.796400e+00,NaN,1,0,3,1
5,1075,6,78,9,2,2,1,7.946832e-01,NaN,1,0,2,1
5,1076,6,9,24,1,1,1,1.264500e+00,NaN,1,0,1,1
5,1077,6,133,54,1,1,1,2.332011e+00,NaN,1,0,3,1
5,1078,6,84,1,2,1,0,8.288089e-01,NaN,1,0,2,1
5,1079,6,91,22,1,1,1,9.535602e-01,NaN,1,0,2,1
5,1080,6,52,18,1,1,1,1.201153e+00,NaN,1,0,2,1
5,1081,6,138,60,1,2,0,1.535763e+00,NaN,1,0,3,1
5,1082,6,136,16,2,2,1,1.024116e+00,NaN,1,0,3,1
