Subject,Trial,Cond,ImageNum,CueNum,Correct,Resp,Accuracy,RT,CueRep,ImageType,Baseline,Category,Block
9,1,1,54,NaN,NaN,1,NaN,4.347026e+00,NaN,0,1,2,1
9,2,1,103,NaN,NaN,1,NaN,2.366135e-02,NaN,1,0,3,1
9,3,1,9,NaN,NaN,2,NaN,3.766899e-01,NaN,0,0,1,1
9,4,1,3,NaN,NaN,2,NaN,1.711624e-01,NaN,0,0,1,1
9,5,1,107,NaN,NaN,1,NaN,8.374974e-01,NaN,0,1,3,1
9,6,1,7,NaN,NaN,1,NaN,8.215527e-01,NaN,1,0,1,1
9,7,1,64,NaN,NaN,1,NaN,6.067523e-01,NaN,0,0,2,1
9,8,1,61,NaN,NaN,1,NaN,5.680058e-01,NaN,1,1,2,1
9,9,1,49,NaN,NaN,1,NaN,5.385266e-01,NaN,1,0,2,1
9,10,1,2,NaN,NaN,1,NaN,1.326695e+00,NaN,1,0,1,1
9,11,1,70,NaN,NaN,1,NaN,1.240615e-04,NaN,2,1,2,1
9,12,1,23,NaN,NaN,2,NaN,3.246701e-01,NaN,0,0,1,1
9,13,1,89,NaN,NaN,1,NaN,1.137263e+00,NaN,0,1,2,1
9,14,1,88,NaN,NaN,1,NaN,8.535289e-01,NaN,2,0,2,1
9,15,1,96,NaN,NaN,1,NaN,9.088993e-01,NaN,1,0,2,1
9,16,1,50,NaN,NaN,1,NaN,1.018245e+00,NaN,2,1,2,1
9,17,1,88,NaN,NaN,1,NaN,1.658868e+00,NaN,0,0,2,1
9,18,1,81,NaN,NaN,1,NaN,3.506638e+00,NaN,2,0,2,1
9,19,1,20,NaN,NaN,1,NaN,1.135996e+00,NaN,0,1,1,1
9,20,1,65,NaN,NaN,1,NaN,8.837848e-01,NaN,0,0,2,1
9,21,1,16,NaN,NaN,1,NaN,1.209758e+00,NaN,1,0,1,1
9,22,1,92,NaN,NaN,1,NaN,5.871430e-01,NaN,1,0,2,1
9,23,1,52,NaN,NaN,1,NaN,1.741113e+00,NaN,0,0,2,1
9,24,1,37,NaN,NaN,2,NaN,7.610157e-01,NaN,0,0,1,1
9,25,1,106,NaN,NaN,1,NaN,6.280589e-01,NaN,0,1,3,1
9,26,1,43,NaN,NaN,1,NaN,7.161550e-01,NaN,0,0,1,1
9,27,1,10,NaN,NaN,1,NaN,1.192599e+00,NaN,0,1,1,1
9,28,1,140,NaN,NaN,1,NaN,2.830847e-01,NaN,2,0,3,1
9,29,1,100,NaN,NaN,2,NaN,2.251262e-01,NaN,1,0,3,1
9,30,1,143,NaN,NaN,1,NaN,8.657774e-01,NaN,1,1,3,1
9,31,1,80,NaN,NaN,1,NaN,6.565966e-01,NaN,0,0,2,1
9,32,1,139,NaN,NaN,1,NaN,7.756526e-01,NaN,1,0,3,1
9,33,1,1,NaN,NaN,1,NaN,1.258498e+00,NaN,0,0,1,1
9,34,1,105,NaN,NaN,1,NaN,1.601440e+00,NaN,0,0,3,1
9,35,1,98,NaN,NaN,1,NaN,3.551394e-01,NaN,2,0,3,1
9,36,1,99,NaN,NaN,1,NaN,1.030694e+00,NaN,2,1,3,1
9,37,1,26,NaN,NaN,1,NaN,5.108023e-01,NaN,2,0,1,1
9,38,1,139,NaN,NaN,1,NaN,4.444507e-01,NaN,0,0,3,1
9,39,1,6,NaN,NaN,1,NaN,1.155744e+00,NaN,0,0,1,1
9,40,1,120,NaN,NaN,1,NaN,5.748992e-01,NaN,0,0,3,1
9,41,1,63,NaN,NaN,1,NaN,5.451208e-01,NaN,0,1,2,1
9,42,1,65,NaN,NaN,1,NaN,9.267038e-02,NaN,2,0,2,1
9,43,1,119,NaN,NaN,2,NaN,2.745860e-01,NaN,2,0,3,1
9,44,1,86,NaN,NaN,2,NaN,2.736294e-01,NaN,0,0,2,1
9,45,1,98,NaN,NaN,1,NaN,3.601903e-01,NaN,0,0,3,1
9,46,1,66,NaN,NaN,2,NaN,3.157735e-01,NaN,2,0,2,1
9,47,1,87,NaN,NaN,2,NaN,2.481524e-01,NaN,1,0,2,1
9,48,1,124,NaN,NaN,2,NaN,9.277355e-01,NaN,2,0,3,1
9,49,1,95,NaN,NaN,2,NaN,2.917913e-01,NaN,2,1,2,1
9,50,1,48,NaN,NaN,2,NaN,4.181038e-01,NaN,0,0,1,1
9,51,1,26,NaN,NaN,1,NaN,2.825226e-01,NaN,0,0,1,1
9,52,1,138,NaN,NaN,2,NaN,3.285570e-01,NaN,1,0,3,1
9,53,1,69,NaN,NaN,2,NaN,1.279856e-04,NaN,2,0,2,1
9,54,1,67,NaN,NaN,2,NaN,2.301544e-01,NaN,2,1,2,1
9,55,1,14,NaN,NaN,2,NaN,5.979566e-01,NaN,1,1,1,1
9,56,1,132,NaN,NaN,2,NaN,7.431485e-01,NaN,1,1,3,1
9,57,1,30,NaN,NaN,2,NaN,2.034326e-01,NaN,0,1,1,1
9,58,1,38,NaN,NaN,2,NaN,6.687502e-01,NaN,2,0,1,1
9,59,1,81,NaN,NaN,1,NaN,3.235786e-01,NaN,0,0,2,1
9,60,1,131,NaN,NaN,2,NaN,1.327999e+00,NaN,2,0,3,1
9,61,1,121,NaN,NaN,2,NaN,7.802616e-01,NaN,1,0,3,1
9,62,1,4,NaN,NaN,2,NaN,1.741354e-01,NaN,1,0,1,1
9,63,1,75,NaN,NaN,2,NaN,4.969575e-01,NaN,0,0,2,1
9,64,1,34,NaN,NaN,2,NaN,3.742929e-01,NaN,0,0,1,1
9,65,1,46,NaN,NaN,1,NaN,1.057103e+00,NaN,1,0,1,1
9,66,1,117,NaN,NaN,1,NaN,7.526484e-01,NaN,0,0,3,1
9,67,1,79,NaN,NaN,1,NaN,1.699873e+00,NaN,1,0,2,1
9,68,1,114,NaN,NaN,1,NaN,2.730085e-01,NaN,0,0,3,1
9,69,1,113,NaN,NaN,1,NaN,2.718102e-01,NaN,2,0,3,1
9,70,1,143,NaN,NaN,1,NaN,4.946909e-01,NaN,0,1,3,1
9,71,1,84,NaN,NaN,2,NaN,3.804486e-01,NaN,0,0,2,1
9,72,1,101,NaN,NaN,2,NaN,5.373900e+00,NaN,2,1,3,1
9,73,1,130,NaN,NaN,2,NaN,8.409820e-01,NaN,1,0,3,1
9,74,1,136,NaN,NaN,1,NaN,8.408290e-01,NaN,1,0,3,1
9,75,1,38,NaN,NaN,1,NaN,6.010759e-01,NaN,0,0,1,1
9,76,1,4,NaN,NaN,1,NaN,1.082366e+00,NaN,0,0,1,1
9,77,1,113,NaN,NaN,1,NaN,3.200771e-01,NaN,0,0,3,1
9,78,1,62,NaN,NaN,2,NaN,2.690219e-01,NaN,1,0,2,1
9,79,1,124,NaN,NaN,1,NaN,1.347558e+00,NaN,0,0,3,1
9,80,1,39,NaN,NaN,2,NaN,1.862733e+00,NaN,2,0,1,1
9,81,1,28,NaN,NaN,1,NaN,1.549981e+00,NaN,1,0,1,1
9,82,1,41,NaN,NaN,2,NaN,6.489721e-01,NaN,2,0,1,1
9,83,1,63,NaN,NaN,1,NaN,1.258727e-04,NaN,1,1,2,1
9,84,1,70,NaN,NaN,0,NaN,9.995321e+00,NaN,0,1,2,1
9,85,1,116,NaN,NaN,2,NaN,3.747502e+00,NaN,0,0,3,1
9,86,1,125,NaN,NaN,1,NaN,1.990701e+00,NaN,0,1,3,1
9,87,1,17,NaN,NaN,2,NaN,1.246652e-04,NaN,1,0,1,1
9,88,1,44,NaN,NaN,1,NaN,1.282874e-04,NaN,2,1,1,1
9,89,1,6,NaN,NaN,2,NaN,9.959096e-02,NaN,1,0,1,1
9,90,1,73,NaN,NaN,2,NaN,2.648413e-01,NaN,2,0,2,1
9,91,1,8,NaN,NaN,2,NaN,5.034066e-01,NaN,2,0,1,1
9,92,1,3,NaN,NaN,1,NaN,1.234578e-04,NaN,2,0,1,1
9,93,1,59,NaN,NaN,1,NaN,1.243635e-04,NaN,1,1,2,1
9,94,1,15,NaN,NaN,2,NaN,2.479324e-01,NaN,0,0,1,1
9,95,1,115,NaN,NaN,2,NaN,1.567478e+00,NaN,0,1,3,1
9,96,1,47,NaN,NaN,2,NaN,1.034019e+00,NaN,2,0,1,1
9,97,1,23,NaN,NaN,2,NaN,2.009767e+00,NaN,1,0,1,1
9,98,1,128,NaN,NaN,1,NaN,1.099288e+00,NaN,0,0,3,1
9,99,1,11,NaN,NaN,1,NaN,5.126224e-01,NaN,0,1,1,1
9,100,1,108,NaN,NaN,2,NaN,2.298933e-01,NaN,1,1,3,1
9,101,1,27,NaN,NaN,1,NaN,9.172401e-01,NaN,2,0,1,1
9,102,1,86,NaN,NaN,1,NaN,5.380674e-01,NaN,2,0,2,1
9,103,1,93,NaN,NaN,1,NaN,8.726137e+00,NaN,0,0,2,1
9,104,1,100,NaN,NaN,1,NaN,3.219203e+00,NaN,0,0,3,1
9,105,1,20,NaN,NaN,1,NaN,3.107726e+00,NaN,2,1,1,1
9,106,1,39,NaN,NaN,1,NaN,1.249672e-04,NaN,0,0,1,1
9,107,1,40,NaN,NaN,2,NaN,1.234766e+00,NaN,0,0,1,1
9,108,1,116,NaN,NaN,1,NaN,1.291931e-04,NaN,2,0,3,1
9,109,1,54,NaN,NaN,1,NaN,4.757176e-01,NaN,2,1,2,1
9,110,1,133,NaN,NaN,1,NaN,9.227296e-01,NaN,0,0,3,1
9,111,1,59,NaN,NaN,1,NaN,2.714685e-01,NaN,0,1,2,1
9,112,1,118,NaN,NaN,1,NaN,2.303111e-01,NaN,1,0,3,1
9,113,1,61,NaN,NaN,1,NaN,6.463258e-01,NaN,0,1,2,1
9,114,1,24,NaN,NaN,2,NaN,2.381690e+00,NaN,0,1,1,1
9,115,1,102,NaN,NaN,2,NaN,7.753873e-01,NaN,0,0,3,1
9,116,1,68,NaN,NaN,2,NaN,5.382310e-01,NaN,1,0,2,1
9,117,1,22,NaN,NaN,2,NaN,6.387819e-01,NaN,2,0,1,1
9,118,1,105,NaN,NaN,2,NaN,8.385265e-01,NaN,2,0,3,1
9,119,1,18,NaN,NaN,2,NaN,3.665820e-01,NaN,0,1,1,1
9,120,1,62,NaN,NaN,1,NaN,5.929017e+00,NaN,0,0,2,1
9,121,1,129,NaN,NaN,1,NaN,1.781446e+00,NaN,1,0,3,1
9,122,1,142,NaN,NaN,2,NaN,3.407195e+00,NaN,0,1,3,1
9,123,1,122,NaN,NaN,2,NaN,3.672763e+00,NaN,2,0,3,1
9,124,1,9,NaN,NaN,2,NaN,1.951400e+00,NaN,2,0,1,1
9,125,1,111,NaN,NaN,2,NaN,7.390961e-01,NaN,2,0,3,1
9,126,1,123,NaN,NaN,2,NaN,5.428536e-01,NaN,1,0,3,1
9,127,1,134,NaN,NaN,1,NaN,7.950699e-01,NaN,0,0,3,1
9,128,1,74,NaN,NaN,0,NaN,9.995188e+00,NaN,0,0,2,1
9,129,1,132,NaN,NaN,1,NaN,1.817976e-01,NaN,0,1,3,1
9,130,1,118,NaN,NaN,1,NaN,2.241461e-01,NaN,0,0,3,1
9,131,1,135,NaN,NaN,2,NaN,4.085272e-01,NaN,2,0,3,1
9,132,1,111,NaN,NaN,2,NaN,1.834038e+00,NaN,0,0,3,1
9,133,1,117,NaN,NaN,1,NaN,2.154626e-03,NaN,2,0,3,1
9,134,1,7,NaN,NaN,1,NaN,2.033813e-01,NaN,0,0,1,1
9,135,1,125,NaN,NaN,1,NaN,4.505548e-02,NaN,2,1,3,1
9,136,1,13,NaN,NaN,2,NaN,1.962594e-01,NaN,0,0,1,1
9,137,1,52,NaN,NaN,1,NaN,1.045618e+00,NaN,1,0,2,1
9,138,1,19,NaN,NaN,2,NaN,8.364705e-01,NaN,0,0,1,1
9,139,1,109,NaN,NaN,2,NaN,5.328001e-01,NaN,0,0,3,1
9,140,1,112,NaN,NaN,2,NaN,1.665004e+00,NaN,1,0,3,1
9,141,1,42,NaN,NaN,1,NaN,1.112019e+00,NaN,1,0,1,1
9,142,1,130,NaN,NaN,1,NaN,3.804366e+00,NaN,0,0,3,1
9,143,1,47,NaN,NaN,1,NaN,5.017572e-01,NaN,0,0,1,1
9,144,1,73,NaN,NaN,1,NaN,2.354905e+00,NaN,0,0,2,1
9,145,1,34,NaN,NaN,1,NaN,3.006955e+00,NaN,2,0,1,1
9,146,1,77,NaN,NaN,2,NaN,5.041890e-01,NaN,0,0,2,1
9,147,1,122,NaN,NaN,2,NaN,1.453400e+00,NaN,0,0,3,1
9,148,1,115,NaN,NaN,2,NaN,1.053099e+00,NaN,2,1,3,1
9,149,1,2,NaN,NaN,1,NaN,2.439186e-01,NaN,0,0,1,1
9,150,1,89,NaN,NaN,1,NaN,1.059354e+00,NaN,2,1,2,1
9,151,1,135,NaN,NaN,1,NaN,7.150819e-01,NaN,0,0,3,1
9,152,1,45,NaN,NaN,1,NaN,3.871361e+00,NaN,2,1,1,1
9,153,1,12,NaN,NaN,2,NaN,4.540346e-01,NaN,0,0,1,1
9,154,1,108,NaN,NaN,1,NaN,6.138878e-01,NaN,0,1,3,1
9,155,1,1,NaN,NaN,1,NaN,8.304694e-01,NaN,2,0,1,1
9,156,1,5,NaN,NaN,2,NaN,1.414456e+00,NaN,1,0,1,1
9,157,1,114,NaN,NaN,1,NaN,3.752654e-01,NaN,2,0,3,1
9,158,1,19,NaN,NaN,1,NaN,6.097602e-01,NaN,2,0,1,1
9,159,1,77,NaN,NaN,1,NaN,1.474078e-01,NaN,2,0,2,1
9,160,1,83,NaN,NaN,1,NaN,9.826187e-01,NaN,0,0,2,1
9,161,1,104,NaN,NaN,1,NaN,2.256654e+00,NaN,0,0,3,1
9,162,1,18,NaN,NaN,1,NaN,3.922531e-01,NaN,1,1,1,1
9,163,1,32,NaN,NaN,1,NaN,2.178979e+00,NaN,1,1,1,1
9,164,1,58,NaN,NaN,1,NaN,1.332186e+00,NaN,0,1,2,1
9,165,1,133,NaN,NaN,1,NaN,4.561168e-01,NaN,1,0,3,1
9,166,1,36,NaN,NaN,2,NaN,9.676148e-01,NaN,0,0,1,1
9,167,1,102,NaN,NaN,1,NaN,1.554212e+00,NaN,2,0,3,1
9,168,1,140,NaN,NaN,1,NaN,8.058554e-01,NaN,0,0,3,1
9,169,1,144,NaN,NaN,1,NaN,9.671991e-01,NaN,0,0,3,1
9,170,1,112,NaN,NaN,1,NaN,6.019996e-01,NaN,0,0,3,1
9,171,1,64,NaN,NaN,2,NaN,3.675504e+00,NaN,1,0,2,1
9,172,1,36,NaN,NaN,1,NaN,3.753728e+00,NaN,1,0,1,1
9,173,1,142,NaN,NaN,1,NaN,1.125706e+00,NaN,1,1,3,1
9,174,1,46,NaN,NaN,1,NaN,8.820380e-01,NaN,0,0,1,1
9,175,1,90,NaN,NaN,1,NaN,1.304130e+00,NaN,2,0,2,1
9,176,1,27,NaN,NaN,1,NaN,1.249672e-04,NaN,0,0,1,1
9,177,1,92,NaN,NaN,1,NaN,1.487262e+00,NaN,0,0,2,1
9,178,1,48,NaN,NaN,2,NaN,4.293487e-01,NaN,2,0,1,1
9,179,1,51,NaN,NaN,1,NaN,3.332965e+00,NaN,0,0,2,1
9,180,1,129,NaN,NaN,1,NaN,7.610136e-01,NaN,0,0,3,1
9,181,1,51,NaN,NaN,1,NaN,1.980010e+00,NaN,2,0,2,1
9,182,1,82,NaN,NaN,1,NaN,9.897934e-01,NaN,2,1,2,1
9,183,1,5,NaN,NaN,1,NaN,2.158469e-01,NaN,0,0,1,1
9,184,1,127,NaN,NaN,1,NaN,1.880576e+00,NaN,0,0,3,1
9,185,1,31,NaN,NaN,1,NaN,3.750894e+00,NaN,2,0,1,1
9,186,1,15,NaN,NaN,1,NaN,9.938893e-01,NaN,2,0,1,1
9,187,1,71,NaN,NaN,2,NaN,2.907831e+00,NaN,0,0,2,1
9,188,1,75,NaN,NaN,1,NaN,3.454412e-01,NaN,2,0,2,1
9,189,1,50,NaN,NaN,1,NaN,2.300547e+00,NaN,0,1,2,1
9,190,1,110,NaN,NaN,2,NaN,3.002705e+00,NaN,0,0,3,1
9,191,1,17,NaN,NaN,1,NaN,5.244799e+00,NaN,0,0,1,1
9,192,1,25,NaN,NaN,1,NaN,2.250800e+00,NaN,1,0,1,1
9,193,1,16,NaN,NaN,1,NaN,9.945274e-01,NaN,0,0,1,1
9,194,1,31,NaN,NaN,1,NaN,6.200522e-01,NaN,0,0,1,1
9,195,1,76,NaN,NaN,2,NaN,2.388840e+00,NaN,0,0,2,1
9,196,1,94,NaN,NaN,2,NaN,4.865357e-01,NaN,0,0,2,1
9,197,1,141,NaN,NaN,1,NaN,1.028663e+00,NaN,0,1,3,1
9,198,1,97,NaN,NaN,2,NaN,3.968362e-01,NaN,0,0,3,1
9,199,1,109,NaN,NaN,1,NaN,1.341429e-01,NaN,2,0,3,1
9,200,1,120,NaN,NaN,1,NaN,1.623329e-01,NaN,2,0,3,1
9,201,1,67,NaN,NaN,1,NaN,2.188964e+00,NaN,0,1,2,1
9,202,1,40,NaN,NaN,1,NaN,2.486809e+00,NaN,2,0,1,1
9,203,1,21,NaN,NaN,1,NaN,5.652733e+00,NaN,0,1,1,1
9,204,1,104,NaN,NaN,1,NaN,8.923227e-01,NaN,2,0,3,1
9,205,1,84,NaN,NaN,1,NaN,2.107586e-01,NaN,2,0,2,1
9,206,1,53,NaN,NaN,1,NaN,2.761677e-01,NaN,0,0,2,1
9,207,1,71,NaN,NaN,1,NaN,4.230590e-02,NaN,2,0,2,1
9,208,1,137,NaN,NaN,1,NaN,2.890769e+00,NaN,1,0,3,1
9,209,1,79,NaN,NaN,1,NaN,5.689533e-01,NaN,0,0,2,1
9,210,1,35,NaN,NaN,1,NaN,2.259284e+00,NaN,0,0,1,1
9,211,1,60,NaN,NaN,2,NaN,2.042973e+00,NaN,1,1,2,1
9,212,1,91,NaN,NaN,2,NaN,2.602861e+00,NaN,1,0,2,1
9,213,1,131,NaN,NaN,1,NaN,3.566266e-01,NaN,0,0,3,1
9,214,1,85,NaN,NaN,1,NaN,3.743557e+00,NaN,0,1,2,1
9,215,1,99,NaN,NaN,1,NaN,4.491623e+00,NaN,0,1,3,1
9,216,1,119,NaN,NaN,1,NaN,2.673824e+00,NaN,0,0,3,1
9,217,1,96,NaN,NaN,1,NaN,1.984798e+00,NaN,0,0,2,1
9,218,1,14,NaN,NaN,1,NaN,2.282460e+00,NaN,0,1,1,1
9,219,1,78,NaN,NaN,2,NaN,1.673750e+00,NaN,0,0,2,1
9,220,1,110,NaN,NaN,1,NaN,7.915114e-01,NaN,1,0,3,1
9,221,1,128,NaN,NaN,1,NaN,7.777333e-01,NaN,2,0,3,1
9,222,1,93,NaN,NaN,1,NaN,6.831902e-01,NaN,1,0,2,1
9,223,1,101,NaN,NaN,1,NaN,2.175850e-01,NaN,0,1,3,1
9,224,1,41,NaN,NaN,1,NaN,2.634187e+00,NaN,0,0,1,1
9,225,1,72,NaN,NaN,1,NaN,1.322335e+00,NaN,1,0,2,1
9,226,1,45,NaN,NaN,1,NaN,1.438732e+00,NaN,0,1,1,1
9,227,1,49,NaN,NaN,1,NaN,1.206882e+00,NaN,0,0,2,1
9,228,1,87,NaN,NaN,1,NaN,1.976133e+00,NaN,0,0,2,1
9,229,1,95,NaN,NaN,1,NaN,3.210802e+00,NaN,0,1,2,1
9,230,1,127,NaN,NaN,1,NaN,2.267681e+00,NaN,2,0,3,1
9,231,1,24,NaN,NaN,1,NaN,1.178733e+00,NaN,1,1,1,1
9,232,1,141,NaN,NaN,1,NaN,1.325135e-04,NaN,1,1,3,1
9,233,1,28,NaN,NaN,2,NaN,2.383597e-01,NaN,0,0,1,1
9,234,1,37,NaN,NaN,1,NaN,1.310043e-04,NaN,1,0,1,1
9,235,1,94,NaN,NaN,1,NaN,1.087487e+00,NaN,2,0,2,1
9,236,1,32,NaN,NaN,1,NaN,1.933542e+00,NaN,0,1,1,1
9,237,1,138,NaN,NaN,1,NaN,4.281817e+00,NaN,0,0,3,1
9,238,1,83,NaN,NaN,1,NaN,3.263742e+00,NaN,1,0,2,1
9,239,1,91,NaN,NaN,1,NaN,1.182445e+00,NaN,0,0,2,1
9,240,1,10,NaN,NaN,1,NaN,4.792499e+00,NaN,2,1,1,1
9,241,1,57,NaN,NaN,1,NaN,1.634830e+00,NaN,2,1,2,1
9,242,1,55,NaN,NaN,1,NaN,2.634314e+00,NaN,0,0,2,1
9,243,1,69,NaN,NaN,1,NaN,1.791271e-01,NaN,0,0,2,1
9,244,1,58,NaN,NaN,1,NaN,9.250010e-01,NaN,1,1,2,1
9,245,1,97,NaN,NaN,1,NaN,2.973602e-01,NaN,1,0,3,1
9,246,1,134,NaN,NaN,1,NaN,1.358967e+00,NaN,1,0,3,1
9,247,1,106,NaN,NaN,1,NaN,7.140024e-01,NaN,2,1,3,1
9,248,1,33,NaN,NaN,2,NaN,2.628451e-01,NaN,0,0,1,1
9,249,1,126,NaN,NaN,2,NaN,4.859857e-01,NaN,0,0,3,1
9,250,1,12,NaN,NaN,1,NaN,5.557394e-01,NaN,2,0,1,1
9,251,1,33,NaN,NaN,1,NaN,1.183100e+00,NaN,1,0,1,1
9,252,1,29,NaN,NaN,1,NaN,5.529376e-01,NaN,1,0,1,1
9,253,1,82,NaN,NaN,1,NaN,3.563589e-01,NaN,0,1,2,1
9,254,1,66,NaN,NaN,1,NaN,4.327821e+00,NaN,0,0,2,1
9,255,1,85,NaN,NaN,1,NaN,2.428216e+00,NaN,1,1,2,1
9,256,1,76,NaN,NaN,1,NaN,2.315821e+00,NaN,1,0,2,1
9,257,1,136,NaN,NaN,1,NaN,3.576386e+00,NaN,0,0,3,1
9,258,1,90,NaN,NaN,1,NaN,1.227151e+00,NaN,0,0,2,1
9,259,1,30,NaN,NaN,1,NaN,3.795526e+00,NaN,2,1,1,1
9,260,1,123,NaN,NaN,1,NaN,2.060946e+00,NaN,0,0,3,1
9,261,1,74,NaN,NaN,1,NaN,7.078561e-01,NaN,1,0,2,1
9,262,1,21,NaN,NaN,1,NaN,1.161031e+00,NaN,1,1,1,1
9,263,1,56,NaN,NaN,1,NaN,3.552991e-02,NaN,0,0,2,1
9,264,1,35,NaN,NaN,1,NaN,1.467619e+00,NaN,1,0,1,1
9,265,1,42,NaN,NaN,2,NaN,1.362687e+00,NaN,0,0,1,1
9,266,1,137,NaN,NaN,1,NaN,6.405276e+00,NaN,0,0,3,1
9,267,1,103,NaN,NaN,1,NaN,2.390615e-01,NaN,0,0,3,1
9,268,1,55,NaN,NaN,1,NaN,1.310040e-04,NaN,1,0,2,1
9,269,1,56,NaN,NaN,1,NaN,4.320814e-01,NaN,2,0,2,1
9,270,1,107,NaN,NaN,1,NaN,2.960474e-01,NaN,1,1,3,1
9,271,1,57,NaN,NaN,1,NaN,3.898404e-01,NaN,0,1,2,1
9,272,1,72,NaN,NaN,1,NaN,1.207359e+00,NaN,0,0,2,1
9,273,1,53,NaN,NaN,1,NaN,1.264764e-04,NaN,1,0,2,1
9,274,1,68,NaN,NaN,1,NaN,1.300985e-04,NaN,0,0,2,1
9,275,1,44,NaN,NaN,1,NaN,1.297968e-04,NaN,0,1,1,1
9,276,1,78,NaN,NaN,2,NaN,2.770380e-01,NaN,2,0,2,1
9,277,1,43,NaN,NaN,1,NaN,8.438493e-01,NaN,2,0,1,1
9,278,1,144,NaN,NaN,1,NaN,1.499672e+00,NaN,1,0,3,1
9,279,1,25,NaN,NaN,1,NaN,3.375489e-01,NaN,0,0,1,1
9,280,1,80,NaN,NaN,1,NaN,1.587747e-04,NaN,1,0,2,1
9,281,1,60,NaN,NaN,1,NaN,2.869200e-01,NaN,0,1,2,1
9,282,1,121,NaN,NaN,1,NaN,3.166812e-01,NaN,0,0,3,1
9,283,1,8,NaN,NaN,1,NaN,4.812279e-01,NaN,0,0,1,1
9,284,1,11,NaN,NaN,1,NaN,1.997772e-01,NaN,1,1,1,1
9,285,1,126,NaN,NaN,1,NaN,1.289691e-01,NaN,1,0,3,1
9,286,1,22,NaN,NaN,1,NaN,2.769208e-01,NaN,0,0,1,1
9,287,1,13,NaN,NaN,1,NaN,5.077366e-01,NaN,1,0,1,1
9,288,1,29,NaN,NaN,1,NaN,4.169148e-01,NaN,0,0,1,1
9,392,2,79,19,1,1,1,2.561865e+00,NaN,1,0,2,1
9,393,2,134,60,1,1,1,2.721067e+00,NaN,1,0,3,1
9,394,2,83,28,2,2,1,2.010146e+00,NaN,1,0,2,1
9,395,2,130,50,2,2,1,1.543947e+00,NaN,1,0,3,1
9,396,2,136,22,2,2,1,1.911933e+00,NaN,1,0,3,1
9,397,2,2,17,2,2,1,2.312191e+00,NaN,1,0,1,1
9,398,2,110,7,1,0,0,3.499717e+00,NaN,1,0,3,1
9,399,2,129,2,1,1,1,1.442761e+00,NaN,1,0,3,1
9,400,2,62,10,2,2,1,1.223136e+00,NaN,1,0,2,1
9,401,2,11,33,1,1,1,1.955278e+00,NaN,1,1,1,1
9,402,2,60,49,1,1,1,1.866826e+00,NaN,1,1,2,1
9,403,2,35,35,2,2,1,1.485948e+00,NaN,1,0,1,1
9,404,2,91,37,1,1,1,1.969056e+00,NaN,1,0,2,1
9,405,2,52,64,2,2,1,2.222304e+00,NaN,1,0,2,1
9,406,2,138,68,1,1,1,1.339645e+00,NaN,1,0,3,1
9,407,2,93,27,1,1,1,1.403283e+00,NaN,1,0,2,1
9,408,2,61,42,2,2,1,1.761045e+00,NaN,1,1,2,1
9,409,2,17,48,2,2,1,1.847797e+00,NaN,1,0,1,1
9,410,2,53,26,2,2,1,1.347187e+00,NaN,1,0,2,1
9,411,2,55,47,2,2,1,1.474544e+00,NaN,1,0,2,1
9,412,2,36,55,2,2,1,1.414711e+00,NaN,1,0,1,1
9,413,2,141,40,1,1,1,1.617980e+00,NaN,1,1,3,1
9,414,2,49,58,1,2,0,1.015141e+00,NaN,1,0,2,1
9,415,2,14,11,1,2,0,1.067668e+00,NaN,1,1,1,1
9,416,3,138,68,2,2,1,2.039562e+00,NaN,1,0,3,1
9,417,3,14,11,1,2,0,1.555411e+00,NaN,1,1,1,1
9,418,3,141,40,2,2,1,2.275231e+00,NaN,1,1,3,1
9,419,3,130,50,1,1,1,1.293546e+00,NaN,1,0,3,1
9,420,3,55,47,2,2,1,2.007547e+00,NaN,1,0,2,1
9,421,3,83,28,2,2,1,2.525379e+00,NaN,1,0,2,1
9,422,3,61,42,2,2,1,1.022076e+00,NaN,1,1,2,1
9,423,3,60,49,2,2,1,1.866366e+00,NaN,1,1,2,1
9,424,3,93,27,2,2,1,2.501392e+00,NaN,1,0,2,1
9,425,3,36,55,1,1,1,1.975137e+00,NaN,1,0,1,1
9,426,3,134,60,2,0,0,3.499817e+00,NaN,1,0,3,1
9,427,3,110,7,1,2,0,3.079211e+00,NaN,1,0,3,1
9,428,3,52,64,2,2,1,2.105602e+00,NaN,1,0,2,1
9,429,3,11,33,2,0,0,3.500136e+00,NaN,1,1,1,1
9,430,3,79,19,2,2,1,2.155996e+00,NaN,1,0,2,1
9,431,3,53,26,2,2,1,9.640321e-01,NaN,1,0,2,1
9,432,3,2,17,2,1,0,1.194519e+00,NaN,1,0,1,1
9,433,3,136,22,2,0,0,3.499746e+00,NaN,1,0,3,1
9,434,3,17,48,1,1,1,2.729546e+00,NaN,1,0,1,1
9,435,3,91,37,1,2,0,1.041601e+00,NaN,1,0,2,1
9,436,3,129,2,1,1,1,1.389785e+00,NaN,1,0,3,1
9,437,3,35,35,2,2,1,7.157414e-01,NaN,1,0,1,1
9,438,3,49,58,2,1,0,1.348775e+00,NaN,1,0,2,1
9,439,3,62,10,2,0,0,3.499832e+00,NaN,1,0,2,1
9,464,2,16,3,1,1,1,1.354557e+00,NaN,1,0,1,2
9,465,2,80,14,1,1,1,1.282167e+00,NaN,1,0,2,2
9,466,2,123,69,2,2,1,1.692407e+00,NaN,1,0,3,2
9,467,2,37,8,1,1,1,1.758415e+00,NaN,1,0,1,2
9,468,2,68,25,1,1,1,2.349472e+00,NaN,1,0,2,2
9,469,2,103,20,2,2,1,2.365009e+00,NaN,1,0,3,2
9,470,2,13,15,1,1,1,2.228078e+00,NaN,1,0,1,2
9,471,2,121,1,1,1,1,9.603039e-01,NaN,1,0,3,2
9,472,2,25,56,1,1,1,1.863908e+00,NaN,1,0,1,2
9,473,2,76,72,2,2,1,2.530183e+00,NaN,1,0,2,2
9,474,2,59,57,1,0,0,3.499908e+00,NaN,1,1,2,2
9,475,2,72,32,2,2,1,9.000287e-01,NaN,1,0,2,2
9,476,2,107,51,1,1,1,1.309247e+00,NaN,1,1,3,2
9,477,2,74,66,2,2,1,9.429887e-01,NaN,1,0,2,2
9,478,2,32,31,2,2,1,1.406724e+00,NaN,1,1,1,2
9,479,2,87,24,2,2,1,1.804684e+00,NaN,1,0,2,2
9,480,2,5,45,2,2,1,1.713618e+00,NaN,1,0,1,2
9,481,2,7,41,2,2,1,2.298669e+00,NaN,1,0,1,2
9,482,2,29,71,2,1,0,1.755773e+00,NaN,1,0,1,2
9,483,2,144,63,2,2,1,2.123706e+00,NaN,1,0,3,2
9,484,2,96,13,2,0,0,3.500855e+00,NaN,1,0,2,2
9,485,2,64,30,2,2,1,1.021528e+00,NaN,1,0,2,2
9,486,2,137,53,1,1,1,2.370184e+00,NaN,1,0,3,2
9,487,2,58,61,2,2,1,1.881560e+00,NaN,1,1,2,2
9,488,3,59,57,2,2,1,1.536844e+00,NaN,1,1,2,2
9,489,3,74,66,2,2,1,1.224628e+00,NaN,1,0,2,2
9,490,3,121,1,2,2,1,1.573797e+00,NaN,1,0,3,2
9,491,3,29,71,2,1,0,1.268688e+00,NaN,1,0,1,2
9,492,3,16,3,1,1,1,2.144422e+00,NaN,1,0,1,2
9,493,3,13,15,2,2,1,1.847584e+00,NaN,1,0,1,2
9,494,3,64,30,2,2,1,1.554943e+00,NaN,1,0,2,2
9,495,3,32,31,2,2,1,1.434322e+00,NaN,1,1,1,2
9,496,3,58,61,1,1,1,1.245982e+00,NaN,1,1,2,2
9,497,3,68,25,1,2,0,2.193369e+00,NaN,1,0,2,2
9,498,3,80,14,1,1,1,1.823919e+00,NaN,1,0,2,2
9,499,3,76,72,2,2,1,2.956612e+00,NaN,1,0,2,2
9,500,3,7,41,1,1,1,2.924048e+00,NaN,1,0,1,2
9,501,3,87,24,1,2,0,1.820734e+00,NaN,1,0,2,2
9,502,3,123,69,1,2,0,2.033620e+00,NaN,1,0,3,2
9,503,3,72,32,1,1,1,1.765816e+00,NaN,1,0,2,2
9,504,3,144,63,1,0,0,3.499986e+00,NaN,1,0,3,2
9,505,3,5,45,2,2,1,8.940578e-01,NaN,1,0,1,2
9,506,3,107,51,1,2,0,1.456322e+00,NaN,1,1,3,2
9,507,3,96,13,1,1,1,1.123092e+00,NaN,1,0,2,2
9,508,3,103,20,2,2,1,1.532225e+00,NaN,1,0,3,2
9,509,3,37,8,1,1,1,2.084267e+00,NaN,1,0,1,2
9,510,3,25,56,1,1,1,1.334354e+00,NaN,1,0,1,2
9,511,3,137,53,2,2,1,3.294513e+00,NaN,1,0,3,2
9,536,2,23,21,1,1,1,1.753727e+00,NaN,1,0,1,3
9,537,2,85,67,1,1,1,1.745408e+00,NaN,1,1,2,3
9,538,2,46,39,1,1,1,1.488524e+00,NaN,1,0,1,3
9,539,2,112,5,2,2,1,1.106646e+00,NaN,1,0,3,3
9,540,2,143,16,1,1,1,1.420212e+00,NaN,1,1,3,3
9,541,2,63,43,2,2,1,2.089079e+00,NaN,1,1,2,3
9,542,2,118,36,2,1,0,2.563197e+00,NaN,1,0,3,3
9,543,2,126,9,1,1,1,1.289619e+00,NaN,1,0,3,3
9,544,2,4,18,2,2,1,1.851989e+00,NaN,1,0,1,3
9,545,2,18,34,1,2,0,2.207535e+00,NaN,1,1,1,3
9,546,2,142,4,2,2,1,1.692721e+00,NaN,1,1,3,3
9,547,2,6,38,2,2,1,2.135104e+00,NaN,1,0,1,3
9,548,2,108,70,1,1,1,1.535064e+00,NaN,1,1,3,3
9,549,2,33,46,2,2,1,1.311048e+00,NaN,1,0,1,3
9,550,2,42,62,2,2,1,1.472587e+00,NaN,1,0,1,3
9,551,2,133,23,1,1,1,1.019449e+00,NaN,1,0,3,3
9,552,2,24,52,1,1,1,1.208014e+00,NaN,1,1,1,3
9,553,2,100,12,1,1,1,1.181151e+00,NaN,1,0,3,3
9,554,2,132,59,1,2,0,9.632844e-01,NaN,1,1,3,3
9,555,2,92,6,1,1,1,1.338381e+00,NaN,1,0,2,3
9,556,2,139,44,1,1,1,1.682578e+00,NaN,1,0,3,3
9,557,2,21,29,1,0,0,3.499901e+00,NaN,1,1,1,3
9,558,2,28,65,2,2,1,1.133950e+00,NaN,1,0,1,3
9,559,2,97,54,1,1,1,1.182405e+00,NaN,1,0,3,3
9,560,3,28,65,2,2,1,5.751751e-01,NaN,1,0,1,3
9,561,3,18,34,2,2,1,1.597751e+00,NaN,1,1,1,3
9,562,3,23,21,1,1,1,1.067291e+00,NaN,1,0,1,3
9,563,3,126,9,2,2,1,2.390111e+00,NaN,1,0,3,3
9,564,3,97,54,2,2,1,1.291909e+00,NaN,1,0,3,3
9,565,3,4,18,1,1,1,1.470491e+00,NaN,1,0,1,3
9,566,3,118,36,1,2,0,2.296803e+00,NaN,1,0,3,3
9,567,3,108,70,1,1,1,1.018024e+00,NaN,1,1,3,3
9,568,3,46,39,2,2,1,1.799234e+00,NaN,1,0,1,3
9,569,3,42,62,1,1,1,1.404549e+00,NaN,1,0,1,3
9,570,3,100,12,1,1,1,1.554237e+00,NaN,1,0,3,3
9,571,3,33,46,1,1,1,1.321613e+00,NaN,1,0,1,3
9,572,3,143,16,1,1,1,1.394188e+00,NaN,1,1,3,3
9,573,3,142,4,1,1,1,1.776298e+00,NaN,1,1,3,3
9,574,3,24,52,1,1,1,1.358882e+00,NaN,1,1,1,3
9,575,3,85,67,1,1,1,8.785310e-01,NaN,1,1,2,3
9,576,3,6,38,2,2,1,1.288706e+00,NaN,1,0,1,3
9,577,3,63,43,2,2,1,1.618679e+00,NaN,1,1,2,3
9,578,3,112,5,2,2,1,1.071439e+00,NaN,1,0,3,3
9,579,3,139,44,1,1,1,1.890106e+00,NaN,1,0,3,3
9,580,3,92,6,2,2,1,1.964295e+00,NaN,1,0,2,3
9,581,3,21,29,2,2,1,1.267398e+00,NaN,1,1,1,3
9,582,3,132,59,1,1,1,2.605991e+00,NaN,1,1,3,3
9,583,3,133,23,2,2,1,2.507102e+00,NaN,1,0,3,3
9,608,4,94,63,2,2,1,8.227734e-01,NaN,2,0,2,1
9,609,4,57,33,1,1,1,7.714988e-01,NaN,2,1,2,1
9,610,4,67,29,2,2,1,1.426532e+00,NaN,2,1,2,1
9,611,4,99,43,2,2,1,1.455197e+00,NaN,2,1,3,1
9,612,4,43,36,2,1,0,1.811009e+00,NaN,2,0,1,1
9,613,4,105,27,1,1,1,1.607841e+00,NaN,2,0,3,1
9,614,4,89,51,2,2,1,1.141488e+00,NaN,2,1,2,1
9,615,4,131,17,1,1,1,1.502131e+00,NaN,2,0,3,1
9,616,4,95,16,1,1,1,9.189857e-01,NaN,2,1,2,1
9,617,4,84,54,1,1,1,1.279934e+00,NaN,2,0,2,1
9,618,4,38,68,2,2,1,1.106010e+00,NaN,2,0,1,1
9,619,4,124,71,2,2,1,1.811706e+00,NaN,2,0,3,1
9,620,4,82,40,1,1,1,1.424269e+00,NaN,2,1,2,1
9,621,4,120,38,1,1,1,1.116935e+00,NaN,2,0,3,1
9,622,4,51,39,1,1,1,1.197952e+00,NaN,2,0,2,1
9,623,4,31,44,1,1,1,1.539149e+00,NaN,2,0,1,1
9,624,4,119,48,2,2,1,1.931171e+00,NaN,2,0,3,1
9,625,4,109,66,2,2,1,2.827282e+00,NaN,2,0,3,1
9,626,4,140,62,2,1,0,2.008207e+00,NaN,2,0,3,1
9,627,4,128,46,1,1,1,2.317786e+00,NaN,2,0,3,1
9,628,4,106,67,1,1,1,3.342519e+00,NaN,2,1,3,1
9,629,4,116,65,2,1,0,1.262756e+00,NaN,2,0,3,1
9,630,4,12,64,2,2,1,1.385310e+00,NaN,2,0,1,1
9,631,4,98,37,1,1,1,1.911548e+00,NaN,2,0,3,1
9,656,4,102,10,2,2,1,1.381938e+00,NaN,2,0,3,2
9,657,4,77,53,2,2,1,1.180084e+00,NaN,2,0,2,2
9,658,4,54,11,1,1,1,9.138077e-01,NaN,2,1,2,2
9,659,4,101,57,2,2,1,1.451105e+00,NaN,2,1,3,2
9,660,4,41,23,1,2,0,2.574155e+00,NaN,2,0,1,2
9,661,4,66,21,1,1,1,1.772776e+00,NaN,2,0,2,2
9,662,4,10,61,1,2,0,1.907706e+00,NaN,2,1,1,2
9,663,4,135,8,2,2,1,1.829158e+00,NaN,2,0,3,2
9,664,4,48,1,1,1,1,2.097408e+00,NaN,2,0,1,2
9,665,4,81,7,2,2,1,1.722728e+00,NaN,2,0,2,2
9,666,4,50,52,2,0,0,3.499817e+00,NaN,2,1,2,2
9,667,4,27,58,1,1,1,1.196913e+00,NaN,2,0,1,2
9,668,4,30,70,2,2,1,1.010790e+00,NaN,2,1,1,2
9,669,4,1,32,2,2,1,1.047711e+00,NaN,2,0,1,2
9,670,4,22,6,1,1,1,1.171199e+00,NaN,2,0,1,2
9,671,4,71,41,1,1,1,1.442246e+00,NaN,2,0,2,2
9,672,4,40,20,2,2,1,8.858154e-01,NaN,2,0,1,2
9,673,4,113,28,1,1,1,2.160260e+00,NaN,2,0,3,2
9,674,4,125,31,2,1,0,2.039918e+00,NaN,2,1,3,2
9,675,4,122,3,2,2,1,1.628040e+00,NaN,2,0,3,2
9,676,4,44,4,2,2,1,1.711651e+00,NaN,2,1,1,2
9,677,4,26,24,1,2,0,1.544710e+00,NaN,2,0,1,2
9,678,4,15,72,2,1,0,1.488212e+00,NaN,2,0,1,2
9,679,4,56,55,1,2,0,1.442181e+00,NaN,2,0,2,2
9,704,4,78,2,2,2,1,1.758516e+00,NaN,2,0,2,3
9,705,4,75,60,2,2,1,9.096038e-01,NaN,2,0,2,3
9,706,4,88,5,1,1,1,1.672657e+00,NaN,2,0,2,3
9,707,4,90,69,1,1,1,1.649928e+00,NaN,2,0,2,3
9,708,4,111,25,1,2,0,1.757291e+00,NaN,2,0,3,3
9,709,4,73,18,1,1,1,2.116960e+00,NaN,2,0,2,3
9,710,4,117,15,2,2,1,1.573520e+00,NaN,2,0,3,3
9,711,4,9,19,1,1,1,1.532428e+00,NaN,2,0,1,3
9,712,4,127,45,1,2,0,2.356289e+00,NaN,2,0,3,3
9,713,4,114,14,2,2,1,1.795775e+00,NaN,2,0,3,3
9,714,4,70,34,2,2,1,1.529370e+00,NaN,2,1,2,3
9,715,4,45,59,1,1,1,1.729667e+00,NaN,2,1,1,3
9,716,4,65,56,1,1,1,1.385819e+00,NaN,2,0,2,3
9,717,4,3,26,1,1,1,1.663633e+00,NaN,2,0,1,3
9,718,4,86,50,2,2,1,1.554596e+00,NaN,2,0,2,3
9,719,4,39,12,1,1,1,2.394185e+00,NaN,2,0,1,3
9,720,4,8,13,1,2,0,1.128281e+00,NaN,2,0,1,3
9,721,4,20,49,2,1,0,1.263949e+00,NaN,2,1,1,3
9,722,4,69,35,2,2,1,2.043043e+00,NaN,2,0,2,3
9,723,4,115,42,2,1,0,1.550961e+00,NaN,2,1,3,3
9,724,4,104,47,1,1,1,1.294715e+00,NaN,2,0,3,3
9,725,4,47,9,2,2,1,2.016651e+00,NaN,2,0,1,3
9,726,4,19,30,2,1,0,1.301144e+00,NaN,2,0,1,3
9,727,4,34,22,1,1,1,2.422628e+00,NaN,2,0,1,3
9,728,5,3.569000e+01,35,1,1,1,1.507037e+00,1,1,0,1.200000e+00,1
9,729,5,8.413000e+01,28,2,2,1,7.010137e-01,1,1,0,2.300000e+00,1
9,730,5,3.835000e+01,8,1,1,1,1.207137e+00,1,1,0,1.300000e+00,1
9,731,5,1.239000e+02,69,3,3,1,4.005127e-01,1,1,0,3.200000e+00,1
9,732,5,5.604000e+01,47,2,2,1,3.296709e-01,1,1,0,2.300000e+00,1
9,733,5,6.270000e+00,45,1,2,0,6.030340e-01,1,1,0,1.300000e+00,1
9,734,5,6.911000e+01,25,2,3,0,3.405430e-01,1,1,0,2.300000e+00,1
9,735,5,7.615000e+01,72,2,3,0,9.739745e-01,1,1,0,2.100000e+00,1
9,736,5,9.608000e+01,13,2,3,0,5.431681e-01,1,1,0,2.100000e+00,1
9,737,5,1.363400e+02,22,3,3,1,2.724546e-01,1,1,0,3.100000e+00,1
9,738,5,9.784000e+01,54,3,1,0,2.744305e-01,1,1,0,3.200000e+00,1
9,739,5,1.034000e+02,20,3,4,0,3.238843e-01,1,1,0,3.100000e+00,1
9,740,5,1.377700e+02,53,3,1,0,3.570888e-01,1,1,0,3.200000e+00,1
9,741,5,1.363400e+02,22,3,2,0,3.264262e-01,2,1,0,3.100000e+00,1
9,742,5,5.303000e+01,26,2,1,0,2.406212e-01,1,1,0,2.100000e+00,1
9,743,5,4.730000e+00,18,1,1,1,1.185901e+00,1,1,0,1.200000e+00,1
9,744,5,1.393100e+02,44,3,2,0,1.419150e+00,1,1,0,3.100000e+00,1
9,745,5,2.916000e+01,65,1,1,1,1.149053e+00,1,1,0,1.300000e+00,1
9,746,5,7.710000e+00,41,1,2,0,1.038346e+00,1,1,0,1.200000e+00,1
9,747,5,4.651000e+01,39,1,1,1,7.118910e-01,1,1,0,1.200000e+00,1
9,748,5,3.024000e+01,71,1,0,0,2.500032e+00,1,1,0,1.300000e+00,1
9,749,5,3.569000e+01,35,1,3,0,4.994149e-01,2,1,0,1.200000e+00,1
9,750,5,7.615000e+01,72,2,3,0,3.083718e-01,2,1,0,2.100000e+00,1
9,751,5,6.419000e+01,30,2,2,1,3.186107e-01,1,1,0,2.100000e+00,1
9,752,5,5.604000e+01,47,2,2,1,1.479080e-04,2,1,0,2.300000e+00,1
9,753,5,1.297800e+02,2,3,3,1,3.134049e-01,1,1,0,3.200000e+00,1
9,754,5,1.264700e+02,9,3,3,1,3.309906e-01,1,1,0,3.100000e+00,1
9,755,5,3.656000e+01,55,1,2,0,2.920675e-01,1,1,0,1.200000e+00,1
9,756,5,6.270000e+00,45,1,0,0,2.500521e+00,2,1,0,1.300000e+00,1
9,757,5,1.393100e+02,44,3,1,0,2.486342e-01,2,1,0,3.100000e+00,1
9,758,5,4.340000e+01,62,1,1,1,1.623968e-04,1,1,0,1.300000e+00,1
9,759,5,9.608000e+01,13,2,3,0,5.131833e-02,2,1,0,2.100000e+00,1
9,760,5,1.449400e+02,63,3,2,0,7.686867e-02,1,1,0,3.200000e+00,1
9,761,5,1.214800e+02,1,3,3,1,9.448632e-02,1,1,0,3.100000e+00,1
9,762,5,4.340000e+01,62,1,1,1,1.485117e-04,2,1,0,1.300000e+00,1
9,763,5,3.428000e+01,46,1,3,0,1.488135e-04,1,1,0,1.300000e+00,1
9,764,5,3.569000e+01,35,1,1,1,2.341235e-01,3,1,0,1.200000e+00,1
9,765,5,1.108100e+02,7,3,2,0,6.921084e-01,1,1,0,3.200000e+00,1
9,766,5,3.428000e+01,46,1,3,0,3.102913e-01,2,1,0,1.300000e+00,1
9,767,5,2.366000e+01,21,1,1,1,1.476062e-04,1,1,0,1.200000e+00,1
9,768,5,1.214800e+02,1,3,3,1,8.328637e-01,2,1,0,3.100000e+00,1
9,769,5,1.383800e+02,68,3,1,0,9.540341e-01,1,1,0,3.100000e+00,1
9,770,5,3.656000e+01,55,1,1,1,1.411622e+00,2,1,0,1.200000e+00,1
9,771,5,4.651000e+01,39,1,2,0,1.181115e+00,2,1,0,1.200000e+00,1
9,772,5,4.730000e+00,18,1,3,0,7.426078e-01,2,1,0,1.200000e+00,1
9,773,5,6.270000e+00,45,1,2,0,2.406055e-01,3,1,0,1.300000e+00,1
9,774,5,9.222000e+01,6,2,1,0,4.497181e-01,1,1,0,2.100000e+00,1
9,775,5,1.214800e+02,1,3,3,1,2.833358e-01,3,1,0,3.100000e+00,1
9,776,5,2.366000e+01,21,1,1,1,3.331883e-01,2,1,0,1.200000e+00,1
9,777,5,9.608000e+01,13,2,2,1,7.502351e-01,3,1,0,2.100000e+00,1
9,778,5,7.200000e+00,38,1,1,1,3.040538e-01,1,1,0,1.300000e+00,1
9,779,5,9.198000e+01,37,2,3,0,8.890805e-01,1,1,0,2.300000e+00,1
9,780,5,8.726000e+01,24,2,3,0,6.266631e-01,1,1,0,2.100000e+00,1
9,781,5,9.405000e+01,27,2,1,0,1.619986e+00,1,1,0,2.300000e+00,1
9,782,5,9.405000e+01,27,2,3,0,1.473043e-04,2,1,0,2.300000e+00,1
9,783,5,1.722000e+01,3,1,1,1,1.457951e-04,1,1,0,1.300000e+00,1
9,784,5,1.264700e+02,9,3,3,1,1.817155e-04,2,1,0,3.100000e+00,1
9,785,5,1.334100e+02,23,3,1,0,5.620358e-01,1,1,0,3.100000e+00,1
9,786,5,1.363400e+02,22,3,1,0,6.756022e-01,3,1,0,3.100000e+00,1
9,787,5,3.656000e+01,55,1,2,0,5.498445e-01,3,1,0,1.200000e+00,1
9,788,5,1.003900e+02,12,3,3,1,6.791164e-01,1,1,0,3.100000e+00,1
9,789,5,6.419000e+01,30,2,3,0,1.592488e+00,2,1,0,2.100000e+00,1
9,790,5,4.651000e+01,39,1,1,1,1.460968e-04,3,1,0,1.200000e+00,1
9,791,5,8.726000e+01,24,2,2,1,1.473043e-04,2,1,0,2.100000e+00,1
9,792,5,1.034000e+02,20,3,3,1,7.098574e-01,2,1,0,3.100000e+00,1
9,793,5,9.222000e+01,6,2,1,0,1.645100e-04,2,1,0,2.100000e+00,1
9,794,5,3.656000e+01,55,1,3,0,1.463988e-04,4,1,0,1.200000e+00,1
9,795,5,1.334100e+02,23,3,3,1,3.465604e-02,2,1,0,3.100000e+00,1
9,796,5,1.334100e+02,23,3,3,1,1.753767e-04,3,1,0,3.100000e+00,1
9,797,5,2.565000e+01,56,1,1,1,1.633025e-04,1,1,0,1.200000e+00,1
9,798,5,7.201000e+01,32,2,2,1,8.230302e-01,1,1,0,2.100000e+00,1
9,799,5,1.003900e+02,12,3,3,1,1.439839e-04,2,1,0,3.100000e+00,1
9,800,5,2.366000e+01,21,1,1,1,1.421729e-04,3,1,0,1.200000e+00,1
9,801,5,1.108100e+02,7,3,3,1,1.436821e-04,2,1,0,3.200000e+00,1
9,802,5,5.212000e+01,64,2,1,0,3.483969e-01,1,1,0,2.100000e+00,1
9,803,5,7.710000e+00,41,1,1,1,1.581577e+00,2,1,0,1.200000e+00,1
9,804,5,9.784000e+01,54,3,1,0,6.173392e-01,2,1,0,3.200000e+00,1
9,805,5,1.722000e+01,3,1,1,1,1.427764e-04,2,1,0,1.300000e+00,1
9,806,5,7.201000e+01,32,2,1,0,1.314582e+00,2,1,0,2.100000e+00,1
9,807,5,4.730000e+00,18,1,1,1,8.763414e-01,3,1,0,1.200000e+00,1
9,808,5,1.449400e+02,63,3,3,1,2.118593e+00,2,1,0,3.200000e+00,1
9,809,5,1.819000e+01,48,1,2,0,6.086325e-01,1,1,0,1.300000e+00,1
9,810,5,6.911000e+01,25,2,3,0,2.667324e-01,2,1,0,2.300000e+00,1
9,811,5,7.909000e+01,19,2,1,0,1.436819e-04,1,1,0,2.100000e+00,1
9,812,5,7.615000e+01,72,2,1,0,5.658802e-01,3,1,0,2.100000e+00,1
9,813,5,8.114000e+01,14,2,3,0,6.707623e-01,1,1,0,2.300000e+00,1
9,814,5,1.722000e+01,3,1,1,1,1.717543e-04,3,1,0,1.300000e+00,1
9,815,5,3.024000e+01,71,1,3,0,1.445874e-04,2,1,0,1.300000e+00,1
9,816,5,6.419000e+01,30,2,2,1,1.430782e-04,3,1,0,2.100000e+00,1
9,817,5,3.428000e+01,46,1,3,0,1.463988e-04,3,1,0,1.300000e+00,1
9,818,5,8.413000e+01,28,2,2,1,1.442856e-04,2,1,0,2.300000e+00,1
9,819,5,1.308600e+02,50,3,1,0,3.915767e-01,1,1,0,3.200000e+00,1
9,820,5,9.222000e+01,6,2,1,0,1.442856e-04,3,1,0,2.100000e+00,1
9,821,5,1.108100e+02,7,3,3,1,8.508291e-01,3,1,0,3.200000e+00,1
9,822,5,6.270000e+00,45,1,1,1,1.692311e+00,4,1,0,1.300000e+00,1
9,823,5,3.835000e+01,8,1,1,1,8.626113e-02,2,1,0,1.300000e+00,1
9,824,5,5.604000e+01,47,2,3,0,6.081713e-01,3,1,0,2.300000e+00,1
9,825,5,1.347500e+02,60,3,3,1,3.854116e-01,1,1,0,3.200000e+00,1
9,826,5,1.393100e+02,44,3,2,0,6.027062e-01,3,1,0,3.100000e+00,1
9,827,5,2.565000e+01,56,1,1,1,6.041938e-01,2,1,0,1.200000e+00,1
9,828,5,8.114000e+01,14,2,3,0,9.893609e-01,2,1,0,2.300000e+00,1
9,829,5,1.264700e+02,9,3,3,1,3.509298e-01,3,1,0,3.100000e+00,1
9,830,5,1.417000e+01,15,1,2,0,2.724905e-01,1,1,0,1.300000e+00,1
9,831,5,1.184300e+02,36,3,3,1,6.179924e-01,1,1,0,3.100000e+00,1
9,832,5,1.003900e+02,12,3,1,0,2.251362e+00,3,1,0,3.100000e+00,1
9,833,5,5.303000e+01,26,2,1,0,3.012840e-01,2,1,0,2.100000e+00,1
9,834,5,4.927000e+01,58,2,3,0,7.107509e-01,1,1,0,2.100000e+00,1
9,835,5,9.784000e+01,54,3,2,0,8.398972e-01,3,1,0,3.200000e+00,1
9,836,5,5.212000e+01,64,2,1,0,1.337870e+00,2,1,0,2.100000e+00,1
9,837,5,1.184300e+02,36,3,0,0,2.500180e+00,2,1,0,3.100000e+00,1
9,838,5,7.200000e+00,38,1,1,1,7.011381e-01,2,1,0,1.300000e+00,1
9,839,5,1.417000e+01,15,1,3,0,7.106615e-01,2,1,0,1.300000e+00,1
9,840,5,1.377700e+02,53,3,2,0,6.721910e-01,2,1,0,3.200000e+00,1
9,841,5,9.405000e+01,27,2,3,0,8.735369e-01,3,1,0,2.300000e+00,1
9,842,5,1.377700e+02,53,3,3,1,8.252298e-02,3,1,0,3.200000e+00,1
9,843,5,5.303000e+01,26,2,1,0,2.840195e-02,3,1,0,2.100000e+00,1
9,844,5,1.128800e+02,5,3,2,0,1.880545e-04,1,1,0,3.200000e+00,1
9,845,5,1.214800e+02,1,3,3,1,1.439839e-04,4,1,0,3.100000e+00,1
9,846,5,3.024000e+01,71,1,1,1,2.886397e-01,3,1,0,1.300000e+00,1
9,847,5,6.419000e+01,30,2,3,0,1.018012e+00,4,1,0,2.100000e+00,1
9,848,5,1.108100e+02,7,3,3,1,1.339622e+00,4,1,0,3.200000e+00,1
9,849,5,7.909000e+01,19,2,2,1,1.970825e-01,2,1,0,2.100000e+00,1
9,850,5,7.509000e+01,66,2,3,0,3.741435e-01,1,1,0,2.300000e+00,1
9,851,5,1.819000e+01,48,1,1,1,1.705468e-04,2,1,0,1.300000e+00,1
9,852,5,1.297800e+02,2,3,3,1,6.651756e-01,2,1,0,3.200000e+00,1
9,853,5,1.347500e+02,60,3,3,1,4.347127e-01,2,1,0,3.200000e+00,1
9,854,5,1.819000e+01,48,1,1,1,2.201737e-01,3,1,0,1.300000e+00,1
9,855,5,2.565000e+01,56,1,1,1,2.455088e-01,3,1,0,1.200000e+00,1
9,856,5,7.710000e+00,41,1,2,0,1.278900e+00,3,1,0,1.200000e+00,1
9,857,5,6.911000e+01,25,2,2,1,3.043849e-01,3,1,0,2.300000e+00,1
9,858,5,1.128800e+02,5,3,1,0,2.976249e-01,2,1,0,3.200000e+00,1
9,859,5,5.604000e+01,47,2,1,0,1.427151e+00,4,1,0,2.300000e+00,1
9,860,5,1.308600e+02,50,3,3,1,1.476060e-04,2,1,0,3.200000e+00,1
9,861,5,3.835000e+01,8,1,1,1,8.593905e-02,3,1,0,1.300000e+00,1
9,862,5,9.608000e+01,13,2,3,0,8.473270e-01,4,1,0,2.100000e+00,1
9,863,5,6.302000e+01,10,2,3,0,7.607915e-01,1,1,0,2.300000e+00,1
9,864,5,7.909000e+01,19,2,1,0,9.142454e-01,3,1,0,2.100000e+00,1
9,865,5,1.034000e+02,20,3,2,0,1.267173e+00,3,1,0,3.100000e+00,1
9,866,5,4.651000e+01,39,1,1,1,1.647740e-01,4,1,0,1.200000e+00,1
9,867,5,6.302000e+01,10,2,3,0,3.104377e-01,2,1,0,2.300000e+00,1
9,868,5,9.784000e+01,54,3,3,1,4.958708e-01,4,1,0,3.200000e+00,1
9,869,5,1.264700e+02,9,3,3,1,7.296571e-02,4,1,0,3.100000e+00,1
9,870,5,9.222000e+01,6,2,2,1,3.708671e-01,4,1,0,2.100000e+00,1
9,871,5,7.710000e+00,41,1,1,1,4.363662e-01,4,1,0,1.200000e+00,1
9,872,5,1.347500e+02,60,3,3,1,7.735707e-02,3,1,0,3.200000e+00,1
9,873,5,4.340000e+01,62,1,1,1,2.289072e-02,3,1,0,1.300000e+00,1
9,874,5,1.128800e+02,5,3,1,0,2.967381e-01,3,1,0,3.200000e+00,1
9,875,5,4.927000e+01,58,2,3,0,3.140463e-01,2,1,0,2.100000e+00,1
9,876,5,2.916000e+01,65,1,1,1,8.830160e-01,2,1,0,1.300000e+00,1
9,877,5,2.366000e+01,21,1,1,1,4.362808e-01,4,1,0,1.200000e+00,1
9,878,5,4.927000e+01,58,2,3,0,1.134160e+00,3,1,0,2.100000e+00,1
9,879,5,1.334100e+02,23,3,3,1,1.063148e+00,4,1,0,3.100000e+00,1
9,880,5,1.297800e+02,2,3,3,1,1.439839e-04,3,1,0,3.200000e+00,1
9,881,5,4.340000e+01,62,1,1,1,3.943990e-01,4,1,0,1.300000e+00,1
9,882,5,7.509000e+01,66,2,3,0,7.316735e-01,2,1,0,2.300000e+00,1
9,883,5,3.310000e+00,17,1,3,0,1.212965e+00,1,1,0,1.300000e+00,1
9,884,5,1.449400e+02,63,3,2,0,1.460968e-04,3,1,0,3.200000e+00,1
9,885,5,3.835000e+01,8,1,3,0,1.415692e-04,4,1,0,1.300000e+00,1
9,886,5,3.024000e+01,71,1,4,0,1.625287e+00,4,1,0,1.300000e+00,1
9,887,5,8.413000e+01,28,2,2,1,7.560029e-02,3,1,0,2.300000e+00,1
9,888,5,7.201000e+01,32,2,1,0,7.745034e-02,3,1,0,2.100000e+00,1
9,889,5,1.383800e+02,68,3,3,1,8.073617e-01,2,1,0,3.100000e+00,1
9,890,5,8.413000e+01,28,2,2,1,8.567472e-01,4,1,0,2.300000e+00,1
9,891,5,1.297800e+02,2,3,3,1,1.784434e-02,4,1,0,3.200000e+00,1
9,892,5,1.722000e+01,3,1,1,1,1.483871e+00,4,1,0,1.300000e+00,1
9,893,5,6.302000e+01,10,2,3,0,4.684991e-01,3,1,0,2.300000e+00,1
9,894,5,1.239000e+02,69,3,3,1,8.941631e-01,2,1,0,3.200000e+00,1
9,895,5,3.569000e+01,35,1,1,1,7.599052e-01,4,1,0,1.200000e+00,1
9,896,5,3.310000e+00,17,1,3,0,8.009600e-01,2,1,0,1.300000e+00,1
9,897,5,2.916000e+01,65,1,1,1,2.747798e-01,3,1,0,1.300000e+00,1
9,898,5,9.198000e+01,37,2,3,0,8.118683e-01,2,1,0,2.300000e+00,1
9,899,5,1.819000e+01,48,1,1,1,8.451361e-01,4,1,0,1.300000e+00,1
9,900,5,5.212000e+01,64,2,3,0,4.783839e-01,3,1,0,2.100000e+00,1
9,901,5,3.428000e+01,46,1,3,0,6.001028e-01,4,1,0,1.300000e+00,1
9,902,5,6.911000e+01,25,2,1,0,4.972071e-01,4,1,0,2.300000e+00,1
9,903,5,4.730000e+00,18,1,1,1,1.178773e+00,4,1,0,1.200000e+00,1
9,904,5,1.417000e+01,15,1,3,0,1.044092e+00,3,1,0,1.300000e+00,1
9,905,5,1.003900e+02,12,3,3,1,1.270019e+00,4,1,0,3.100000e+00,1
9,906,5,1.239000e+02,69,3,2,0,6.554439e-01,3,1,0,3.200000e+00,1
9,907,5,7.509000e+01,66,2,3,0,2.326299e-01,3,1,0,2.300000e+00,1
9,908,5,1.239000e+02,69,3,3,1,1.985844e+00,4,1,0,3.200000e+00,1
9,909,5,1.449400e+02,63,3,1,0,8.203069e-01,4,1,0,3.200000e+00,1
9,910,5,1.393100e+02,44,3,2,0,9.578317e-01,4,1,0,3.100000e+00,1
9,911,5,1.347500e+02,60,3,3,1,7.349438e-01,4,1,0,3.200000e+00,1
9,912,5,1.377700e+02,53,3,1,0,7.681636e-01,4,1,0,3.200000e+00,1
9,913,5,8.114000e+01,14,2,3,0,7.377516e-01,3,1,0,2.300000e+00,1
9,914,5,9.405000e+01,27,2,0,0,2.500430e+00,4,1,0,2.300000e+00,1
9,915,5,2.916000e+01,65,1,1,1,6.455428e-01,4,1,0,1.300000e+00,1
9,916,5,8.726000e+01,24,2,3,0,7.425143e-01,3,1,0,2.100000e+00,1
9,917,5,4.927000e+01,58,2,2,1,3.126983e-01,4,1,0,2.100000e+00,1
9,918,5,1.184300e+02,36,3,3,1,5.703425e-01,3,1,0,3.100000e+00,1
9,919,5,7.200000e+00,38,1,1,1,8.835195e-01,3,1,0,1.300000e+00,1
9,920,5,5.212000e+01,64,2,3,0,5.491355e-01,4,1,0,2.100000e+00,1
9,921,5,1.034000e+02,20,3,1,0,4.787177e-01,4,1,0,3.100000e+00,1
9,922,5,7.509000e+01,66,2,2,1,2.959859e-01,4,1,0,2.300000e+00,1
9,923,5,1.308600e+02,50,3,3,1,3.217418e-01,3,1,0,3.200000e+00,1
9,924,5,3.310000e+00,17,1,1,1,2.988227e-01,3,1,0,1.300000e+00,1
9,925,5,2.565000e+01,56,1,1,1,9.563850e-01,4,1,0,1.200000e+00,1
9,926,5,8.114000e+01,14,2,3,0,3.495663e-01,4,1,0,2.300000e+00,1
9,927,5,1.383800e+02,68,3,3,1,1.087471e+00,3,1,0,3.100000e+00,1
9,928,5,7.909000e+01,19,2,3,0,1.384389e+00,4,1,0,2.100000e+00,1
9,929,5,6.302000e+01,10,2,3,0,4.496912e-01,4,1,0,2.300000e+00,1
9,930,5,9.198000e+01,37,2,2,1,1.156136e-01,3,1,0,2.300000e+00,1
9,931,5,1.383800e+02,68,3,1,0,1.249578e-01,4,1,0,3.100000e+00,1
9,932,5,7.201000e+01,32,2,3,0,7.746978e-01,4,1,0,2.100000e+00,1
9,933,5,7.200000e+00,38,1,3,0,6.801539e-01,4,1,0,1.300000e+00,1
9,934,5,7.615000e+01,72,2,1,0,1.137933e+00,4,1,0,2.100000e+00,1
9,935,5,1.128800e+02,5,3,3,1,6.832931e-01,4,1,0,3.200000e+00,1
9,936,5,1.184300e+02,36,3,3,1,9.254960e-01,4,1,0,3.100000e+00,1
9,937,5,5.303000e+01,26,2,1,0,8.786844e-01,4,1,0,2.100000e+00,1
9,938,5,1.417000e+01,15,1,3,0,1.647790e+00,4,1,0,1.300000e+00,1
9,939,5,3.310000e+00,17,1,2,0,3.940431e-01,4,1,0,1.300000e+00,1
9,940,5,8.726000e+01,24,2,2,1,1.527376e-04,4,1,0,2.100000e+00,1
9,941,5,9.198000e+01,37,2,3,0,1.457948e-04,4,1,0,2.300000e+00,1
9,942,5,1.363400e+02,22,3,2,0,1.046432e+00,4,1,0,3.100000e+00,1
9,943,5,1.308600e+02,50,3,1,0,1.922802e-04,4,1,0,3.200000e+00,1
9,944,6,125,31,2,1,0,2.052748e+00,NaN,2,1,3,1
9,945,6,39,12,1,2,0,1.321421e+00,NaN,2,0,1,1
9,946,6,19,30,2,2,1,1.490732e+00,NaN,2,0,1,1
9,947,6,84,54,2,1,0,8.613444e-01,NaN,2,0,2,1
9,948,6,88,5,1,1,1,1.272943e+00,NaN,2,0,2,1
9,949,6,66,21,2,2,1,1.340868e+00,NaN,2,0,2,1
9,950,6,114,14,2,2,1,1.605295e+00,NaN,2,0,3,1
9,951,6,30,70,2,2,1,1.243172e+00,NaN,2,1,1,1
9,952,6,70,34,1,1,1,9.520860e-01,NaN,2,1,2,1
9,953,6,117,15,2,2,1,1.799809e+00,NaN,2,0,3,1
9,954,6,106,67,1,2,0,1.493952e+00,NaN,2,1,3,1
9,955,6,44,4,2,2,1,2.136378e+00,NaN,2,1,1,1
9,956,6,67,29,2,2,1,1.249074e+00,NaN,2,1,2,1
9,957,6,73,18,2,2,1,1.309616e+00,NaN,2,0,2,1
9,958,6,22,6,2,2,1,1.879578e+00,NaN,2,0,1,1
9,959,6,3,26,1,2,0,1.482246e+00,NaN,2,0,1,1
9,960,6,41,23,2,2,1,1.428980e+00,NaN,2,0,1,1
9,961,6,51,39,2,2,1,1.050654e+00,NaN,2,0,2,1
9,962,6,113,28,1,1,1,2.077481e+00,NaN,2,0,3,1
9,963,6,135,8,2,2,1,1.200876e+00,NaN,2,0,3,1
9,964,6,111,25,2,2,1,1.358738e+00,NaN,2,0,3,1
9,965,6,90,69,1,1,1,1.847096e+00,NaN,2,0,2,1
9,966,6,122,3,2,2,1,2.363120e+00,NaN,2,0,3,1
9,967,6,38,68,2,2,1,1.266631e+00,NaN,2,0,1,1
9,968,6,31,44,1,1,1,1.605646e+00,NaN,2,0,1,1
9,969,6,54,11,1,1,1,8.835294e-01,NaN,2,1,2,1
9,970,6,109,66,1,1,1,1.110317e+00,NaN,2,0,3,1
9,971,6,78,2,2,2,1,8.885680e-01,NaN,2,0,2,1
9,972,6,9,19,1,1,1,1.611254e+00,NaN,2,0,1,1
9,973,6,56,55,1,1,1,1.192927e+00,NaN,2,0,2,1
9,974,6,82,40,1,2,0,1.007983e+00,NaN,2,1,2,1
9,975,6,71,41,2,2,1,8.937091e-01,NaN,2,0,2,1
9,976,6,47,9,1,2,0,1.696752e+00,NaN,2,0,1,1
9,977,6,65,56,1,1,1,1.770759e+00,NaN,2,0,2,1
9,978,6,94,63,2,2,1,1.202014e+00,NaN,2,0,2,1
9,979,6,50,52,2,2,1,1.063961e+00,NaN,2,1,2,1
9,980,6,89,51,1,1,1,1.227230e+00,NaN,2,1,2,1
9,981,6,95,16,2,1,0,9.611008e-01,NaN,2,1,2,1
9,982,6,34,22,1,1,1,1.640983e+00,NaN,2,0,1,1
9,983,6,116,65,2,1,0,2.421429e+00,NaN,2,0,3,1
9,984,6,15,72,2,2,1,2.218977e+00,NaN,2,0,1,1
9,985,6,40,20,2,2,1,1.609441e+00,NaN,2,0,1,1
9,986,6,119,48,2,2,1,1.318594e+00,NaN,2,0,3,1
9,987,6,1,32,1,1,1,1.319984e+00,NaN,2,0,1,1
9,988,6,86,50,1,1,1,1.992810e+00,NaN,2,0,2,1
9,989,6,101,57,2,2,1,2.271522e+00,NaN,2,1,3,1
9,990,6,27,58,1,1,1,2.619234e+00,NaN,2,0,1,1
9,991,6,127,45,2,1,0,1.616249e+00,NaN,2,0,3,1
9,992,6,131,17,2,2,1,1.077933e+00,NaN,2,0,3,1
9,993,6,140,62,1,2,0,1.737230e+00,NaN,2,0,3,1
9,994,6,99,43,2,2,1,1.522102e+00,NaN,2,1,3,1
9,995,6,81,7,2,2,1,9.153948e-01,NaN,2,0,2,1
9,996,6,69,35,1,1,1,9.260946e-01,NaN,2,0,2,1
9,997,6,26,24,1,2,0,1.526162e+00,NaN,2,0,1,1
9,998,6,20,49,2,2,1,1.399056e+00,NaN,2,1,1,1
9,999,6,10,61,1,1,1,1.669248e+00,NaN,2,1,1,1
9,1000,6,12,64,1,1,1,1.600688e+00,NaN,2,0,1,1
9,1001,6,77,53,2,1,0,8.229533e-01,NaN,2,0,2,1
9,1002,6,104,47,1,1,1,1.396424e+00,NaN,2,0,3,1
9,1003,6,124,71,1,1,1,1.418194e+00,NaN,2,0,3,1
9,1004,6,128,46,1,1,1,1.175375e+00,NaN,2,0,3,1
9,1005,6,115,42,2,2,1,1.751011e+00,NaN,2,1,3,1
9,1006,6,98,37,2,1,0,2.127217e+00,NaN,2,0,3,1
9,1007,6,120,38,2,2,1,1.328386e+00,NaN,2,0,3,1
9,1008,6,105,27,1,1,1,1.329132e+00,NaN,2,0,3,1
9,1009,6,43,36,1,1,1,1.818076e+00,NaN,2,0,1,1
9,1010,6,75,60,1,1,1,9.991910e-01,NaN,2,0,2,1
9,1011,6,48,1,1,1,1,1.798514e+00,NaN,2,0,1,1
9,1012,6,8,13,1,2,0,1.130956e+00,NaN,2,0,1,1
9,1013,6,57,33,1,1,1,1.044223e+00,NaN,2,1,2,1
9,1014,6,102,10,1,1,1,1.368633e+00,NaN,2,0,3,1
9,1015,6,45,59,2,2,1,1.576155e+00,NaN,2,1,1,1
9,1016,6,134,60,1,2,0,1.783690e+00,NaN,1,0,3,1
9,1017,6,49,58,1,2,0,1.430036e+00,NaN,1,0,2,1
9,1018,6,137,53,1,1,1,1.618448e+00,NaN,1,0,3,1
9,1019,6,36,55,2,2,1,1.264058e+00,NaN,1,0,1,1
9,1020,6,18,34,1,1,1,1.635497e+00,NaN,1,1,1,1
9,1021,6,130,50,1,1,1,2.528334e+00,NaN,1,0,3,1
9,1022,6,141,40,2,2,1,1.256859e+00,NaN,1,1,3,1
9,1023,6,126,9,1,1,1,1.628618e+00,NaN,1,0,3,1
9,1024,6,112,5,2,2,1,1.218007e+00,NaN,1,0,3,1
9,1025,6,72,32,2,2,1,9.110786e-01,NaN,1,0,2,1
9,1026,6,2,17,2,2,1,1.441304e+00,NaN,1,0,1,1
9,1027,6,35,35,2,2,1,1.245972e+00,NaN,1,0,1,1
9,1028,6,46,39,1,1,1,1.322007e+00,NaN,1,0,1,1
9,1029,6,87,24,1,1,1,1.003076e+00,NaN,1,0,2,1
9,1030,6,53,26,2,2,1,7.611579e-01,NaN,1,0,2,1
9,1031,6,32,31,1,1,1,1.129397e+00,NaN,1,1,1,1
9,1032,6,91,37,1,2,0,1.010167e+00,NaN,1,0,2,1
9,1033,6,24,52,1,1,1,1.383828e+00,NaN,1,1,1,1
9,1034,6,96,13,2,2,1,9.519040e-01,NaN,1,0,2,1
9,1035,6,63,43,1,1,1,9.425350e-01,NaN,1,1,2,1
9,1036,6,136,22,1,1,1,1.031506e+00,NaN,1,0,3,1
9,1037,6,4,18,1,1,1,1.340640e+00,NaN,1,0,1,1
9,1038,6,103,20,1,1,1,1.404863e+00,NaN,1,0,3,1
9,1039,6,17,48,2,2,1,1.274586e+00,NaN,1,0,1,1
9,1040,6,142,4,1,1,1,1.702347e+00,NaN,1,1,3,1
9,1041,6,92,6,1,1,1,9.521928e-01,NaN,1,0,2,1
9,1042,6,59,57,1,2,0,2.200450e+00,NaN,1,1,2,1
9,1043,6,76,72,1,1,1,1.054455e+00,NaN,1,0,2,1
9,1044,6,16,3,1,1,1,1.130370e+00,NaN,1,0,1,1
9,1045,6,121,1,2,1,0,1.042838e+00,NaN,1,0,3,1
9,1046,6,58,61,2,2,1,1.447575e+00,NaN,1,1,2,1
9,1047,6,133,23,2,2,1,1.547920e+00,NaN,1,0,3,1
9,1048,6,123,69,1,2,0,2.339819e+00,NaN,1,0,3,1
9,1049,6,74,66,2,2,1,1.188726e+00,NaN,1,0,2,1
9,1050,6,52,64,1,2,0,7.630415e-01,NaN,1,0,2,1
9,1051,6,80,14,2,2,1,8.346398e-01,NaN,1,0,2,1
9,1052,6,60,49,1,2,0,1.135146e+00,NaN,1,1,2,1
9,1053,6,97,54,2,2,1,1.351872e+00,NaN,1,0,3,1
9,1054,6,61,42,1,1,1,7.919071e-01,NaN,1,1,2,1
9,1055,6,33,46,1,1,1,1.214614e+00,NaN,1,0,1,1
9,1056,6,100,12,2,2,1,1.972111e+00,NaN,1,0,3,1
9,1057,6,28,65,2,2,1,1.259435e+00,NaN,1,0,1,1
9,1058,6,110,7,2,2,1,1.703499e+00,NaN,1,0,3,1
9,1059,6,132,59,1,1,1,1.617786e+00,NaN,1,1,3,1
9,1060,6,108,70,1,1,1,1.110957e+00,NaN,1,1,3,1
9,1061,6,144,63,2,2,1,1.336838e+00,NaN,1,0,3,1
9,1062,6,13,15,1,1,1,1.361528e+00,NaN,1,0,1,1
9,1063,6,68,25,1,1,1,8.328891e-01,NaN,1,0,2,1
9,1064,6,85,67,2,2,1,8.216650e-01,NaN,1,1,2,1
9,1065,6,129,2,2,2,1,1.538968e+00,NaN,1,0,3,1
9,1066,6,79,19,2,2,1,1.555627e+00,NaN,1,0,2,1
9,1067,6,93,27,1,1,1,9.079370e-01,NaN,1,0,2,1
9,1068,6,25,56,1,1,1,1.181714e+00,NaN,1,0,1,1
9,1069,6,138,68,2,2,1,1.588194e+00,NaN,1,0,3,1
9,1070,6,37,8,2,1,0,1.779183e+00,NaN,1,0,1,1
9,1071,6,11,33,1,2,0,1.993890e+00,NaN,1,1,1,1
9,1072,6,62,10,2,1,0,2.000543e+00,NaN,1,0,2,1
9,1073,6,64,30,1,1,1,1.214231e+00,NaN,1,0,2,1
9,1074,6,55,47,2,2,1,1.628155e+00,NaN,1,0,2,1
9,1075,6,29,71,2,2,1,2.601154e+00,NaN,1,0,1,1
9,1076,6,143,16,2,2,1,1.943229e+00,NaN,1,1,3,1
9,1077,6,118,36,1,2,0,2.024027e+00,NaN,1,0,3,1
9,1078,6,107,51,2,2,1,1.589146e+00,NaN,1,1,3,1
9,1079,6,7,41,1,1,1,1.437492e+00,NaN,1,0,1,1
9,1080,6,5,45,1,1,1,1.064824e+00,NaN,1,0,1,1
9,1081,6,21,29,2,2,1,1.092378e+00,NaN,1,1,1,1
9,1082,6,23,21,2,2,1,1.168441e+00,NaN,1,0,1,1
9,1083,6,14,11,2,2,1,1.686220e+00,NaN,1,1,1,1
9,1084,6,6,38,1,1,1,1.752731e+00,NaN,1,0,1,1
9,1085,6,42,62,2,2,1,1.184829e+00,NaN,1,0,1,1
9,1086,6,83,28,1,1,1,1.631563e+00,NaN,1,0,2,1
9,1087,6,139,44,1,1,1,1.396702e+00,NaN,1,0,3,1
