Subject,Trial,Cond,ImageNum,CueNum,Correct,Resp,Accuracy,RT,CueRep,ImageType,Baseline,Category,Block
21,1,1,1,NaN,NaN,0,NaN,9.995737e+00,NaN,2,0,1,1
21,2,1,90,NaN,NaN,0,NaN,9.995428e+00,NaN,1,0,2,1
21,3,1,98,NaN,NaN,0,NaN,9.995554e+00,NaN,0,1,3,1
21,4,1,53,NaN,NaN,0,NaN,9.995453e+00,NaN,0,0,2,1
21,5,1,38,NaN,NaN,0,NaN,9.995544e+00,NaN,2,0,1,1
21,6,1,71,NaN,NaN,0,NaN,9.995099e+00,NaN,0,0,2,1
21,7,1,108,NaN,NaN,0,NaN,9.995020e+00,NaN,1,0,3,1
21,8,1,53,NaN,NaN,0,NaN,9.995296e+00,NaN,2,0,2,1
21,9,1,6,NaN,NaN,0,NaN,9.995363e+00,NaN,2,0,1,1
21,10,1,116,NaN,NaN,0,NaN,9.995386e+00,NaN,0,0,3,1
21,11,1,129,NaN,NaN,0,NaN,9.995106e+00,NaN,0,0,3,1
21,12,1,124,NaN,NaN,0,NaN,9.995375e+00,NaN,0,0,3,1
21,13,1,111,NaN,NaN,0,NaN,9.995104e+00,NaN,2,0,3,1
21,14,1,39,NaN,NaN,0,NaN,9.995584e+00,NaN,2,1,1,1
21,15,1,121,NaN,NaN,0,NaN,9.995168e+00,NaN,2,0,3,1
21,16,1,123,NaN,NaN,0,NaN,9.995253e+00,NaN,0,0,3,1
21,17,1,77,NaN,NaN,0,NaN,9.995455e+00,NaN,2,1,2,1
21,18,1,5,NaN,NaN,0,NaN,9.995179e+00,NaN,2,0,1,1
21,19,1,111,NaN,NaN,0,NaN,9.995200e+00,NaN,0,0,3,1
21,20,1,34,NaN,NaN,0,NaN,9.995385e+00,NaN,2,0,1,1
21,21,1,19,NaN,NaN,0,NaN,9.995431e+00,NaN,0,0,1,1
21,22,1,44,NaN,NaN,0,NaN,9.995379e+00,NaN,0,0,1,1
21,23,1,109,NaN,NaN,0,NaN,9.995033e+00,NaN,1,0,3,1
21,24,1,15,NaN,NaN,0,NaN,9.995050e+00,NaN,0,1,1,1
21,25,1,84,NaN,NaN,0,NaN,9.995434e+00,NaN,2,1,2,1
21,26,1,121,NaN,NaN,0,NaN,9.995617e+00,NaN,0,0,3,1
21,27,1,118,NaN,NaN,0,NaN,9.995450e+00,NaN,2,1,3,1
21,28,1,74,NaN,NaN,0,NaN,9.995220e+00,NaN,0,0,2,1
21,29,1,12,NaN,NaN,0,NaN,9.995553e+00,NaN,0,0,1,1
21,30,1,20,NaN,NaN,0,NaN,9.995443e+00,NaN,0,0,1,1
21,31,1,136,NaN,NaN,0,NaN,9.995370e+00,NaN,1,0,3,1
21,32,1,82,NaN,NaN,0,NaN,9.995289e+00,NaN,1,0,2,1
21,33,1,16,NaN,NaN,0,NaN,9.995559e+00,NaN,0,0,1,1
21,34,1,78,NaN,NaN,0,NaN,9.995116e+00,NaN,0,0,2,1
21,35,1,117,NaN,NaN,0,NaN,9.995415e+00,NaN,0,1,3,1
21,36,1,41,NaN,NaN,0,NaN,9.995267e+00,NaN,1,0,1,1
21,37,1,73,NaN,NaN,0,NaN,9.995504e+00,NaN,0,1,2,1
21,38,1,96,NaN,NaN,0,NaN,9.995344e+00,NaN,0,0,2,1
21,39,1,38,NaN,NaN,0,NaN,9.995511e+00,NaN,0,0,1,1
21,40,1,51,NaN,NaN,0,NaN,9.995025e+00,NaN,2,1,2,1
21,41,1,87,NaN,NaN,0,NaN,9.995590e+00,NaN,0,1,2,1
21,42,1,113,NaN,NaN,0,NaN,9.995437e+00,NaN,1,0,3,1
21,43,1,141,NaN,NaN,0,NaN,9.995461e+00,NaN,2,1,3,1
21,44,1,76,NaN,NaN,0,NaN,9.995169e+00,NaN,1,0,2,1
21,45,1,92,NaN,NaN,0,NaN,9.995035e+00,NaN,0,0,2,1
21,46,1,23,NaN,NaN,0,NaN,9.995216e+00,NaN,2,0,1,1
21,47,1,120,NaN,NaN,0,NaN,9.995054e+00,NaN,1,1,3,1
21,48,1,23,NaN,NaN,0,NaN,9.995030e+00,NaN,0,0,1,1
21,49,1,100,NaN,NaN,0,NaN,9.995451e+00,NaN,0,0,3,1
21,50,1,105,NaN,NaN,0,NaN,9.995482e+00,NaN,1,1,3,1
21,51,1,35,NaN,NaN,0,NaN,9.995579e+00,NaN,0,0,1,1
21,52,1,83,NaN,NaN,0,NaN,9.995532e+00,NaN,1,0,2,1
21,53,1,43,NaN,NaN,0,NaN,9.995250e+00,NaN,2,1,1,1
21,54,1,60,NaN,NaN,0,NaN,9.995601e+00,NaN,2,0,2,1
21,55,1,112,NaN,NaN,0,NaN,9.995594e+00,NaN,2,0,3,1
21,56,1,67,NaN,NaN,0,NaN,9.995458e+00,NaN,2,0,2,1
21,57,1,120,NaN,NaN,2,NaN,9.136725e+00,NaN,0,1,3,1
21,58,1,110,NaN,NaN,2,NaN,1.324072e+00,NaN,0,0,3,1
21,59,1,137,NaN,NaN,2,NaN,2.184482e+00,NaN,0,0,3,1
21,60,1,115,NaN,NaN,2,NaN,4.130482e+00,NaN,0,0,3,1
21,61,1,70,NaN,NaN,2,NaN,3.406069e+00,NaN,2,0,2,1
21,62,1,6,NaN,NaN,2,NaN,2.167316e+00,NaN,0,0,1,1
21,63,1,28,NaN,NaN,2,NaN,2.338325e-01,NaN,0,0,1,1
21,64,1,48,NaN,NaN,2,NaN,1.063116e-01,NaN,1,0,1,1
21,65,1,55,NaN,NaN,2,NaN,1.999578e+00,NaN,1,0,2,1
21,66,1,93,NaN,NaN,2,NaN,1.207495e-01,NaN,2,0,2,1
21,67,1,32,NaN,NaN,2,NaN,4.453796e-01,NaN,0,0,1,1
21,68,1,130,NaN,NaN,2,NaN,1.331352e-02,NaN,1,0,3,1
21,69,1,59,NaN,NaN,2,NaN,1.339423e-01,NaN,1,0,2,1
21,70,1,17,NaN,NaN,2,NaN,1.620777e-01,NaN,0,0,1,1
21,71,1,22,NaN,NaN,2,NaN,9.302528e-02,NaN,0,1,1,1
21,72,1,116,NaN,NaN,2,NaN,3.594642e+00,NaN,1,0,3,1
21,73,1,25,NaN,NaN,2,NaN,1.279827e-04,NaN,0,1,1,1
21,74,1,13,NaN,NaN,2,NaN,1.413004e-01,NaN,2,0,1,1
21,75,1,126,NaN,NaN,2,NaN,1.185558e+00,NaN,0,1,3,1
21,76,1,40,NaN,NaN,1,NaN,9.908664e-02,NaN,1,0,1,1
21,77,1,58,NaN,NaN,1,NaN,8.888833e-01,NaN,2,1,2,1
21,78,1,4,NaN,NaN,1,NaN,1.279827e-04,NaN,2,0,1,1
21,79,1,24,NaN,NaN,1,NaN,1.117566e-01,NaN,0,1,1,1
21,80,1,61,NaN,NaN,1,NaN,1.306993e-04,NaN,1,1,2,1
21,81,1,144,NaN,NaN,1,NaN,6.269882e-02,NaN,0,0,3,1
21,82,1,63,NaN,NaN,1,NaN,1.306993e-04,NaN,1,0,2,1
21,83,1,7,NaN,NaN,1,NaN,3.956324e-02,NaN,0,0,1,1
21,84,1,77,NaN,NaN,1,NaN,1.300956e-04,NaN,0,1,2,1
21,85,1,15,NaN,NaN,1,NaN,1.346233e-04,NaN,2,1,1,1
21,86,1,71,NaN,NaN,1,NaN,1.325103e-04,NaN,2,0,2,1
21,87,1,122,NaN,NaN,1,NaN,9.636469e-01,NaN,2,0,3,1
21,88,1,1,NaN,NaN,1,NaN,4.647913e-02,NaN,0,0,1,1
21,89,1,118,NaN,NaN,1,NaN,1.357905e+00,NaN,0,1,3,1
21,90,1,34,NaN,NaN,1,NaN,6.811614e-01,NaN,0,0,1,1
21,91,1,99,NaN,NaN,1,NaN,2.375048e+00,NaN,0,1,3,1
21,92,1,140,NaN,NaN,1,NaN,1.294919e-04,NaN,0,0,3,1
21,93,1,139,NaN,NaN,1,NaN,1.070315e-01,NaN,2,0,3,1
21,94,1,135,NaN,NaN,1,NaN,8.318269e-03,NaN,2,0,3,1
21,95,1,26,NaN,NaN,1,NaN,6.576890e-02,NaN,0,0,1,1
21,96,1,102,NaN,NaN,1,NaN,4.959237e-01,NaN,1,1,3,1
21,97,1,52,NaN,NaN,1,NaN,1.273790e-04,NaN,0,0,2,1
21,98,1,51,NaN,NaN,1,NaN,1.322085e-04,NaN,0,1,2,1
21,99,1,56,NaN,NaN,1,NaN,1.310011e-04,NaN,1,1,2,1
21,100,1,97,NaN,NaN,1,NaN,1.310690e-01,NaN,2,1,3,1
21,101,1,48,NaN,NaN,1,NaN,7.131471e-02,NaN,0,0,1,1
21,102,1,85,NaN,NaN,1,NaN,1.572786e-01,NaN,1,0,2,1
21,103,1,52,NaN,NaN,1,NaN,2.446461e-02,NaN,1,0,2,1
21,104,1,3,NaN,NaN,2,NaN,1.450297e-01,NaN,0,1,1,1
21,105,1,96,NaN,NaN,1,NaN,8.453133e-02,NaN,1,0,2,1
21,106,1,88,NaN,NaN,1,NaN,1.068869e-01,NaN,0,0,2,1
21,107,1,72,NaN,NaN,1,NaN,1.285863e-04,NaN,1,0,2,1
21,108,1,103,NaN,NaN,1,NaN,1.764259e-02,NaN,0,0,3,1
21,109,1,125,NaN,NaN,1,NaN,1.306993e-04,NaN,0,0,3,1
21,110,1,45,NaN,NaN,2,NaN,1.343214e-04,NaN,0,1,1,1
21,111,1,119,NaN,NaN,1,NaN,1.094197e-01,NaN,0,0,3,1
21,112,1,92,NaN,NaN,1,NaN,4.991275e-01,NaN,2,0,2,1
21,113,1,122,NaN,NaN,1,NaN,1.355424e-01,NaN,0,0,3,1
21,114,1,119,NaN,NaN,1,NaN,8.380781e-02,NaN,2,0,3,1
21,115,1,103,NaN,NaN,1,NaN,2.577190e-02,NaN,2,0,3,1
21,116,1,11,NaN,NaN,1,NaN,1.337177e-04,NaN,2,0,1,1
21,117,1,30,NaN,NaN,1,NaN,5.156038e-01,NaN,0,0,1,1
21,118,1,75,NaN,NaN,1,NaN,1.306993e-04,NaN,0,0,2,1
21,119,1,10,NaN,NaN,2,NaN,1.866627e-01,NaN,1,0,1,1
21,120,1,143,NaN,NaN,2,NaN,3.637514e-02,NaN,1,1,3,1
21,121,1,2,NaN,NaN,1,NaN,1.285863e-04,NaN,0,0,1,1
21,122,1,99,NaN,NaN,1,NaN,4.644714e-02,NaN,1,1,3,1
21,123,1,127,NaN,NaN,1,NaN,1.291900e-04,NaN,0,0,3,1
21,124,1,64,NaN,NaN,1,NaN,7.938909e-02,NaN,2,0,2,1
21,125,1,56,NaN,NaN,1,NaN,1.291900e-04,NaN,0,1,2,1
21,126,1,4,NaN,NaN,1,NaN,3.142276e-02,NaN,0,0,1,1
21,127,1,21,NaN,NaN,1,NaN,3.757492e-01,NaN,0,1,1,1
21,128,1,21,NaN,NaN,1,NaN,5.876879e-02,NaN,1,1,1,1
21,129,1,42,NaN,NaN,1,NaN,1.506211e-04,NaN,0,0,1,1
21,130,1,17,NaN,NaN,1,NaN,6.710366e-02,NaN,1,0,1,1
21,131,1,109,NaN,NaN,1,NaN,1.705381e-01,NaN,0,0,3,1
21,132,1,104,NaN,NaN,2,NaN,1.515266e-04,NaN,1,0,3,1
21,133,1,84,NaN,NaN,1,NaN,1.319066e-04,NaN,0,1,2,1
21,134,1,62,NaN,NaN,1,NaN,4.822712e-02,NaN,0,0,2,1
21,135,1,138,NaN,NaN,1,NaN,1.267753e-04,NaN,0,0,3,1
21,136,1,139,NaN,NaN,1,NaN,2.088704e-01,NaN,0,0,3,1
21,137,1,33,NaN,NaN,1,NaN,1.306993e-04,NaN,2,0,1,1
21,138,1,66,NaN,NaN,1,NaN,1.234308e-01,NaN,0,0,2,1
21,139,1,81,NaN,NaN,1,NaN,9.581071e-02,NaN,2,0,2,1
21,140,1,106,NaN,NaN,1,NaN,1.503192e-04,NaN,0,0,3,1
21,141,1,91,NaN,NaN,1,NaN,4.710426e-02,NaN,0,0,2,1
21,142,1,19,NaN,NaN,1,NaN,1.028425e-01,NaN,1,0,1,1
21,143,1,36,NaN,NaN,1,NaN,1.641251e-01,NaN,1,0,1,1
21,144,1,64,NaN,NaN,1,NaN,7.109919e-02,NaN,0,0,2,1
21,145,1,31,NaN,NaN,1,NaN,4.642239e-02,NaN,2,0,1,1
21,146,1,49,NaN,NaN,1,NaN,6.058497e-01,NaN,1,0,2,1
21,147,1,144,NaN,NaN,1,NaN,1.337177e-04,NaN,2,0,3,1
21,148,1,46,NaN,NaN,2,NaN,8.092096e-02,NaN,0,0,1,1
21,149,1,59,NaN,NaN,1,NaN,1.297937e-04,NaN,0,0,2,1
21,150,1,32,NaN,NaN,1,NaN,1.303974e-04,NaN,2,0,1,1
21,151,1,37,NaN,NaN,2,NaN,1.310011e-04,NaN,1,1,1,1
21,152,1,39,NaN,NaN,1,NaN,1.328122e-04,NaN,0,1,1,1
21,153,1,36,NaN,NaN,1,NaN,1.288882e-04,NaN,0,0,1,1
21,154,1,82,NaN,NaN,1,NaN,1.331140e-04,NaN,0,0,2,1
21,155,1,81,NaN,NaN,1,NaN,2.506075e-02,NaN,0,0,2,1
21,156,1,90,NaN,NaN,1,NaN,1.451577e-03,NaN,0,0,2,1
21,157,1,117,NaN,NaN,2,NaN,1.300956e-04,NaN,1,1,3,1
21,158,1,28,NaN,NaN,1,NaN,1.013085e-01,NaN,1,0,1,1
21,159,1,10,NaN,NaN,1,NaN,1.626949e-04,NaN,0,0,1,1
21,160,1,44,NaN,NaN,1,NaN,1.081858e-01,NaN,1,0,1,1
21,161,1,123,NaN,NaN,2,NaN,1.414450e-03,NaN,1,0,3,1
21,162,1,93,NaN,NaN,1,NaN,4.275254e-02,NaN,0,0,2,1
21,163,1,87,NaN,NaN,1,NaN,1.887654e-02,NaN,2,1,2,1
21,164,1,128,NaN,NaN,2,NaN,5.188791e-02,NaN,2,0,3,1
21,165,1,68,NaN,NaN,1,NaN,1.231531e-01,NaN,1,0,2,1
21,166,1,54,NaN,NaN,1,NaN,1.573251e-02,NaN,0,0,2,1
21,167,1,110,NaN,NaN,1,NaN,1.243605e-04,NaN,2,0,3,1
21,168,1,14,NaN,NaN,1,NaN,1.228969e-01,NaN,0,1,1,1
21,169,1,135,NaN,NaN,1,NaN,2.388718e-01,NaN,0,0,3,1
21,170,1,112,NaN,NaN,1,NaN,1.325103e-04,NaN,0,0,3,1
21,171,1,20,NaN,NaN,1,NaN,1.300956e-04,NaN,2,0,1,1
21,172,1,134,NaN,NaN,2,NaN,1.291900e-04,NaN,0,0,3,1
21,173,1,80,NaN,NaN,1,NaN,1.279827e-04,NaN,0,1,2,1
21,174,1,35,NaN,NaN,2,NaN,1.297937e-04,NaN,2,0,1,1
21,175,1,79,NaN,NaN,1,NaN,1.297937e-04,NaN,0,0,2,1
21,176,1,104,NaN,NaN,1,NaN,7.687109e-03,NaN,0,0,3,1
21,177,1,91,NaN,NaN,1,NaN,8.873243e-02,NaN,2,0,2,1
21,178,1,140,NaN,NaN,1,NaN,1.325103e-04,NaN,2,0,3,1
21,179,1,24,NaN,NaN,1,NaN,1.206080e-01,NaN,1,1,1,1
21,180,1,66,NaN,NaN,1,NaN,1.316048e-04,NaN,2,0,2,1
21,181,1,101,NaN,NaN,2,NaN,7.902114e-02,NaN,2,0,3,1
21,182,1,7,NaN,NaN,1,NaN,1.300956e-04,NaN,1,0,1,1
21,183,1,8,NaN,NaN,1,NaN,1.325103e-04,NaN,1,0,1,1
21,184,1,85,NaN,NaN,1,NaN,1.282284e-01,NaN,0,0,2,1
21,185,1,94,NaN,NaN,1,NaN,2.830016e-02,NaN,0,1,2,1
21,186,1,42,NaN,NaN,1,NaN,1.084070e-01,NaN,1,0,1,1
21,187,1,94,NaN,NaN,1,NaN,7.386923e-02,NaN,2,1,2,1
21,188,1,124,NaN,NaN,1,NaN,5.632263e-02,NaN,2,0,3,1
21,189,1,18,NaN,NaN,1,NaN,1.322085e-04,NaN,0,0,1,1
21,190,1,131,NaN,NaN,1,NaN,1.698134e-01,NaN,1,0,3,1
21,191,1,54,NaN,NaN,1,NaN,2.828115e-02,NaN,2,0,2,1
21,192,1,67,NaN,NaN,1,NaN,1.352270e-04,NaN,0,0,2,1
21,193,1,108,NaN,NaN,2,NaN,1.181060e-01,NaN,0,0,3,1
21,194,1,97,NaN,NaN,1,NaN,8.324819e-02,NaN,0,1,3,1
21,195,1,62,NaN,NaN,1,NaN,1.319066e-04,NaN,1,0,2,1
21,196,1,12,NaN,NaN,1,NaN,1.547434e-01,NaN,1,0,1,1
21,197,1,22,NaN,NaN,2,NaN,3.024375e-02,NaN,1,1,1,1
21,198,1,89,NaN,NaN,1,NaN,1.345931e-01,NaN,0,0,2,1
21,199,1,29,NaN,NaN,1,NaN,1.500174e-04,NaN,0,0,1,1
21,200,1,50,NaN,NaN,1,NaN,1.476811e-01,NaN,1,0,2,1
21,201,1,107,NaN,NaN,1,NaN,1.597498e-01,NaN,0,0,3,1
21,202,1,58,NaN,NaN,1,NaN,1.232071e-01,NaN,0,1,2,1
21,203,1,31,NaN,NaN,1,NaN,4.710939e-02,NaN,0,0,1,1
21,204,1,131,NaN,NaN,2,NaN,1.310410e+00,NaN,0,0,3,1
21,205,1,143,NaN,NaN,1,NaN,1.331140e-04,NaN,0,1,3,1
21,206,1,60,NaN,NaN,1,NaN,1.334159e-04,NaN,0,0,2,1
21,207,1,61,NaN,NaN,1,NaN,1.306993e-04,NaN,0,1,2,1
21,208,1,69,NaN,NaN,1,NaN,1.557525e-04,NaN,0,0,2,1
21,209,1,114,NaN,NaN,1,NaN,1.303974e-04,NaN,0,1,3,1
21,210,1,30,NaN,NaN,2,NaN,1.300956e-04,NaN,2,0,1,1
21,211,1,89,NaN,NaN,1,NaN,1.316048e-04,NaN,1,0,2,1
21,212,1,5,NaN,NaN,1,NaN,9.457707e-02,NaN,0,0,1,1
21,213,1,47,NaN,NaN,1,NaN,1.337177e-04,NaN,1,0,1,1
21,214,1,14,NaN,NaN,1,NaN,1.094584e-01,NaN,1,1,1,1
21,215,1,65,NaN,NaN,1,NaN,1.316048e-04,NaN,1,0,2,1
21,216,1,105,NaN,NaN,1,NaN,2.763490e-02,NaN,0,1,3,1
21,217,1,46,NaN,NaN,2,NaN,7.636882e-02,NaN,2,0,1,1
21,218,1,2,NaN,NaN,2,NaN,3.579681e-02,NaN,2,0,1,1
21,219,1,113,NaN,NaN,2,NaN,7.626015e-02,NaN,0,0,3,1
21,220,1,18,NaN,NaN,1,NaN,9.894840e-02,NaN,2,0,1,1
21,221,1,29,NaN,NaN,1,NaN,1.322085e-04,NaN,1,0,1,1
21,222,1,115,NaN,NaN,2,NaN,3.141183e-01,NaN,1,0,3,1
21,223,1,43,NaN,NaN,1,NaN,1.530359e-04,NaN,0,1,1,1
21,224,1,40,NaN,NaN,1,NaN,1.316048e-04,NaN,0,0,1,1
21,225,1,80,NaN,NaN,1,NaN,1.058682e-01,NaN,2,1,2,1
21,226,1,95,NaN,NaN,1,NaN,1.331140e-04,NaN,0,0,2,1
21,227,1,142,NaN,NaN,1,NaN,4.015607e-02,NaN,1,0,3,1
21,228,1,125,NaN,NaN,1,NaN,1.600447e-01,NaN,2,0,3,1
21,229,1,86,NaN,NaN,1,NaN,1.474641e-01,NaN,1,1,2,1
21,230,1,3,NaN,NaN,2,NaN,1.255153e+00,NaN,1,1,1,1
21,231,1,47,NaN,NaN,1,NaN,2.064110e-01,NaN,0,0,1,1
21,232,1,100,NaN,NaN,2,NaN,1.675124e-01,NaN,2,0,3,1
21,233,1,141,NaN,NaN,1,NaN,2.644140e-02,NaN,0,1,3,1
21,234,1,26,NaN,NaN,1,NaN,1.899456e-02,NaN,2,0,1,1
21,235,1,133,NaN,NaN,2,NaN,1.720419e-01,NaN,1,0,3,1
21,236,1,75,NaN,NaN,1,NaN,1.524322e-04,NaN,2,0,2,1
21,237,1,88,NaN,NaN,1,NaN,6.445979e-02,NaN,2,0,2,1
21,238,1,76,NaN,NaN,1,NaN,2.265293e-02,NaN,0,0,2,1
21,239,1,132,NaN,NaN,2,NaN,3.143966e-02,NaN,0,0,3,1
21,240,1,134,NaN,NaN,2,NaN,4.960131e-01,NaN,2,0,3,1
21,241,1,95,NaN,NaN,1,NaN,1.346233e-04,NaN,2,0,2,1
21,242,1,128,NaN,NaN,2,NaN,9.503617e-02,NaN,0,0,3,1
21,243,1,107,NaN,NaN,1,NaN,1.319066e-04,NaN,1,0,3,1
21,244,1,37,NaN,NaN,2,NaN,1.391479e-02,NaN,0,1,1,1
21,245,1,106,NaN,NaN,1,NaN,1.337177e-04,NaN,1,0,3,1
21,246,1,138,NaN,NaN,1,NaN,1.925834e-01,NaN,2,0,3,1
21,247,1,83,NaN,NaN,1,NaN,1.303974e-04,NaN,0,0,2,1
21,248,1,127,NaN,NaN,1,NaN,3.934561e-03,NaN,2,0,3,1
21,249,1,132,NaN,NaN,1,NaN,7.710894e-02,NaN,2,0,3,1
21,250,1,65,NaN,NaN,2,NaN,1.316048e-04,NaN,0,0,2,1
21,251,1,9,NaN,NaN,1,NaN,2.459141e-01,NaN,0,0,1,1
21,252,1,72,NaN,NaN,1,NaN,3.738494e-01,NaN,0,0,2,1
21,253,1,137,NaN,NaN,1,NaN,1.322085e-04,NaN,1,0,3,1
21,254,1,41,NaN,NaN,1,NaN,1.325103e-04,NaN,0,0,1,1
21,255,1,101,NaN,NaN,1,NaN,9.134249e-02,NaN,0,0,3,1
21,256,1,142,NaN,NaN,1,NaN,9.692392e-02,NaN,0,0,3,1
21,257,1,8,NaN,NaN,2,NaN,5.267678e-01,NaN,0,0,1,1
21,258,1,68,NaN,NaN,1,NaN,2.507008e-01,NaN,0,0,2,1
21,259,1,50,NaN,NaN,1,NaN,5.769693e-02,NaN,0,0,2,1
21,260,1,102,NaN,NaN,1,NaN,1.319066e-04,NaN,0,1,3,1
21,261,1,136,NaN,NaN,1,NaN,1.337177e-04,NaN,0,0,3,1
21,262,1,114,NaN,NaN,2,NaN,1.764164e+00,NaN,2,1,3,1
21,263,1,69,NaN,NaN,1,NaN,1.185910e-01,NaN,1,0,2,1
21,264,1,45,NaN,NaN,2,NaN,3.798694e-01,NaN,2,1,1,1
21,265,1,33,NaN,NaN,1,NaN,1.255625e-01,NaN,0,0,1,1
21,266,1,130,NaN,NaN,2,NaN,8.208970e-02,NaN,0,0,3,1
21,267,1,86,NaN,NaN,2,NaN,1.443053e-01,NaN,0,1,2,1
21,268,1,25,NaN,NaN,2,NaN,1.291900e-04,NaN,2,1,1,1
21,269,1,78,NaN,NaN,2,NaN,1.322085e-04,NaN,1,0,2,1
21,270,1,57,NaN,NaN,2,NaN,1.288882e-04,NaN,0,1,2,1
21,271,1,9,NaN,NaN,2,NaN,2.085257e-01,NaN,1,0,1,1
21,272,1,70,NaN,NaN,2,NaN,1.313030e-04,NaN,0,0,2,1
21,273,1,27,NaN,NaN,2,NaN,5.942621e-02,NaN,1,1,1,1
21,274,1,79,NaN,NaN,2,NaN,6.257878e+00,NaN,1,0,2,1
21,275,1,55,NaN,NaN,2,NaN,6.566117e-01,NaN,0,0,2,1
21,276,1,27,NaN,NaN,2,NaN,1.521303e-04,NaN,0,1,1,1
21,277,1,73,NaN,NaN,1,NaN,1.291900e-04,NaN,2,1,2,1
21,278,1,98,NaN,NaN,2,NaN,1.316048e-04,NaN,1,1,3,1
21,279,1,13,NaN,NaN,2,NaN,1.294919e-04,NaN,0,0,1,1
21,280,1,74,NaN,NaN,2,NaN,8.760262e-02,NaN,1,0,2,1
21,281,1,129,NaN,NaN,2,NaN,2.373396e-01,NaN,1,0,3,1
21,282,1,11,NaN,NaN,2,NaN,1.294919e-04,NaN,0,0,1,1
21,283,1,16,NaN,NaN,2,NaN,1.349251e-04,NaN,1,0,1,1
21,284,1,57,NaN,NaN,1,NaN,2.322170e-01,NaN,2,1,2,1
21,285,1,49,NaN,NaN,2,NaN,1.300956e-04,NaN,0,0,2,1
21,286,1,63,NaN,NaN,2,NaN,5.533686e-01,NaN,0,0,2,1
21,287,1,133,NaN,NaN,1,NaN,6.886282e-02,NaN,0,0,3,1
21,288,1,126,NaN,NaN,1,NaN,1.123530e+00,NaN,1,1,3,1
21,383,2,116,22,1,1,1,1.313977e+00,NaN,1,0,3,1
21,384,2,37,29,2,1,0,1.067207e+00,NaN,1,1,1,1
21,385,2,113,7,1,1,1,1.189482e+00,NaN,1,0,3,1
21,386,2,48,34,1,1,1,1.371142e+00,NaN,1,0,1,1
21,387,2,27,68,1,2,0,2.489236e+00,NaN,1,1,1,1
21,388,2,59,66,1,1,1,6.427041e-01,NaN,1,0,2,1
21,389,2,123,71,1,1,1,1.085942e+00,NaN,1,0,3,1
21,390,2,65,41,2,2,1,7.757457e-01,NaN,1,0,2,1
21,391,2,14,50,2,2,1,1.398066e+00,NaN,1,1,1,1
21,392,2,90,39,1,2,0,9.634136e-01,NaN,1,0,2,1
21,393,2,117,59,2,2,1,9.779776e-01,NaN,1,1,3,1
21,394,2,8,60,1,1,1,8.402725e-01,NaN,1,0,1,1
21,395,2,85,40,1,1,1,4.596781e-01,NaN,1,0,2,1
21,396,2,24,23,1,1,1,1.726685e+00,NaN,1,1,1,1
21,397,2,102,18,1,1,1,4.947067e-01,NaN,1,1,3,1
21,398,2,129,49,1,1,1,8.723578e-01,NaN,1,0,3,1
21,399,2,69,38,2,2,1,1.762191e+00,NaN,1,0,2,1
21,400,2,16,52,2,2,1,1.880894e+00,NaN,1,0,1,1
21,401,2,107,70,2,2,1,6.744233e-01,NaN,1,0,3,1
21,402,2,52,11,1,1,1,4.047116e-01,NaN,1,0,2,1
21,403,2,55,67,1,1,1,1.265970e+00,NaN,1,0,2,1
21,404,2,86,51,1,2,0,1.284462e+00,NaN,1,1,2,1
21,405,2,105,6,1,1,1,5.099843e-01,NaN,1,1,3,1
21,406,2,7,37,1,2,0,9.272506e-01,NaN,1,0,1,1
21,407,3,102,18,1,1,1,6.321329e-01,NaN,1,1,3,1
21,408,3,8,60,2,2,1,9.323651e-01,NaN,1,0,1,1
21,409,3,105,6,1,1,1,5.001565e-01,NaN,1,1,3,1
21,410,3,85,40,1,1,1,4.695125e-01,NaN,1,0,2,1
21,411,3,55,67,2,2,1,8.158785e-01,NaN,1,0,2,1
21,412,3,116,22,1,2,0,2.780275e+00,NaN,1,0,3,1
21,413,3,129,49,2,1,0,4.099912e-01,NaN,1,0,3,1
21,414,3,37,29,1,1,1,1.374918e+00,NaN,1,1,1,1
21,415,3,24,23,1,1,1,9.492208e-01,NaN,1,1,1,1
21,416,3,48,34,1,1,1,7.322153e-01,NaN,1,0,1,1
21,417,3,113,7,2,2,1,7.643839e-01,NaN,1,0,3,1
21,418,3,90,39,2,1,0,1.131131e+00,NaN,1,0,2,1
21,419,3,7,37,2,2,1,9.947974e-01,NaN,1,0,1,1
21,420,3,27,68,1,2,0,9.199290e-01,NaN,1,1,1,1
21,421,3,16,52,1,2,0,9.045252e-01,NaN,1,0,1,1
21,422,3,65,41,2,2,1,7.211756e-01,NaN,1,0,2,1
21,423,3,86,51,2,1,0,1.105547e+00,NaN,1,1,2,1
21,424,3,14,50,2,1,0,1.306201e+00,NaN,1,1,1,1
21,425,3,117,59,2,2,1,7.950768e-01,NaN,1,1,3,1
21,426,3,52,11,1,1,1,1.896684e+00,NaN,1,0,2,1
21,427,3,59,66,2,2,1,9.936996e-01,NaN,1,0,2,1
21,428,3,69,38,2,2,1,5.669734e-01,NaN,1,0,2,1
21,429,3,107,70,1,1,1,5.096541e-01,NaN,1,0,3,1
21,430,3,123,71,1,1,1,8.065500e-01,NaN,1,0,3,1
21,455,2,28,61,2,2,1,1.353244e+00,NaN,1,0,1,2
21,456,2,61,10,1,1,1,8.164222e-01,NaN,1,1,2,2
21,457,2,42,3,2,2,1,9.653490e-01,NaN,1,0,1,2
21,458,2,44,56,1,1,1,1.123728e+00,NaN,1,0,1,2
21,459,2,115,32,1,2,0,2.171469e+00,NaN,1,0,3,2
21,460,2,104,1,1,1,1,5.697386e-01,NaN,1,0,3,2
21,461,2,40,47,1,1,1,8.724496e-01,NaN,1,0,1,2
21,462,2,72,64,1,1,1,6.185725e-01,NaN,1,0,2,2
21,463,2,19,55,2,2,1,1.215249e+00,NaN,1,0,1,2
21,464,2,96,24,1,1,1,4.432866e-01,NaN,1,0,2,2
21,465,2,83,25,1,2,0,5.512678e-01,NaN,1,0,2,2
21,466,2,99,44,2,2,1,1.566181e+00,NaN,1,1,3,2
21,467,2,106,8,1,1,1,5.011097e-01,NaN,1,0,3,2
21,468,2,3,53,2,2,1,7.501664e-01,NaN,1,1,1,2
21,469,2,108,26,2,2,1,8.693774e-01,NaN,1,0,3,2
21,470,2,98,4,1,1,1,1.207874e+00,NaN,1,1,3,2
21,471,2,82,43,2,2,1,1.245244e+00,NaN,1,0,2,2
21,472,2,9,62,1,1,1,6.960113e-01,NaN,1,0,1,2
21,473,2,74,48,2,1,0,8.336032e-01,NaN,1,0,2,2
21,474,2,21,17,1,1,1,1.013109e+00,NaN,1,1,1,2
21,475,2,29,69,1,1,1,1.729662e+00,NaN,1,0,1,2
21,476,2,47,46,1,1,1,1.281603e+00,NaN,1,0,1,2
21,477,2,79,63,2,2,1,8.353452e-01,NaN,1,0,2,2
21,478,2,49,21,1,2,0,1.607451e+00,NaN,1,0,2,2
21,479,3,82,43,1,1,1,1.595122e+00,NaN,1,0,2,2
21,480,3,72,64,1,1,1,5.927169e-01,NaN,1,0,2,2
21,481,3,29,69,2,2,1,1.157718e+00,NaN,1,0,1,2
21,482,3,28,61,1,1,1,8.126696e-01,NaN,1,0,1,2
21,483,3,83,25,2,2,1,7.292035e-01,NaN,1,0,2,2
21,484,3,108,26,1,1,1,6.975628e-01,NaN,1,0,3,2
21,485,3,96,24,2,2,1,4.667044e-01,NaN,1,0,2,2
21,486,3,42,3,1,2,0,8.610996e-01,NaN,1,0,1,2
21,487,3,61,10,1,1,1,1.647954e+00,NaN,1,1,2,2
21,488,3,44,56,2,2,1,2.458956e+00,NaN,1,0,1,2
21,489,3,115,32,2,2,1,1.517719e+00,NaN,1,0,3,2
21,490,3,98,4,1,1,1,3.158510e+00,NaN,1,1,3,2
21,491,3,99,44,2,2,1,1.556902e+00,NaN,1,1,3,2
21,492,3,74,48,1,1,1,8.040281e-01,NaN,1,0,2,2
21,493,3,9,62,2,1,0,7.849016e-01,NaN,1,0,1,2
21,494,3,49,21,1,2,0,8.469330e-01,NaN,1,0,2,2
21,495,3,40,47,1,1,1,1.794052e+00,NaN,1,0,1,2
21,496,3,106,8,1,1,1,9.915725e-01,NaN,1,0,3,2
21,497,3,3,53,2,2,1,1.860579e+00,NaN,1,1,1,2
21,498,3,19,55,1,1,1,8.794832e-01,NaN,1,0,1,2
21,499,3,104,1,2,2,1,7.056604e-01,NaN,1,0,3,2
21,500,3,47,46,2,2,1,1.794677e+00,NaN,1,0,1,2
21,501,3,79,63,2,2,1,5.677652e-01,NaN,1,0,2,2
21,502,3,21,17,1,1,1,6.228496e-01,NaN,1,1,1,2
21,527,2,12,12,2,2,1,1.102689e+00,NaN,1,0,1,3
21,528,2,137,30,1,2,0,7.277217e-01,NaN,1,0,3,3
21,529,2,130,16,1,1,1,1.016098e+00,NaN,1,0,3,3
21,530,2,63,72,2,2,1,8.686605e-01,NaN,1,0,2,3
21,531,2,22,45,2,1,0,1.103012e+00,NaN,1,1,1,3
21,532,2,133,19,1,2,0,1.112391e+00,NaN,1,0,3,3
21,533,2,78,36,1,1,1,7.128395e-01,NaN,1,0,2,3
21,534,2,36,9,2,2,1,8.413214e-01,NaN,1,0,1,3
21,535,2,68,5,2,2,1,7.173087e-01,NaN,1,0,2,3
21,536,2,89,42,1,1,1,7.018457e-01,NaN,1,0,2,3
21,537,2,131,58,1,1,1,4.630886e-01,NaN,1,0,3,3
21,538,2,62,54,2,1,0,8.254691e-01,NaN,1,0,2,3
21,539,2,120,28,2,1,0,1.493921e+00,NaN,1,1,3,3
21,540,2,56,31,1,1,1,5.995616e-01,NaN,1,1,2,3
21,541,2,41,27,1,2,0,7.884878e-01,NaN,1,0,1,3
21,542,2,143,2,1,1,1,6.660830e-01,NaN,1,1,3,3
21,543,2,109,65,1,1,1,7.249128e-01,NaN,1,0,3,3
21,544,2,76,14,2,2,1,1.140888e+00,NaN,1,0,2,3
21,545,2,142,35,1,2,0,1.244744e+00,NaN,1,0,3,3
21,546,2,136,20,2,2,1,1.063740e+00,NaN,1,0,3,3
21,547,2,50,13,1,1,1,9.144282e-01,NaN,1,0,2,3
21,548,2,17,33,1,2,0,1.523014e+00,NaN,1,0,1,3
21,549,2,10,57,2,1,0,8.831540e-01,NaN,1,0,1,3
21,550,2,126,15,2,2,1,1.352270e-04,NaN,1,1,3,3
21,551,3,10,57,1,2,0,8.434048e-01,NaN,1,0,1,3
21,552,3,68,5,2,2,1,4.070558e-01,NaN,1,0,2,3
21,553,3,120,28,1,1,1,4.842658e-01,NaN,1,1,3,3
21,554,3,63,72,2,2,1,6.459031e-01,NaN,1,0,2,3
21,555,3,130,16,1,1,1,1.289191e+00,NaN,1,0,3,3
21,556,3,17,33,2,2,1,1.362875e+00,NaN,1,0,1,3
21,557,3,136,20,2,2,1,7.133964e-01,NaN,1,0,3,3
21,558,3,142,35,1,1,1,1.705665e+00,NaN,1,0,3,3
21,559,3,22,45,1,1,1,8.666744e-01,NaN,1,1,1,3
21,560,3,76,14,1,1,1,8.691223e-01,NaN,1,0,2,3
21,561,3,36,9,2,2,1,1.559641e+00,NaN,1,0,1,3
21,562,3,133,19,2,2,1,1.702629e+00,NaN,1,0,3,3
21,563,3,78,36,2,2,1,8.799118e-01,NaN,1,0,2,3
21,564,3,12,12,1,1,1,1.097531e+00,NaN,1,0,1,3
21,565,3,137,30,2,2,1,8.990606e-01,NaN,1,0,3,3
21,566,3,50,13,1,1,1,7.720394e-01,NaN,1,0,2,3
21,567,3,109,65,2,2,1,8.187271e-01,NaN,1,0,3,3
21,568,3,56,31,2,2,1,5.273543e-01,NaN,1,1,2,3
21,569,3,126,15,1,2,0,1.007462e+00,NaN,1,1,3,3
21,570,3,89,42,2,2,1,1.156085e+00,NaN,1,0,2,3
21,571,3,143,2,1,2,0,1.562915e+00,NaN,1,1,3,3
21,572,3,131,58,2,2,1,6.574179e-01,NaN,1,0,3,3
21,573,3,41,27,1,2,0,2.036826e+00,NaN,1,0,1,3
21,574,3,62,54,1,1,1,5.762235e-01,NaN,1,0,2,3
21,599,4,23,24,1,1,1,8.456795e-01,NaN,2,0,1,1
21,600,4,119,33,1,1,1,5.207946e-01,NaN,2,0,3,1
21,601,4,87,59,2,2,1,8.172842e-01,NaN,2,1,2,1
21,602,4,13,43,2,2,1,1.069602e+00,NaN,2,0,1,1
21,603,4,132,64,2,2,1,9.840960e-01,NaN,2,0,3,1
21,604,4,2,41,1,2,0,1.286005e+00,NaN,2,0,1,1
21,605,4,101,27,2,2,1,1.087882e+00,NaN,2,0,3,1
21,606,4,91,1,1,1,1,1.617229e+00,NaN,2,0,2,1
21,607,4,128,11,1,1,1,1.333617e+00,NaN,2,0,3,1
21,608,4,58,50,1,1,1,4.856438e-01,NaN,2,1,2,1
21,609,4,112,62,1,1,1,1.031236e+00,NaN,2,0,3,1
21,610,4,26,7,2,2,1,3.323490e+00,NaN,2,0,1,1
21,611,4,75,30,2,2,1,7.391442e-01,NaN,2,0,2,1
21,612,4,80,6,2,2,1,9.947421e-01,NaN,2,1,2,1
21,613,4,114,23,1,1,1,1.063928e+00,NaN,2,1,3,1
21,614,4,118,17,2,2,1,1.530808e+00,NaN,2,1,3,1
21,615,4,53,12,1,1,1,1.378269e+00,NaN,2,0,2,1
21,616,4,20,48,2,1,0,1.080106e+00,NaN,2,0,1,1
21,617,4,127,54,2,2,1,8.260529e-01,NaN,2,0,3,1
21,618,4,25,10,1,1,1,1.350692e+00,NaN,2,1,1,1
21,619,4,122,60,2,2,1,9.976058e-01,NaN,2,0,3,1
21,620,4,144,42,2,2,1,8.504945e-01,NaN,2,0,3,1
21,621,4,77,15,1,1,1,1.094273e+00,NaN,2,1,2,1
21,622,4,71,3,1,1,1,9.914360e-01,NaN,2,0,2,1
21,647,4,93,8,2,1,0,8.333947e-01,NaN,2,0,2,2
21,648,4,100,55,1,2,0,8.287206e-01,NaN,2,0,3,2
21,649,4,34,49,2,1,0,6.249972e-01,NaN,2,0,1,2
21,650,4,66,61,1,2,0,6.451986e-01,NaN,2,0,2,2
21,651,4,121,57,2,2,1,6.883257e-01,NaN,2,0,3,2
21,652,4,94,44,2,2,1,9.861836e-01,NaN,2,1,2,2
21,653,4,92,19,2,1,0,5.756654e-01,NaN,2,0,2,2
21,654,4,4,72,1,2,0,8.617733e-01,NaN,2,0,1,2
21,655,4,67,9,1,1,1,2.008392e+00,NaN,2,0,2,2
21,656,4,81,71,2,2,1,8.456457e-01,NaN,2,0,2,2
21,657,4,84,2,2,2,1,1.320812e+00,NaN,2,1,2,2
21,658,4,138,21,1,1,1,1.256745e+00,NaN,2,0,3,2
21,659,4,30,65,2,2,1,1.412238e+00,NaN,2,0,1,2
21,660,4,103,37,2,2,1,1.479959e+00,NaN,2,0,3,2
21,661,4,54,34,2,2,1,1.353610e+00,NaN,2,0,2,2
21,662,4,1,14,2,1,0,1.456569e+00,NaN,2,0,1,2
21,663,4,11,40,2,2,1,1.411324e+00,NaN,2,0,1,2
21,664,4,18,67,1,2,0,2.488249e+00,NaN,2,0,1,2
21,665,4,134,5,2,1,0,1.409545e+00,NaN,2,0,3,2
21,666,4,5,39,2,2,1,1.278660e+00,NaN,2,0,1,2
21,667,4,141,51,1,1,1,7.841376e-01,NaN,2,1,3,2
21,668,4,95,20,2,1,0,6.781523e-01,NaN,2,0,2,2
21,669,4,88,26,1,2,0,1.358306e-04,NaN,2,0,2,2
21,670,4,35,16,2,1,0,5.818004e-01,NaN,2,0,1,2
21,695,4,33,32,1,1,1,9.313442e-01,NaN,2,0,1,3
21,696,4,57,29,2,2,1,6.832457e-01,NaN,2,1,2,3
21,697,4,124,66,1,1,1,6.533792e-01,NaN,2,0,3,3
21,698,4,6,13,1,0,0,3.500132e+00,NaN,2,0,1,3
21,699,4,73,68,1,2,0,8.089539e-01,NaN,2,1,2,3
21,700,4,31,35,1,1,1,1.061857e+00,NaN,2,0,1,3
21,701,4,51,53,2,2,1,9.283285e-01,NaN,2,1,2,3
21,702,4,38,70,2,1,0,8.802704e-01,NaN,2,0,1,3
21,703,4,60,56,1,1,1,4.345301e-01,NaN,2,0,2,3
21,704,4,46,58,2,1,0,7.580980e-01,NaN,2,0,1,3
21,705,4,15,31,1,1,1,9.172526e-01,NaN,2,1,1,3
21,706,4,110,46,2,2,1,7.656816e-01,NaN,2,0,3,3
21,707,4,125,25,1,1,1,6.764544e-01,NaN,2,0,3,3
21,708,4,70,69,2,1,0,8.624648e-01,NaN,2,0,2,3
21,709,4,64,47,2,2,1,6.890740e-01,NaN,2,0,2,3
21,710,4,111,52,1,1,1,5.547755e-01,NaN,2,0,3,3
21,711,4,139,38,2,2,1,6.738742e-01,NaN,2,0,3,3
21,712,4,43,4,1,1,1,6.037651e-01,NaN,2,1,1,3
21,713,4,32,22,1,1,1,9.132178e-01,NaN,2,0,1,3
21,714,4,97,45,1,1,1,3.057406e-01,NaN,2,1,3,3
21,715,4,39,18,1,1,1,4.825088e-01,NaN,2,1,1,3
21,716,4,135,36,1,1,1,7.645412e-01,NaN,2,0,3,3
21,717,4,45,28,2,1,0,9.313138e-01,NaN,2,1,1,3
21,718,4,140,63,1,1,1,6.270691e-01,NaN,2,0,3,3
21,719,5,1.819000e+01,33,1,1,1,1.052027e+00,1,1,0,1.300000e+00,1
21,720,5,8.511000e+01,40,2,2,1,4.546886e-01,1,1,0,2.100000e+00,1
21,721,5,4.201000e+01,27,1,4,0,3.200991e-01,1,1,0,1.300000e+00,1
21,722,5,4.460000e+01,56,1,2,0,3.133287e-01,1,1,0,1.200000e+00,1
21,723,5,1.049100e+02,1,3,0,0,2.500252e+00,1,1,0,3.200000e+00,1
21,724,5,1.088800e+02,26,3,3,1,8.609091e-01,1,1,0,3.200000e+00,1
21,725,5,1.253000e+01,12,1,2,0,3.739916e-01,1,1,0,1.200000e+00,1
21,726,5,1.049100e+02,1,3,0,0,2.500025e+00,2,1,0,3.200000e+00,1
21,727,5,1.339200e+02,19,3,4,0,1.353491e+00,1,1,0,3.200000e+00,1
21,728,5,9.220000e+00,60,1,1,1,2.344570e-01,1,1,0,1.300000e+00,1
21,729,5,1.012000e+01,62,1,2,0,4.438613e-01,1,1,0,1.300000e+00,1
21,730,5,9.005000e+01,39,2,1,0,6.291902e-01,1,1,0,2.100000e+00,1
21,731,5,1.314600e+02,58,3,0,0,2.500404e+00,1,1,0,3.100000e+00,1
21,732,5,1.314600e+02,58,3,0,0,2.500616e+00,2,1,0,3.100000e+00,1
21,733,5,6.024000e+01,66,2,1,0,1.546387e+00,1,1,0,2.300000e+00,1
21,734,5,1.093000e+02,65,3,0,0,2.500420e+00,1,1,0,3.100000e+00,1
21,735,5,9.044000e+01,42,2,1,0,4.706305e-01,1,1,0,2.300000e+00,1
21,736,5,20,55,1,2,0,4.477712e-01,1,1,0,1.300000e+00,1
21,737,5,1.121000e+01,57,1,3,0,3.124138e-01,1,1,0,1.300000e+00,1
21,738,5,4.064000e+01,47,1,4,0,2.660467e-01,1,1,0,1.200000e+00,1
21,739,5,1.073800e+02,70,3,3,1,2.432730e-01,1,1,0,3.100000e+00,1
21,740,5,7.420000e+01,48,2,2,1,2.687053e-01,1,1,0,2.100000e+00,1
21,741,5,1.711000e+01,52,1,1,1,8.457399e-01,1,1,0,1.300000e+00,1
21,742,5,1.132600e+02,7,3,1,0,2.071728e-01,1,1,0,3.100000e+00,1
21,743,5,9.220000e+00,60,1,1,1,2.325122e-01,2,1,0,1.300000e+00,1
21,744,5,4.201000e+01,27,1,4,0,1.488100e-04,2,1,0,1.300000e+00,1
21,745,5,1.153300e+02,32,3,2,0,2.115834e-01,1,1,0,3.100000e+00,1
21,746,5,8.213000e+01,43,2,1,0,2.206092e-01,1,1,0,2.100000e+00,1
21,747,5,2.970000e+01,69,1,1,1,2.219485e-01,1,1,0,1.200000e+00,1
21,748,5,1.049100e+02,1,3,3,1,2.396517e-01,3,1,0,3.200000e+00,1
21,749,5,7.039000e+01,38,2,2,1,3.608492e-01,1,1,0,2.300000e+00,1
21,750,5,4.810000e+01,46,1,2,0,4.419899e-01,1,1,0,1.300000e+00,1
21,751,5,6.502000e+01,41,2,2,1,3.399904e-01,1,1,0,2.100000e+00,1
21,752,5,1.238100e+02,71,3,3,1,2.449866e-01,1,1,0,3.200000e+00,1
21,753,5,1.423100e+02,35,3,1,0,3.426908e-01,1,1,0,3.100000e+00,1
21,754,5,9.623000e+01,24,2,2,1,2.798688e-01,1,1,0,2.100000e+00,1
21,755,5,8.213000e+01,43,2,2,1,2.007257e-01,2,1,0,2.100000e+00,1
21,756,5,1.093000e+02,65,3,3,1,9.816783e-02,2,1,0,3.100000e+00,1
21,757,5,1.093000e+02,65,3,3,1,2.515553e-01,3,1,0,3.100000e+00,1
21,758,5,4.460000e+01,56,1,2,0,2.449398e-01,2,1,0,1.200000e+00,1
21,759,5,8.425000e+01,25,2,2,1,1.569599e-04,1,1,0,2.300000e+00,1
21,760,5,7.039000e+01,38,2,2,1,3.035100e-01,2,1,0,2.300000e+00,1
21,761,5,8.040000e+01,63,2,2,1,2.408809e-01,1,1,0,2.300000e+00,1
21,762,5,1.012000e+01,62,1,4,0,1.509229e-04,2,1,0,1.300000e+00,1
21,763,5,5.038000e+01,21,2,3,0,3.798664e-01,1,1,0,2.300000e+00,1
21,764,5,3.667000e+01,9,1,1,1,4.371184e-01,1,1,0,1.200000e+00,1
21,765,5,5.518000e+01,67,2,1,0,1.028516e-01,1,1,0,2.100000e+00,1
21,766,5,5.038000e+01,21,2,3,0,9.516636e-01,2,1,0,2.300000e+00,1
21,767,5,1.369500e+02,20,3,2,0,1.129088e-01,1,1,0,3.200000e+00,1
21,768,5,6.327000e+01,54,2,2,1,5.465391e-01,1,1,0,2.300000e+00,1
21,769,5,8.030000e+00,37,1,1,1,4.276392e-01,1,1,0,1.300000e+00,1
21,770,5,6.502000e+01,41,2,1,0,9.889509e-01,2,1,0,2.100000e+00,1
21,771,5,5.518000e+01,67,2,2,1,5.502134e-01,2,1,0,2.100000e+00,1
21,772,5,7.935000e+01,36,2,3,0,2.959762e-01,1,1,0,2.300000e+00,1
21,773,5,1.253000e+01,12,1,1,1,3.288227e-01,2,1,0,1.200000e+00,1
21,774,5,1.369500e+02,20,3,2,0,1.463729e-01,2,1,0,3.200000e+00,1
21,775,5,1.303500e+02,16,3,1,0,3.238133e-01,1,1,0,3.100000e+00,1
21,776,5,4.271000e+01,3,1,1,1,3.412757e-01,1,1,0,1.200000e+00,1
21,777,5,6.327000e+01,54,2,2,1,1.206428e+00,2,1,0,2.300000e+00,1
21,778,5,4.271000e+01,3,1,1,1,1.518285e-04,2,1,0,1.200000e+00,1
21,779,5,5.518000e+01,67,2,2,1,4.252827e-01,3,1,0,2.100000e+00,1
21,780,5,4.201000e+01,27,1,3,0,3.948959e-01,3,1,0,1.300000e+00,1
21,781,5,5.006000e+01,13,2,3,0,1.548469e-04,1,1,0,2.100000e+00,1
21,782,5,1.153300e+02,32,3,3,1,2.538995e-01,2,1,0,3.100000e+00,1
21,783,5,9.623000e+01,24,2,2,1,6.338763e-02,2,1,0,2.100000e+00,1
21,784,5,9.220000e+00,60,1,2,0,5.764828e-01,3,1,0,1.300000e+00,1
21,785,5,2.970000e+01,69,1,1,1,1.548469e-04,2,1,0,1.200000e+00,1
21,786,5,1.711000e+01,52,1,1,1,9.131351e-02,2,1,0,1.300000e+00,1
21,787,5,1.339200e+02,19,3,2,0,1.276976e+00,2,1,0,3.200000e+00,1
21,788,5,1.238100e+02,71,3,3,1,1.533377e-04,2,1,0,3.200000e+00,1
21,789,5,4.810000e+01,46,1,3,0,6.552425e-01,2,1,0,1.300000e+00,1
21,790,5,8.040000e+01,63,2,1,0,1.527340e-04,2,1,0,2.300000e+00,1
21,791,5,7.601000e+01,14,2,1,0,1.462449e-01,1,1,0,2.100000e+00,1
21,792,5,1.238100e+02,71,3,2,0,1.548469e-04,3,1,0,3.200000e+00,1
21,793,5,5.518000e+01,67,2,2,1,5.494769e-01,4,1,0,2.100000e+00,1
21,794,5,7.332000e+01,64,2,2,1,1.694476e+00,1,1,0,2.300000e+00,1
21,795,5,1.088800e+02,26,3,2,0,1.768834e+00,2,1,0,3.200000e+00,1
21,796,5,1.377500e+02,30,3,3,1,1.530359e-04,1,1,0,3.200000e+00,1
21,797,5,1.121000e+01,57,1,3,0,3.162125e-01,2,1,0,1.300000e+00,1
21,798,5,9.005000e+01,39,2,3,0,6.457214e-01,2,1,0,2.100000e+00,1
21,799,5,6.934000e+01,5,2,1,0,1.278656e+00,1,1,0,2.300000e+00,1
21,800,5,1.132600e+02,7,3,3,1,1.128289e+00,2,1,0,3.100000e+00,1
21,801,5,4.854000e+01,34,1,1,1,6.413048e-01,1,1,0,1.200000e+00,1
21,802,5,1.088800e+02,26,3,2,0,1.472791e-01,3,1,0,3.200000e+00,1
21,803,5,5.038000e+01,21,2,2,1,4.766140e-01,3,1,0,2.300000e+00,1
21,804,5,1.073800e+02,70,3,3,1,4.136665e-01,2,1,0,3.100000e+00,1
21,805,5,7.039000e+01,38,2,2,1,8.627929e-01,3,1,0,2.300000e+00,1
21,806,5,5.328000e+01,11,2,3,0,6.081811e-01,1,1,0,2.300000e+00,1
21,807,5,2.866000e+01,61,1,1,1,3.458025e-01,1,1,0,1.200000e+00,1
21,808,5,9.623000e+01,24,2,2,1,1.569599e-04,3,1,0,2.100000e+00,1
21,809,5,2.866000e+01,61,1,1,1,1.809379e-01,2,1,0,1.200000e+00,1
21,810,5,4.810000e+01,46,1,1,1,5.339904e-01,3,1,0,1.300000e+00,1
21,811,5,1.819000e+01,33,1,2,0,5.832734e-01,2,1,0,1.300000e+00,1
21,812,5,8.425000e+01,25,2,3,0,1.500616e+00,2,1,0,2.300000e+00,1
21,813,5,1.314600e+02,58,3,3,1,1.792008e-01,3,1,0,3.100000e+00,1
21,814,5,6.304000e+01,72,2,2,1,6.444059e-01,1,1,0,2.100000e+00,1
21,815,5,4.064000e+01,47,1,0,0,2.500053e+00,2,1,0,1.200000e+00,1
21,816,5,1.132600e+02,7,3,0,0,2.500422e+00,3,1,0,3.100000e+00,1
21,817,5,1.377500e+02,30,3,3,1,1.545451e-04,2,1,0,3.200000e+00,1
21,818,5,1.423100e+02,35,3,2,0,2.348367e-01,2,1,0,3.100000e+00,1
21,819,5,1.073800e+02,70,3,3,1,1.524370e+00,3,1,0,3.100000e+00,1
21,820,5,1.314600e+02,58,3,3,1,4.781691e-01,4,1,0,3.100000e+00,1
21,821,5,6.024000e+01,66,2,2,1,1.463953e-04,2,1,0,2.300000e+00,1
21,822,5,1.093000e+02,65,3,3,1,1.536396e-04,4,1,0,3.100000e+00,1
21,823,5,1.121000e+01,57,1,1,1,1.144799e-01,3,1,0,1.300000e+00,1
21,824,5,1.238100e+02,71,3,3,1,5.318485e-01,4,1,0,3.200000e+00,1
21,825,5,1.012000e+01,62,1,1,1,5.807303e-01,3,1,0,1.300000e+00,1
21,826,5,7.935000e+01,36,2,2,1,4.303984e-01,2,1,0,2.300000e+00,1
21,827,5,8.030000e+00,37,1,1,1,7.957020e-02,2,1,0,1.300000e+00,1
21,828,5,4.854000e+01,34,1,1,1,5.131154e-01,2,1,0,1.200000e+00,1
21,829,5,6.327000e+01,54,2,2,1,7.402287e-02,3,1,0,2.300000e+00,1
21,830,5,5.038000e+01,21,2,2,1,2.995171e-01,4,1,0,2.300000e+00,1
21,831,5,5.328000e+01,11,2,2,1,3.166396e-01,2,1,0,2.300000e+00,1
21,832,5,1.163200e+02,22,3,3,1,7.111791e-03,1,1,0,3.100000e+00,1
21,833,5,1.303500e+02,16,3,1,0,5.573312e-02,2,1,0,3.100000e+00,1
21,834,5,1.303500e+02,16,3,3,1,4.898174e-02,3,1,0,3.100000e+00,1
21,835,5,7.601000e+01,14,2,2,1,1.542432e-04,2,1,0,2.100000e+00,1
21,836,5,6.024000e+01,66,2,2,1,1.494137e-04,3,1,0,2.300000e+00,1
21,837,5,8.511000e+01,40,2,2,1,1.095477e-01,2,1,0,2.100000e+00,1
21,838,5,6.934000e+01,5,2,2,1,2.951346e-01,2,1,0,2.300000e+00,1
21,839,5,4.854000e+01,34,1,1,1,1.536272e+00,3,1,0,1.200000e+00,1
21,840,5,5.006000e+01,13,2,3,0,7.462599e-01,2,1,0,2.100000e+00,1
21,841,5,1.069300e+02,8,3,3,1,8.837875e-01,1,1,0,3.200000e+00,1
21,842,5,2.866000e+01,61,1,3,0,1.269108e+00,3,1,0,1.200000e+00,1
21,843,5,6.934000e+01,5,2,2,1,5.665219e-01,3,1,0,2.300000e+00,1
21,844,5,1.069300e+02,8,3,3,1,1.522266e-01,2,1,0,3.200000e+00,1
21,845,5,1.819000e+01,33,1,2,0,3.293522e-01,3,1,0,1.300000e+00,1
21,846,5,6.934000e+01,5,2,2,1,1.546024e-01,4,1,0,2.300000e+00,1
21,847,5,7.935000e+01,36,2,2,1,3.980743e-03,3,1,0,2.300000e+00,1
21,848,5,3.667000e+01,9,1,1,1,5.337722e-02,2,1,0,1.200000e+00,1
21,849,5,1.049100e+02,1,3,3,1,1.747908e-01,4,1,0,3.200000e+00,1
21,850,5,4.271000e+01,3,1,1,1,3.762098e-01,3,1,0,1.200000e+00,1
21,851,5,1.153300e+02,32,3,2,0,1.535786e-01,3,1,0,3.100000e+00,1
21,852,5,8.425000e+01,25,2,2,1,5.176898e-02,3,1,0,2.300000e+00,1
21,853,5,2.866000e+01,61,1,1,1,1.161346e-01,4,1,0,1.200000e+00,1
21,854,5,4.064000e+01,47,1,1,1,1.175406e-01,3,1,0,1.200000e+00,1
21,855,5,9.044000e+01,42,2,3,0,1.347950e-01,2,1,0,2.300000e+00,1
21,856,5,7.420000e+01,48,2,2,1,5.201450e-01,2,1,0,2.100000e+00,1
21,857,5,4.064000e+01,47,1,1,1,1.539414e-04,4,1,0,1.200000e+00,1
21,858,5,8.030000e+00,37,1,1,1,8.330554e-02,3,1,0,1.300000e+00,1
21,859,5,7.420000e+01,48,2,2,1,1.483461e-01,3,1,0,2.100000e+00,1
21,860,5,1.711000e+01,52,1,1,1,5.808722e-03,3,1,0,1.300000e+00,1
21,861,5,9.623000e+01,24,2,2,1,1.494137e-04,4,1,0,2.100000e+00,1
21,862,5,6.304000e+01,72,2,3,0,1.769200e-01,2,1,0,2.100000e+00,1
21,863,5,7.039000e+01,38,2,2,1,1.581672e-04,4,1,0,2.300000e+00,1
21,864,5,1.253000e+01,12,1,1,1,1.315716e+00,3,1,0,1.200000e+00,1
21,865,5,4.201000e+01,27,1,3,0,4.370354e-01,4,1,0,1.300000e+00,1
21,866,5,8.030000e+00,37,1,1,1,1.254188e+00,4,1,0,1.300000e+00,1
21,867,5,1.423100e+02,35,3,3,1,1.717503e-04,3,1,0,3.100000e+00,1
21,868,5,5.006000e+01,13,2,0,0,2.500295e+00,3,1,0,2.100000e+00,1
21,869,5,8.511000e+01,40,2,2,1,1.071927e-01,3,1,0,2.100000e+00,1
21,870,5,5.006000e+01,13,2,3,0,1.473008e-04,4,1,0,2.100000e+00,1
21,871,5,7.332000e+01,64,2,2,1,3.342545e-01,2,1,0,2.300000e+00,1
21,872,5,1.377500e+02,30,3,3,1,6.384372e-02,3,1,0,3.200000e+00,1
21,873,5,1.073800e+02,70,3,3,1,1.929248e-01,4,1,0,3.100000e+00,1
21,874,5,1.163200e+02,22,3,3,1,1.530359e-04,2,1,0,3.100000e+00,1
21,875,5,6.502000e+01,41,2,1,0,8.038657e-01,3,1,0,2.100000e+00,1
21,876,5,1.153300e+02,32,3,3,1,1.533377e-04,4,1,0,3.100000e+00,1
21,877,5,1.293400e+02,49,3,3,1,2.385856e-01,1,1,0,3.100000e+00,1
21,878,5,9.005000e+01,39,2,3,0,3.598676e-01,3,1,0,2.100000e+00,1
21,879,5,2.970000e+01,69,1,1,1,5.705883e-02,3,1,0,1.200000e+00,1
21,880,5,1.369500e+02,20,3,2,0,1.625950e-01,3,1,0,3.200000e+00,1
21,881,5,6.024000e+01,66,2,1,0,3.159611e-01,4,1,0,2.300000e+00,1
21,882,5,2.970000e+01,69,1,2,0,1.029281e+00,4,1,0,1.200000e+00,1
21,883,5,7.935000e+01,36,2,2,1,1.110377e+00,4,1,0,2.300000e+00,1
21,884,5,1.121000e+01,57,1,1,1,2.958265e-01,4,1,0,1.300000e+00,1
21,885,5,4.460000e+01,56,1,2,0,4.408504e-01,3,1,0,1.200000e+00,1
21,886,5,6.327000e+01,54,2,2,1,4.664316e-01,4,1,0,2.300000e+00,1
21,887,5,8.040000e+01,63,2,2,1,1.518285e-04,3,1,0,2.300000e+00,1
21,888,5,1.293400e+02,49,3,3,1,3.899227e-01,2,1,0,3.100000e+00,1
21,889,5,1.293400e+02,49,3,3,1,1.830771e-01,3,1,0,3.100000e+00,1
21,890,5,1.819000e+01,33,1,1,1,4.882804e-01,4,1,0,1.300000e+00,1
21,891,5,9.005000e+01,39,2,1,0,3.136170e-01,4,1,0,2.100000e+00,1
21,892,5,4.854000e+01,34,1,1,1,2.667937e-01,4,1,0,1.200000e+00,1
21,893,5,1.088800e+02,26,3,3,1,4.767176e-01,4,1,0,3.200000e+00,1
21,894,5,5.328000e+01,11,2,2,1,7.898812e-01,3,1,0,2.300000e+00,1
21,895,5,7.332000e+01,64,2,2,1,1.113096e-01,3,1,0,2.300000e+00,1
21,896,5,8.040000e+01,63,2,2,1,6.450899e-02,4,1,0,2.300000e+00,1
21,897,5,8.213000e+01,43,2,1,0,1.369524e+00,3,1,0,2.100000e+00,1
21,898,5,1.423100e+02,35,3,3,1,1.626890e+00,4,1,0,3.100000e+00,1
21,899,5,6.502000e+01,41,2,2,1,1.568895e-01,4,1,0,2.100000e+00,1
21,900,5,1.377500e+02,30,3,3,1,3.185633e-01,4,1,0,3.200000e+00,1
21,901,5,1.369500e+02,20,3,1,0,4.716949e-01,4,1,0,3.200000e+00,1
21,902,5,5.328000e+01,11,2,2,1,1.814094e-04,4,1,0,2.300000e+00,1
21,903,5,1.069300e+02,8,3,2,0,1.954580e+00,3,1,0,3.200000e+00,1
21,904,5,8.213000e+01,43,2,2,1,1.548314e+00,4,1,0,2.100000e+00,1
21,905,5,6.304000e+01,72,2,3,0,9.266041e-01,3,1,0,2.100000e+00,1
21,906,5,1.069300e+02,8,3,3,1,3.996433e-01,4,1,0,3.200000e+00,1
21,907,5,4.271000e+01,3,1,1,1,2.652157e-01,4,1,0,1.200000e+00,1
21,908,5,1.163200e+02,22,3,3,1,1.545451e-04,3,1,0,3.100000e+00,1
21,909,5,1.303500e+02,16,3,1,0,1.475821e-01,4,1,0,3.100000e+00,1
21,910,5,9.220000e+00,60,1,1,1,4.767399e-01,4,1,0,1.300000e+00,1
21,911,5,1.339200e+02,19,3,3,1,3.184966e-01,3,1,0,3.200000e+00,1
21,912,5,1.253000e+01,12,1,1,1,3.756892e-01,4,1,0,1.200000e+00,1
21,913,5,8.511000e+01,40,2,2,1,2.969191e-01,4,1,0,2.100000e+00,1
21,914,5,1.012000e+01,62,1,1,1,2.505336e-01,4,1,0,1.300000e+00,1
21,915,5,1.293400e+02,49,3,3,1,5.953789e-02,4,1,0,3.100000e+00,1
21,916,5,9.044000e+01,42,2,3,0,1.249723e-01,3,1,0,2.300000e+00,1
21,917,5,7.601000e+01,14,2,2,1,1.539414e-04,3,1,0,2.100000e+00,1
21,918,5,20,55,1,1,1,1.496351e+00,2,1,0,1.300000e+00,1
21,919,5,20,55,1,1,1,1.771775e-02,3,1,0,1.300000e+00,1
21,920,5,4.810000e+01,46,1,1,1,4.273413e-02,4,1,0,1.300000e+00,1
21,921,5,1.163200e+02,22,3,3,1,1.481659e-01,4,1,0,3.100000e+00,1
21,922,5,3.667000e+01,9,1,1,1,3.712795e-02,3,1,0,1.200000e+00,1
21,923,5,1.339200e+02,19,3,3,1,8.385508e-01,4,1,0,3.200000e+00,1
21,924,5,4.460000e+01,56,1,1,1,1.199560e-01,4,1,0,1.200000e+00,1
21,925,5,7.420000e+01,48,2,2,1,2.893830e-01,4,1,0,2.100000e+00,1
21,926,5,20,55,1,3,0,4.026355e-01,4,1,0,1.300000e+00,1
21,927,5,6.304000e+01,72,2,0,0,2.500244e+00,4,1,0,2.100000e+00,1
21,928,5,9.044000e+01,42,2,0,0,2.500249e+00,4,1,0,2.300000e+00,1
21,929,5,3.667000e+01,9,1,1,1,3.198462e-01,4,1,0,1.200000e+00,1
21,930,5,7.332000e+01,64,2,2,1,1.649382e+00,4,1,0,2.300000e+00,1
21,931,5,7.601000e+01,14,2,2,1,3.792703e-01,4,1,0,2.100000e+00,1
21,932,5,8.425000e+01,25,2,2,1,1.348577e+00,4,1,0,2.300000e+00,1
21,933,5,1.711000e+01,52,1,1,1,1.545451e-04,4,1,0,1.300000e+00,1
21,934,5,1.132600e+02,7,3,0,0,2.500043e+00,4,1,0,3.100000e+00,1
21,935,6,100,55,2,2,1,1.265421e+00,NaN,2,0,3,1
21,936,6,121,57,1,1,1,8.462599e-01,NaN,2,0,3,1
21,937,6,110,46,2,2,1,6.423869e-01,NaN,2,0,3,1
21,938,6,38,70,1,1,1,5.752684e-01,NaN,2,0,1,1
21,939,6,140,63,2,2,1,5.906191e-01,NaN,2,0,3,1
21,940,6,4,72,2,1,0,4.532183e-01,NaN,2,0,1,1
21,941,6,114,23,1,1,1,6.816815e-01,NaN,2,1,3,1
21,942,6,71,3,2,2,1,4.847086e-01,NaN,2,0,2,1
21,943,6,34,49,2,2,1,7.198653e-01,NaN,2,0,1,1
21,944,6,73,68,1,1,1,2.177963e-01,NaN,2,1,2,1
21,945,6,30,65,2,2,1,2.633789e-01,NaN,2,0,1,1
21,946,6,119,33,2,1,0,5.554776e-01,NaN,2,0,3,1
21,947,6,97,45,2,1,0,5.472110e-01,NaN,2,1,3,1
21,948,6,95,20,1,2,0,5.877646e-01,NaN,2,0,2,1
21,949,6,2,41,1,1,1,3.074768e-01,NaN,2,0,1,1
21,950,6,11,40,2,2,1,3.247988e-01,NaN,2,0,1,1
21,951,6,93,8,1,1,1,2.537682e-01,NaN,2,0,2,1
21,952,6,5,39,1,2,0,6.424071e-01,NaN,2,0,1,1
21,953,6,141,51,2,1,0,6.552084e-01,NaN,2,1,3,1
21,954,6,33,32,2,2,1,9.870611e-01,NaN,2,0,1,1
21,955,6,51,53,2,2,1,4.825767e-01,NaN,2,1,2,1
21,956,6,118,17,1,2,0,5.975229e-01,NaN,2,1,3,1
21,957,6,138,21,2,2,1,4.836996e-01,NaN,2,0,3,1
21,958,6,43,4,2,1,0,4.948347e-01,NaN,2,1,1,1
21,959,6,135,36,2,2,1,4.338579e-01,NaN,2,0,3,1
21,960,6,53,12,2,1,0,4.629869e-01,NaN,2,0,2,1
21,961,6,58,50,1,1,1,4.588000e-01,NaN,2,1,2,1
21,962,6,45,28,2,1,0,4.784459e-01,NaN,2,1,1,1
21,963,6,66,61,2,1,0,4.422353e-01,NaN,2,0,2,1
21,964,6,54,34,1,1,1,4.230959e-01,NaN,2,0,2,1
21,965,6,26,7,1,1,1,2.601121e-01,NaN,2,0,1,1
21,966,6,46,58,2,1,0,2.246714e-01,NaN,2,0,1,1
21,967,6,1,14,1,2,0,9.017929e-01,NaN,2,0,1,1
21,968,6,122,60,1,1,1,6.240304e-01,NaN,2,0,3,1
21,969,6,128,11,1,1,1,2.935714e-01,NaN,2,0,3,1
21,970,6,32,22,2,2,1,6.886837e-01,NaN,2,0,1,1
21,971,6,6,13,1,2,0,4.109109e-01,NaN,2,0,1,1
21,972,6,64,47,1,1,1,3.690015e-01,NaN,2,0,2,1
21,973,6,91,1,2,2,1,7.528423e-01,NaN,2,0,2,1
21,974,6,94,44,2,2,1,6.094522e-01,NaN,2,1,2,1
21,975,6,101,27,1,2,0,5.272728e-01,NaN,2,0,3,1
21,976,6,84,2,2,2,1,7.211010e-01,NaN,2,1,2,1
21,977,6,144,42,2,2,1,4.823081e-01,NaN,2,0,3,1
21,978,6,88,26,1,2,0,3.572452e-01,NaN,2,0,2,1
21,979,6,75,30,2,2,1,7.972833e-01,NaN,2,0,2,1
21,980,6,112,62,1,2,0,2.601902e-01,NaN,2,0,3,1
21,981,6,35,16,2,2,1,4.159155e-01,NaN,2,0,1,1
21,982,6,103,37,1,2,0,3.017949e-01,NaN,2,0,3,1
21,983,6,111,52,2,1,0,1.200652e-01,NaN,2,0,3,1
21,984,6,25,10,1,1,1,2.899221e-01,NaN,2,1,1,1
21,985,6,60,56,1,2,0,5.966434e-01,NaN,2,0,2,1
21,986,6,124,66,2,1,0,2.592744e-01,NaN,2,0,3,1
21,987,6,23,24,1,2,0,2.310905e-01,NaN,2,0,1,1
21,988,6,81,71,2,2,1,4.685898e-01,NaN,2,0,2,1
21,989,6,80,6,1,2,0,2.963535e-01,NaN,2,1,2,1
21,990,6,13,43,1,2,0,2.986445e-01,NaN,2,0,1,1
21,991,6,77,15,2,2,1,6.850229e-01,NaN,2,1,2,1
21,992,6,92,19,1,1,1,7.039954e-01,NaN,2,0,2,1
21,993,6,127,54,2,1,0,7.861057e-01,NaN,2,0,3,1
21,994,6,18,67,2,1,0,7.370445e-01,NaN,2,0,1,1
21,995,6,20,48,2,1,0,7.224319e-01,NaN,2,0,1,1
21,996,6,134,5,1,2,0,6.754755e-01,NaN,2,0,3,1
21,997,6,125,25,1,2,0,1.294717e+00,NaN,2,0,3,1
21,998,6,87,59,2,1,0,5.533499e-01,NaN,2,1,2,1
21,999,6,70,69,2,1,0,8.498205e-01,NaN,2,0,2,1
21,1000,6,31,35,2,1,0,5.741416e-01,NaN,2,0,1,1
21,1001,6,139,38,1,2,0,7.897468e-01,NaN,2,0,3,1
21,1002,6,132,64,2,2,1,9.481770e-01,NaN,2,0,3,1
21,1003,6,39,18,2,2,1,4.766035e-01,NaN,2,1,1,1
21,1004,6,57,29,1,2,0,6.085648e-01,NaN,2,1,2,1
21,1005,6,15,31,2,1,0,6.944402e-01,NaN,2,1,1,1
21,1006,6,67,9,1,2,0,5.451068e-01,NaN,2,0,2,1
21,1007,6,69,38,1,1,1,9.376734e-01,NaN,1,0,2,1
21,1008,6,130,16,1,1,1,9.226203e-01,NaN,1,0,3,1
21,1009,6,37,29,1,1,1,9.159392e-01,NaN,1,1,1,1
21,1010,6,12,12,1,1,1,7.973380e-01,NaN,1,0,1,1
21,1011,6,42,3,2,2,1,6.843595e-01,NaN,1,0,1,1
21,1012,6,113,7,1,1,1,1.247068e+00,NaN,1,0,3,1
21,1013,6,65,41,2,1,0,5.872481e-01,NaN,1,0,2,1
21,1014,6,10,57,2,1,0,9.858739e-01,NaN,1,0,1,1
21,1015,6,99,44,2,2,1,8.329374e-01,NaN,1,1,3,1
21,1016,6,133,19,2,2,1,1.253807e+00,NaN,1,0,3,1
21,1017,6,21,17,1,1,1,7.381046e-01,NaN,1,1,1,1
21,1018,6,117,59,1,2,0,6.907535e-01,NaN,1,1,3,1
21,1019,6,56,31,2,2,1,7.496237e-01,NaN,1,1,2,1
21,1020,6,123,71,1,1,1,1.141939e+00,NaN,1,0,3,1
21,1021,6,79,63,2,1,0,5.268038e-01,NaN,1,0,2,1
21,1022,6,50,13,2,2,1,6.244575e-01,NaN,1,0,2,1
21,1023,6,17,33,2,2,1,8.455243e-01,NaN,1,0,1,1
21,1024,6,102,18,2,2,1,3.458209e-01,NaN,1,1,3,1
21,1025,6,22,45,2,2,1,2.903084e-01,NaN,1,1,1,1
21,1026,6,14,50,2,1,0,2.771540e-01,NaN,1,1,1,1
21,1027,6,3,53,2,2,1,2.488574e-01,NaN,1,1,1,1
21,1028,6,85,40,2,2,1,4.775313e-01,NaN,1,0,2,1
21,1029,6,108,26,2,2,1,9.043164e-01,NaN,1,0,3,1
21,1030,6,72,64,2,2,1,4.826600e-01,NaN,1,0,2,1
21,1031,6,83,25,1,1,1,9.178946e-01,NaN,1,0,2,1
21,1032,6,68,5,2,2,1,5.436791e-01,NaN,1,0,2,1
21,1033,6,7,37,1,2,0,5.599295e-01,NaN,1,0,1,1
21,1034,6,49,21,1,1,1,5.759382e-01,NaN,1,0,2,1
21,1035,6,40,47,1,2,0,7.195248e-01,NaN,1,0,1,1
21,1036,6,27,68,2,1,0,7.532965e-01,NaN,1,1,1,1
21,1037,6,106,8,1,1,1,9.778533e-01,NaN,1,0,3,1
21,1038,6,78,36,1,1,1,7.046278e-01,NaN,1,0,2,1
21,1039,6,76,14,2,2,1,5.786721e-01,NaN,1,0,2,1
21,1040,6,142,35,2,2,1,7.383923e-01,NaN,1,0,3,1
21,1041,6,82,43,1,1,1,7.628358e-01,NaN,1,0,2,1
21,1042,6,89,42,2,2,1,5.469185e-01,NaN,1,0,2,1
21,1043,6,104,1,1,1,1,5.631366e-01,NaN,1,0,3,1
21,1044,6,131,58,2,1,0,4.107087e-01,NaN,1,0,3,1
21,1045,6,55,67,1,1,1,6.728700e-01,NaN,1,0,2,1
21,1046,6,129,49,2,1,0,1.180540e+00,NaN,1,0,3,1
21,1047,6,74,48,1,1,1,6.513641e-01,NaN,1,0,2,1
21,1048,6,86,51,2,2,1,5.758003e-01,NaN,1,1,2,1
21,1049,6,105,6,1,2,0,5.830869e-01,NaN,1,1,3,1
21,1050,6,62,54,1,2,0,5.023241e-01,NaN,1,0,2,1
21,1051,6,9,62,1,1,1,4.967396e-01,NaN,1,0,1,1
21,1052,6,143,2,1,1,1,6.431373e-01,NaN,1,1,3,1
21,1053,6,48,34,1,1,1,2.236120e-01,NaN,1,0,1,1
21,1054,6,41,27,2,1,0,2.375237e-01,NaN,1,0,1,1
21,1055,6,52,11,2,2,1,9.060604e-01,NaN,1,0,2,1
21,1056,6,120,28,1,2,0,1.012164e+00,NaN,1,1,3,1
21,1057,6,63,72,2,2,1,5.140239e-01,NaN,1,0,2,1
21,1058,6,24,23,1,2,0,4.916173e-01,NaN,1,1,1,1
21,1059,6,109,65,2,2,1,6.462146e-01,NaN,1,0,3,1
21,1060,6,8,60,2,2,1,5.624228e-01,NaN,1,0,1,1
21,1061,6,19,55,2,2,1,2.107210e-01,NaN,1,0,1,1
21,1062,6,96,24,1,1,1,1.684448e-01,NaN,1,0,2,1
21,1063,6,28,61,2,2,1,9.125323e-01,NaN,1,0,1,1
21,1064,6,90,39,2,2,1,7.778318e-01,NaN,1,0,2,1
21,1065,6,29,69,1,1,1,1.305120e+00,NaN,1,0,1,1
21,1066,6,59,66,2,2,1,8.597201e-01,NaN,1,0,2,1
21,1067,6,61,10,2,2,1,9.436321e-01,NaN,1,1,2,1
21,1068,6,47,46,2,2,1,5.839688e-01,NaN,1,0,1,1
21,1069,6,126,15,1,2,0,8.472898e-01,NaN,1,1,3,1
21,1070,6,115,32,2,2,1,7.795526e-01,NaN,1,0,3,1
21,1071,6,98,4,1,2,0,6.588055e-01,NaN,1,1,3,1
21,1072,6,107,70,1,1,1,1.438486e+00,NaN,1,0,3,1
21,1073,6,116,22,2,2,1,8.754270e-01,NaN,1,0,3,1
21,1074,6,137,30,2,2,1,8.786809e-01,NaN,1,0,3,1
21,1075,6,36,9,2,2,1,1.194022e+00,NaN,1,0,1,1
21,1076,6,136,20,2,2,1,6.409975e-01,NaN,1,0,3,1
21,1077,6,16,52,2,2,1,3.253754e-01,NaN,1,0,1,1
21,1078,6,44,56,1,1,1,3.987722e-01,NaN,1,0,1,1
