Subject,Trial,Cond,ImageNum,CueNum,Correct,Resp,Accuracy,RT,CueRep,ImageType,Baseline,Category,Block
18,1,1,137,NaN,NaN,1,NaN,2.550556e+00,NaN,0,0,3,1
18,2,1,52,NaN,NaN,1,NaN,8.557356e-04,NaN,1,0,2,1
18,3,1,11,NaN,NaN,1,NaN,1.252664e-04,NaN,0,0,1,1
18,4,1,55,NaN,NaN,1,NaN,9.281137e-01,NaN,0,0,2,1
18,5,1,83,NaN,NaN,1,NaN,9.408281e-01,NaN,0,0,2,1
18,6,1,33,NaN,NaN,1,NaN,1.384758e+00,NaN,2,0,1,1
18,7,1,128,NaN,NaN,1,NaN,8.243285e-02,NaN,0,0,3,1
18,8,1,98,NaN,NaN,1,NaN,1.267757e-04,NaN,1,0,3,1
18,9,1,2,NaN,NaN,1,NaN,6.433725e-01,NaN,0,0,1,1
18,10,1,50,NaN,NaN,1,NaN,7.787967e-01,NaN,0,0,2,1
18,11,1,39,NaN,NaN,1,NaN,1.240590e-04,NaN,2,1,1,1
18,12,1,64,NaN,NaN,1,NaN,5.024617e-01,NaN,1,1,2,1
18,13,1,43,NaN,NaN,1,NaN,4.517856e-01,NaN,0,0,1,1
18,14,1,71,NaN,NaN,1,NaN,1.392899e-01,NaN,1,0,2,1
18,15,1,84,NaN,NaN,1,NaN,3.914754e-01,NaN,2,0,2,1
18,16,1,61,NaN,NaN,1,NaN,3.865793e+00,NaN,2,1,2,1
18,17,1,120,NaN,NaN,1,NaN,3.119336e-01,NaN,1,1,3,1
18,18,1,111,NaN,NaN,1,NaN,4.529996e-01,NaN,1,0,3,1
18,19,1,119,NaN,NaN,1,NaN,5.232212e-02,NaN,2,0,3,1
18,20,1,113,NaN,NaN,1,NaN,1.225498e-04,NaN,0,0,3,1
18,21,1,79,NaN,NaN,1,NaN,2.375281e-01,NaN,0,1,2,1
18,22,1,143,NaN,NaN,1,NaN,1.976728e-01,NaN,0,0,3,1
18,23,1,106,NaN,NaN,1,NaN,6.394497e-01,NaN,0,0,3,1
18,24,1,1,NaN,NaN,1,NaN,1.415091e+00,NaN,1,1,1,1
18,25,1,13,NaN,NaN,1,NaN,4.773979e-02,NaN,0,0,1,1
18,26,1,95,NaN,NaN,1,NaN,6.394256e-01,NaN,1,0,2,1
18,27,1,61,NaN,NaN,1,NaN,4.556507e-01,NaN,0,1,2,1
18,28,1,96,NaN,NaN,1,NaN,1.267756e-04,NaN,2,0,2,1
18,29,1,128,NaN,NaN,1,NaN,1.213425e-04,NaN,2,0,3,1
18,30,1,41,NaN,NaN,1,NaN,2.425426e-01,NaN,0,1,1,1
18,31,1,63,NaN,NaN,1,NaN,2.907237e-01,NaN,0,1,2,1
18,32,1,144,NaN,NaN,1,NaN,3.446662e-01,NaN,2,1,3,1
18,33,1,35,NaN,NaN,1,NaN,8.447871e-01,NaN,2,0,1,1
18,34,1,68,NaN,NaN,1,NaN,3.003213e-01,NaN,1,0,2,1
18,35,1,120,NaN,NaN,1,NaN,5.059939e-01,NaN,0,1,3,1
18,36,1,114,NaN,NaN,1,NaN,3.113230e-01,NaN,0,1,3,1
18,37,1,114,NaN,NaN,1,NaN,1.267757e-04,NaN,2,1,3,1
18,38,1,100,NaN,NaN,1,NaN,1.182235e+00,NaN,0,0,3,1
18,39,1,29,NaN,NaN,1,NaN,2.000735e+00,NaN,0,1,1,1
18,40,1,84,NaN,NaN,1,NaN,2.417790e-01,NaN,0,0,2,1
18,41,1,140,NaN,NaN,1,NaN,4.502483e-01,NaN,0,0,3,1
18,42,1,47,NaN,NaN,1,NaN,1.261720e-04,NaN,2,1,1,1
18,43,1,37,NaN,NaN,1,NaN,4.673452e-01,NaN,1,1,1,1
18,44,1,64,NaN,NaN,1,NaN,8.423892e-01,NaN,0,1,2,1
18,45,1,112,NaN,NaN,1,NaN,6.672021e-02,NaN,0,0,3,1
18,46,1,85,NaN,NaN,1,NaN,4.175404e-01,NaN,1,0,2,1
18,47,1,15,NaN,NaN,1,NaN,1.945104e-01,NaN,1,0,1,1
18,48,1,56,NaN,NaN,1,NaN,5.320656e-01,NaN,2,0,2,1
18,49,1,51,NaN,NaN,1,NaN,5.921322e-01,NaN,1,0,2,1
18,50,1,71,NaN,NaN,1,NaN,2.182594e-01,NaN,0,0,2,1
18,51,1,73,NaN,NaN,1,NaN,4.350439e-01,NaN,1,0,2,1
18,52,1,3,NaN,NaN,1,NaN,1.087433e-02,NaN,0,0,1,1
18,53,1,104,NaN,NaN,1,NaN,9.556204e-01,NaN,2,0,3,1
18,54,1,30,NaN,NaN,1,NaN,4.066163e-01,NaN,2,0,1,1
18,55,1,4,NaN,NaN,1,NaN,4.643596e-01,NaN,1,1,1,1
18,56,1,12,NaN,NaN,1,NaN,3.759076e-01,NaN,2,1,1,1
18,57,1,99,NaN,NaN,1,NaN,1.050622e+00,NaN,2,1,3,1
18,58,1,17,NaN,NaN,1,NaN,4.744361e-01,NaN,1,0,1,1
18,59,1,35,NaN,NaN,1,NaN,1.232228e+00,NaN,0,0,1,1
18,60,1,85,NaN,NaN,1,NaN,3.209151e-01,NaN,0,0,2,1
18,61,1,9,NaN,NaN,1,NaN,1.977223e-01,NaN,0,1,1,1
18,62,1,50,NaN,NaN,1,NaN,5.989869e-01,NaN,1,0,2,1
18,63,1,96,NaN,NaN,1,NaN,2.563253e-01,NaN,0,0,2,1
18,64,1,13,NaN,NaN,1,NaN,3.763758e-01,NaN,1,0,1,1
18,65,1,58,NaN,NaN,1,NaN,3.790622e-01,NaN,0,0,2,1
18,66,1,94,NaN,NaN,1,NaN,1.485164e+00,NaN,0,0,2,1
18,67,1,139,NaN,NaN,1,NaN,5.557473e-01,NaN,0,0,3,1
18,68,1,78,NaN,NaN,1,NaN,8.624520e-01,NaN,0,0,2,1
18,69,1,132,NaN,NaN,1,NaN,2.381212e-01,NaN,0,0,3,1
18,70,1,99,NaN,NaN,1,NaN,5.575273e-01,NaN,0,1,3,1
18,71,1,59,NaN,NaN,1,NaN,2.407264e-01,NaN,2,1,2,1
18,72,1,76,NaN,NaN,1,NaN,1.609658e-01,NaN,0,0,2,1
18,73,1,107,NaN,NaN,1,NaN,3.242272e-01,NaN,0,0,3,1
18,74,1,97,NaN,NaN,1,NaN,1.711320e-02,NaN,0,0,3,1
18,75,1,121,NaN,NaN,1,NaN,4.501450e-01,NaN,0,0,3,1
18,76,1,44,NaN,NaN,1,NaN,5.618084e-01,NaN,1,0,1,1
18,77,1,131,NaN,NaN,1,NaN,9.892280e-01,NaN,1,0,3,1
18,78,1,69,NaN,NaN,1,NaN,5.109777e-01,NaN,0,0,2,1
18,79,1,135,NaN,NaN,1,NaN,5.005196e-01,NaN,0,0,3,1
18,80,1,81,NaN,NaN,1,NaN,1.222347e-01,NaN,0,0,2,1
18,81,1,52,NaN,NaN,1,NaN,1.270775e-04,NaN,0,0,2,1
18,82,1,118,NaN,NaN,1,NaN,8.900798e-02,NaN,0,0,3,1
18,83,1,133,NaN,NaN,1,NaN,1.182941e+00,NaN,0,0,3,1
18,84,1,32,NaN,NaN,1,NaN,4.493409e-01,NaN,0,0,1,1
18,85,1,46,NaN,NaN,1,NaN,1.264738e-04,NaN,2,1,1,1
18,86,1,22,NaN,NaN,1,NaN,1.267757e-04,NaN,0,1,1,1
18,87,1,38,NaN,NaN,1,NaN,6.521010e-01,NaN,2,0,1,1
18,88,1,101,NaN,NaN,1,NaN,8.519414e-01,NaN,0,0,3,1
18,89,1,4,NaN,NaN,1,NaN,1.955291e-01,NaN,0,1,1,1
18,90,1,29,NaN,NaN,1,NaN,6.765531e-01,NaN,1,1,1,1
18,91,1,90,NaN,NaN,1,NaN,1.273793e-04,NaN,0,0,2,1
18,92,1,48,NaN,NaN,1,NaN,5.966962e-01,NaN,0,1,1,1
18,93,1,14,NaN,NaN,1,NaN,1.457799e-02,NaN,0,0,1,1
18,94,1,74,NaN,NaN,1,NaN,3.031393e-01,NaN,0,0,2,1
18,95,1,123,NaN,NaN,1,NaN,7.009239e-01,NaN,1,0,3,1
18,96,1,109,NaN,NaN,1,NaN,4.429095e-01,NaN,0,0,3,1
18,97,1,125,NaN,NaN,1,NaN,1.867079e+00,NaN,0,0,3,1
18,98,1,65,NaN,NaN,1,NaN,2.105877e+00,NaN,0,1,2,1
18,99,1,80,NaN,NaN,1,NaN,8.310126e-01,NaN,0,0,2,1
18,100,1,123,NaN,NaN,1,NaN,3.127233e+00,NaN,0,0,3,1
18,101,1,9,NaN,NaN,1,NaN,1.261719e-04,NaN,2,1,1,1
18,102,1,113,NaN,NaN,1,NaN,9.334328e-01,NaN,1,0,3,1
18,103,1,49,NaN,NaN,1,NaN,3.702664e-01,NaN,0,0,2,1
18,104,1,75,NaN,NaN,1,NaN,5.894162e-03,NaN,1,1,2,1
18,105,1,86,NaN,NaN,1,NaN,1.313033e-04,NaN,0,0,2,1
18,106,1,78,NaN,NaN,1,NaN,6.564513e-01,NaN,2,0,2,1
18,107,1,82,NaN,NaN,1,NaN,3.162781e-02,NaN,1,1,2,1
18,108,1,66,NaN,NaN,1,NaN,2.638902e-01,NaN,2,0,2,1
18,109,1,36,NaN,NaN,1,NaN,1.276813e-04,NaN,0,0,1,1
18,110,1,109,NaN,NaN,1,NaN,2.642343e-01,NaN,1,0,3,1
18,111,1,103,NaN,NaN,1,NaN,4.156297e-01,NaN,0,0,3,1
18,112,1,102,NaN,NaN,1,NaN,2.064464e+00,NaN,0,0,3,1
18,113,1,112,NaN,NaN,1,NaN,1.175671e+00,NaN,1,0,3,1
18,114,1,122,NaN,NaN,1,NaN,3.383398e-01,NaN,2,0,3,1
18,115,1,105,NaN,NaN,1,NaN,3.510086e-01,NaN,0,1,3,1
18,116,1,67,NaN,NaN,1,NaN,2.664408e-01,NaN,1,0,2,1
18,117,1,44,NaN,NaN,1,NaN,1.853243e-01,NaN,0,0,1,1
18,118,1,8,NaN,NaN,1,NaN,1.956450e-01,NaN,0,0,1,1
18,119,1,10,NaN,NaN,1,NaN,1.294923e-04,NaN,0,0,1,1
18,120,1,31,NaN,NaN,1,NaN,1.255682e-04,NaN,0,0,1,1
18,121,1,97,NaN,NaN,1,NaN,1.466976e-04,NaN,2,0,3,1
18,122,1,72,NaN,NaN,1,NaN,1.066317e+00,NaN,1,0,2,1
18,123,1,131,NaN,NaN,1,NaN,4.332926e-01,NaN,0,0,3,1
18,124,1,11,NaN,NaN,1,NaN,2.180209e-01,NaN,2,0,1,1
18,125,1,41,NaN,NaN,1,NaN,2.263917e-01,NaN,1,1,1,1
18,126,1,89,NaN,NaN,1,NaN,2.194493e-01,NaN,1,0,2,1
18,127,1,88,NaN,NaN,1,NaN,2.687565e-01,NaN,0,1,2,1
18,128,1,122,NaN,NaN,1,NaN,1.876289e-01,NaN,0,0,3,1
18,129,1,92,NaN,NaN,1,NaN,1.249646e-04,NaN,0,0,2,1
18,130,1,36,NaN,NaN,1,NaN,1.267757e-04,NaN,1,0,1,1
18,131,1,56,NaN,NaN,1,NaN,1.273793e-04,NaN,0,0,2,1
18,132,1,130,NaN,NaN,1,NaN,1.282848e-04,NaN,2,1,3,1
18,133,1,27,NaN,NaN,1,NaN,1.234553e-04,NaN,2,0,1,1
18,134,1,37,NaN,NaN,1,NaN,1.497159e-04,NaN,0,1,1,1
18,135,1,138,NaN,NaN,1,NaN,1.282849e-04,NaN,2,0,3,1
18,136,1,1,NaN,NaN,1,NaN,1.279830e-04,NaN,0,1,1,1
18,137,1,7,NaN,NaN,2,NaN,4.358369e-01,NaN,0,0,1,1
18,138,1,132,NaN,NaN,1,NaN,6.606421e-01,NaN,1,0,3,1
18,139,1,66,NaN,NaN,1,NaN,2.031688e-01,NaN,0,0,2,1
18,140,1,127,NaN,NaN,1,NaN,3.084974e-01,NaN,0,0,3,1
18,141,1,53,NaN,NaN,1,NaN,3.059429e-01,NaN,2,0,2,1
18,142,1,22,NaN,NaN,1,NaN,2.237249e-01,NaN,1,1,1,1
18,143,1,110,NaN,NaN,1,NaN,3.043820e-01,NaN,0,0,3,1
18,144,1,134,NaN,NaN,1,NaN,2.624093e-01,NaN,2,0,3,1
18,145,1,129,NaN,NaN,1,NaN,7.727338e-02,NaN,1,1,3,1
18,146,1,43,NaN,NaN,1,NaN,2.278844e-01,NaN,2,0,1,1
18,147,1,105,NaN,NaN,1,NaN,2.363165e-01,NaN,2,1,3,1
18,148,1,45,NaN,NaN,1,NaN,1.476031e-04,NaN,0,1,1,1
18,149,1,23,NaN,NaN,1,NaN,3.085780e-02,NaN,0,0,1,1
18,150,1,67,NaN,NaN,1,NaN,2.630317e-01,NaN,0,0,2,1
18,151,1,33,NaN,NaN,1,NaN,2.776402e-01,NaN,0,0,1,1
18,152,1,12,NaN,NaN,1,NaN,2.523644e-01,NaN,0,1,1,1
18,153,1,104,NaN,NaN,1,NaN,2.521691e-01,NaN,0,0,3,1
18,154,1,115,NaN,NaN,1,NaN,1.303978e-04,NaN,1,1,3,1
18,155,1,117,NaN,NaN,1,NaN,2.462457e-01,NaN,0,1,3,1
18,156,1,31,NaN,NaN,1,NaN,3.013880e-01,NaN,1,0,1,1
18,157,1,87,NaN,NaN,1,NaN,2.746851e-01,NaN,1,0,2,1
18,158,1,27,NaN,NaN,1,NaN,3.530294e-01,NaN,0,0,1,1
18,159,1,110,NaN,NaN,1,NaN,6.044554e-01,NaN,2,0,3,1
18,160,1,25,NaN,NaN,1,NaN,3.821453e-01,NaN,1,0,1,1
18,161,1,72,NaN,NaN,1,NaN,2.161552e-01,NaN,0,0,2,1
18,162,1,116,NaN,NaN,1,NaN,4.010765e-01,NaN,2,0,3,1
18,163,1,79,NaN,NaN,1,NaN,1.285867e-04,NaN,1,1,2,1
18,164,1,48,NaN,NaN,1,NaN,6.288096e-01,NaN,1,1,1,1
18,165,1,47,NaN,NaN,1,NaN,1.300960e-04,NaN,0,1,1,1
18,166,1,34,NaN,NaN,1,NaN,4.461881e-01,NaN,1,0,1,1
18,167,1,18,NaN,NaN,1,NaN,1.396464e-02,NaN,0,0,1,1
18,168,1,74,NaN,NaN,1,NaN,1.288885e-04,NaN,2,0,2,1
18,169,1,111,NaN,NaN,1,NaN,1.264737e-04,NaN,0,0,3,1
18,170,1,129,NaN,NaN,1,NaN,3.942557e-01,NaN,0,1,3,1
18,171,1,86,NaN,NaN,1,NaN,5.646974e-01,NaN,2,0,2,1
18,172,1,135,NaN,NaN,1,NaN,6.558189e-01,NaN,2,0,3,1
18,173,1,70,NaN,NaN,1,NaN,1.273793e-04,NaN,2,0,2,1
18,174,1,69,NaN,NaN,1,NaN,1.088997e+00,NaN,2,0,2,1
18,175,1,59,NaN,NaN,1,NaN,1.270775e-04,NaN,0,1,2,1
18,176,1,34,NaN,NaN,1,NaN,8.810129e-01,NaN,0,0,1,1
18,177,1,10,NaN,NaN,1,NaN,3.268379e-01,NaN,2,0,1,1
18,178,1,58,NaN,NaN,1,NaN,4.194898e-01,NaN,1,0,2,1
18,179,1,70,NaN,NaN,1,NaN,6.366079e-01,NaN,0,0,2,1
18,180,1,143,NaN,NaN,1,NaN,3.648320e-01,NaN,1,0,3,1
18,181,1,75,NaN,NaN,1,NaN,5.198218e-01,NaN,0,1,2,1
18,182,1,121,NaN,NaN,1,NaN,4.931283e-01,NaN,1,0,3,1
18,183,1,73,NaN,NaN,1,NaN,3.147604e-01,NaN,0,0,2,1
18,184,1,42,NaN,NaN,1,NaN,3.438940e-01,NaN,0,0,1,1
18,185,1,100,NaN,NaN,1,NaN,3.080129e-01,NaN,2,0,3,1
18,186,1,16,NaN,NaN,1,NaN,7.933699e-01,NaN,2,0,1,1
18,187,1,126,NaN,NaN,1,NaN,1.043412e+00,NaN,1,0,3,1
18,188,1,24,NaN,NaN,1,NaN,5.951483e-01,NaN,0,0,1,1
18,189,1,14,NaN,NaN,1,NaN,2.444947e-01,NaN,1,0,1,1
18,190,1,93,NaN,NaN,1,NaN,2.447250e-01,NaN,2,1,2,1
18,191,1,62,NaN,NaN,1,NaN,2.636471e+00,NaN,1,1,2,1
18,192,1,133,NaN,NaN,1,NaN,2.203629e+00,NaN,1,0,3,1
18,193,1,63,NaN,NaN,1,NaN,2.449562e-01,NaN,2,1,2,1
18,194,1,6,NaN,NaN,1,NaN,6.204211e+00,NaN,2,0,1,1
18,195,1,8,NaN,NaN,1,NaN,3.569568e-01,NaN,2,0,1,1
18,196,1,80,NaN,NaN,1,NaN,5.605376e-01,NaN,1,0,2,1
18,197,1,26,NaN,NaN,1,NaN,5.000279e-01,NaN,1,0,1,1
18,198,1,76,NaN,NaN,1,NaN,1.709872e-02,NaN,1,0,2,1
18,199,1,115,NaN,NaN,1,NaN,1.246626e-04,NaN,0,1,3,1
18,200,1,126,NaN,NaN,1,NaN,4.118271e-01,NaN,0,0,3,1
18,201,1,98,NaN,NaN,1,NaN,1.890792e-01,NaN,0,0,3,1
18,202,1,118,NaN,NaN,1,NaN,2.630272e-01,NaN,1,0,3,1
18,203,1,21,NaN,NaN,1,NaN,3.179890e-01,NaN,1,0,1,1
18,204,1,77,NaN,NaN,1,NaN,3.950607e-01,NaN,1,1,2,1
18,205,1,32,NaN,NaN,1,NaN,1.284638e+00,NaN,2,0,1,1
18,206,1,108,NaN,NaN,1,NaN,1.626737e+00,NaN,0,0,3,1
18,207,1,92,NaN,NaN,1,NaN,1.150245e-01,NaN,2,0,2,1
18,208,1,124,NaN,NaN,1,NaN,3.278862e-01,NaN,2,1,3,1
18,209,1,130,NaN,NaN,1,NaN,3.159403e-01,NaN,0,1,3,1
18,210,1,102,NaN,NaN,1,NaN,1.273793e-04,NaN,1,0,3,1
18,211,1,40,NaN,NaN,1,NaN,1.138976e+00,NaN,0,0,1,1
18,212,1,42,NaN,NaN,1,NaN,1.014090e+00,NaN,2,0,1,1
18,213,1,20,NaN,NaN,1,NaN,9.431955e-01,NaN,0,0,1,1
18,214,1,55,NaN,NaN,1,NaN,1.273793e-04,NaN,2,0,2,1
18,215,1,125,NaN,NaN,1,NaN,1.270776e-04,NaN,2,0,3,1
18,216,1,16,NaN,NaN,1,NaN,1.342961e+00,NaN,0,0,1,1
18,217,1,68,NaN,NaN,1,NaN,1.273793e-04,NaN,0,0,2,1
18,218,1,54,NaN,NaN,1,NaN,2.848773e-01,NaN,2,0,2,1
18,219,1,51,NaN,NaN,1,NaN,4.187294e-01,NaN,0,0,2,1
18,220,1,140,NaN,NaN,1,NaN,1.548474e-04,NaN,2,0,3,1
18,221,1,124,NaN,NaN,1,NaN,5.895376e-01,NaN,0,1,3,1
18,222,1,134,NaN,NaN,1,NaN,1.916072e-01,NaN,0,0,3,1
18,223,1,60,NaN,NaN,1,NaN,2.498890e-01,NaN,0,0,2,1
18,224,1,17,NaN,NaN,1,NaN,2.653918e-01,NaN,0,0,1,1
18,225,1,89,NaN,NaN,1,NaN,2.080615e-01,NaN,0,0,2,1
18,226,1,60,NaN,NaN,1,NaN,1.617362e-01,NaN,2,0,2,1
18,227,1,28,NaN,NaN,1,NaN,2.049941e-01,NaN,0,0,1,1
18,228,1,26,NaN,NaN,1,NaN,2.465536e-01,NaN,0,0,1,1
18,229,1,141,NaN,NaN,1,NaN,5.099004e-01,NaN,2,1,3,1
18,230,1,53,NaN,NaN,1,NaN,4.355326e-01,NaN,0,0,2,1
18,231,1,19,NaN,NaN,1,NaN,5.717174e-01,NaN,1,0,1,1
18,232,1,19,NaN,NaN,1,NaN,9.339203e-01,NaN,0,0,1,1
18,233,1,142,NaN,NaN,1,NaN,3.658353e+00,NaN,0,0,3,1
18,234,1,83,NaN,NaN,0,NaN,9.995376e+00,NaN,2,0,2,1
18,235,1,2,NaN,NaN,1,NaN,8.173920e-02,NaN,1,0,1,1
18,236,1,15,NaN,NaN,0,NaN,9.995418e+00,NaN,0,0,1,1
18,237,1,6,NaN,NaN,1,NaN,1.279830e-04,NaN,0,0,1,1
18,238,1,142,NaN,NaN,1,NaN,3.784051e-01,NaN,1,0,3,1
18,239,1,91,NaN,NaN,1,NaN,3.162491e-01,NaN,0,0,2,1
18,240,1,136,NaN,NaN,1,NaN,3.298567e-01,NaN,0,0,3,1
18,241,1,119,NaN,NaN,1,NaN,5.917397e+00,NaN,0,0,3,1
18,242,1,20,NaN,NaN,1,NaN,2.337683e-01,NaN,2,0,1,1
18,243,1,38,NaN,NaN,1,NaN,5.937453e-01,NaN,0,0,1,1
18,244,1,127,NaN,NaN,1,NaN,2.483824e+00,NaN,1,0,3,1
18,245,1,62,NaN,NaN,1,NaN,5.097496e+00,NaN,0,1,2,1
18,246,1,57,NaN,NaN,1,NaN,6.466524e-01,NaN,1,0,2,1
18,247,1,81,NaN,NaN,1,NaN,4.937706e-01,NaN,2,0,2,1
18,248,1,93,NaN,NaN,1,NaN,1.124261e+00,NaN,0,1,2,1
18,249,1,46,NaN,NaN,1,NaN,5.209688e-01,NaN,0,1,1,1
18,250,1,57,NaN,NaN,1,NaN,4.054264e-01,NaN,0,0,2,1
18,251,1,117,NaN,NaN,1,NaN,2.305168e-01,NaN,2,1,3,1
18,252,1,49,NaN,NaN,1,NaN,1.279830e-04,NaN,2,0,2,1
18,253,1,77,NaN,NaN,1,NaN,7.285860e-01,NaN,0,1,2,1
18,254,1,144,NaN,NaN,1,NaN,1.133354e+00,NaN,0,1,3,1
18,255,1,3,NaN,NaN,1,NaN,1.969081e+00,NaN,1,0,1,1
18,256,1,87,NaN,NaN,1,NaN,4.434688e-01,NaN,0,0,2,1
18,257,1,82,NaN,NaN,1,NaN,9.165427e-02,NaN,0,1,2,1
18,258,1,141,NaN,NaN,1,NaN,2.176122e-01,NaN,0,1,3,1
18,259,1,116,NaN,NaN,1,NaN,1.390098e-01,NaN,0,0,3,1
18,260,1,95,NaN,NaN,1,NaN,5.186929e-01,NaN,0,0,2,1
18,261,1,137,NaN,NaN,1,NaN,1.801370e-01,NaN,1,0,3,1
18,262,1,90,NaN,NaN,1,NaN,3.500864e-01,NaN,1,0,2,1
18,263,1,5,NaN,NaN,1,NaN,1.279830e-04,NaN,0,0,1,1
18,264,1,54,NaN,NaN,1,NaN,1.270775e-04,NaN,0,0,2,1
18,265,1,7,NaN,NaN,1,NaN,1.439810e-04,NaN,1,0,1,1
18,266,1,107,NaN,NaN,1,NaN,1.516195e-01,NaN,1,0,3,1
18,267,1,101,NaN,NaN,1,NaN,3.234530e-01,NaN,1,0,3,1
18,268,1,139,NaN,NaN,1,NaN,9.671805e-02,NaN,1,0,3,1
18,269,1,45,NaN,NaN,1,NaN,1.331144e-04,NaN,1,1,1,1
18,270,1,30,NaN,NaN,1,NaN,5.764075e-01,NaN,0,0,1,1
18,271,1,103,NaN,NaN,1,NaN,4.675033e-01,NaN,2,0,3,1
18,272,1,18,NaN,NaN,1,NaN,4.342754e-01,NaN,1,0,1,1
18,273,1,24,NaN,NaN,1,NaN,5.151103e-01,NaN,2,0,1,1
18,274,1,106,NaN,NaN,1,NaN,4.400715e-01,NaN,2,0,3,1
18,275,1,23,NaN,NaN,1,NaN,3.680451e-01,NaN,2,0,1,1
18,276,1,39,NaN,NaN,1,NaN,7.232654e-01,NaN,0,1,1,1
18,277,1,94,NaN,NaN,1,NaN,3.915062e-01,NaN,2,0,2,1
18,278,1,25,NaN,NaN,1,NaN,7.212514e-01,NaN,0,0,1,1
18,279,1,138,NaN,NaN,1,NaN,6.617988e-01,NaN,0,0,3,1
18,280,1,108,NaN,NaN,1,NaN,4.928367e-01,NaN,1,0,3,1
18,281,1,65,NaN,NaN,1,NaN,1.541326e-01,NaN,2,1,2,1
18,282,1,5,NaN,NaN,1,NaN,7.897039e-01,NaN,2,0,1,1
18,283,1,28,NaN,NaN,1,NaN,1.311457e+00,NaN,2,0,1,1
18,284,1,21,NaN,NaN,1,NaN,4.767791e-01,NaN,0,0,1,1
18,285,1,136,NaN,NaN,1,NaN,1.267757e-04,NaN,2,0,3,1
18,286,1,91,NaN,NaN,1,NaN,2.051185e-01,NaN,2,0,2,1
18,287,1,40,NaN,NaN,1,NaN,2.699494e-01,NaN,2,0,1,1
18,288,1,88,NaN,NaN,1,NaN,5.729568e-01,NaN,1,1,2,1
18,314,2,67,5,2,2,1,2.462785e+00,NaN,1,0,2,1
18,315,2,137,56,1,1,1,2.889955e+00,NaN,1,0,3,1
18,316,2,89,8,1,1,1,2.043844e+00,NaN,1,0,2,1
18,317,2,44,2,1,0,0,3.499928e+00,NaN,1,0,1,1
18,318,2,118,23,1,2,0,1.855867e+00,NaN,1,0,3,1
18,319,2,133,41,2,1,0,2.090265e+00,NaN,1,0,3,1
18,320,2,50,25,1,1,1,1.203841e+00,NaN,1,0,2,1
18,321,2,107,72,2,0,0,3.499522e+00,NaN,1,0,3,1
18,322,2,64,65,2,2,1,9.536306e-01,NaN,1,1,2,1
18,323,2,113,17,1,2,0,1.088477e+00,NaN,1,0,3,1
18,324,2,58,70,1,1,1,8.179722e-01,NaN,1,0,2,1
18,325,2,121,40,1,2,0,8.307714e-01,NaN,1,0,3,1
18,326,2,79,37,2,1,0,9.145052e-01,NaN,1,1,2,1
18,327,2,57,9,1,2,0,1.019479e+00,NaN,1,0,2,1
18,328,2,108,59,1,1,1,1.080005e+00,NaN,1,0,3,1
18,329,2,51,33,1,1,1,1.073633e+00,NaN,1,0,2,1
18,330,2,111,29,1,1,1,1.460390e+00,NaN,1,0,3,1
18,331,2,123,16,2,2,1,8.956322e-01,NaN,1,0,3,1
18,332,2,131,53,1,1,1,6.966968e-01,NaN,1,0,3,1
18,333,2,129,30,2,2,1,1.082433e+00,NaN,1,1,3,1
18,334,2,82,21,2,2,1,7.080861e-01,NaN,1,1,2,1
18,335,2,18,57,2,1,0,9.093862e-01,NaN,1,0,1,1
18,336,2,25,11,1,1,1,1.070026e+00,NaN,1,0,1,1
18,337,2,87,22,1,2,0,7.521651e-01,NaN,1,0,2,1
18,338,3,137,56,1,1,1,1.955222e+00,NaN,1,0,3,1
18,339,3,113,17,2,1,0,1.129780e+00,NaN,1,0,3,1
18,340,3,121,40,2,2,1,1.305793e+00,NaN,1,0,3,1
18,341,3,89,8,2,2,1,1.890475e+00,NaN,1,0,2,1
18,342,3,18,57,2,2,1,8.043055e-01,NaN,1,0,1,1
18,343,3,57,9,1,1,1,8.487065e-01,NaN,1,0,2,1
18,344,3,87,22,2,2,1,8.840163e-01,NaN,1,0,2,1
18,345,3,58,70,2,2,1,9.662445e-01,NaN,1,0,2,1
18,346,3,123,16,2,2,1,1.108602e+00,NaN,1,0,3,1
18,347,3,50,25,1,1,1,5.974200e-01,NaN,1,0,2,1
18,348,3,64,65,1,1,1,8.908546e-01,NaN,1,1,2,1
18,349,3,79,37,1,1,1,8.362451e-01,NaN,1,1,2,1
18,350,3,133,41,2,2,1,9.126190e-01,NaN,1,0,3,1
18,351,3,118,23,2,2,1,1.737608e+00,NaN,1,0,3,1
18,352,3,131,53,1,1,1,6.493195e-01,NaN,1,0,3,1
18,353,3,82,21,1,1,1,8.844690e-01,NaN,1,1,2,1
18,354,3,25,11,2,2,1,1.022637e+00,NaN,1,0,1,1
18,355,3,107,72,2,2,1,2.171036e+00,NaN,1,0,3,1
18,356,3,44,2,2,1,0,1.721164e+00,NaN,1,0,1,1
18,357,3,111,29,1,2,0,7.373879e-01,NaN,1,0,3,1
18,358,3,108,59,1,2,0,8.886279e-01,NaN,1,0,3,1
18,359,3,51,33,1,1,1,9.624759e-01,NaN,1,0,2,1
18,360,3,67,5,2,2,1,9.928360e-01,NaN,1,0,2,1
18,361,3,129,30,1,2,0,7.189450e-01,NaN,1,1,3,1
18,386,2,127,1,1,1,1,1.534526e+00,NaN,1,0,3,2
18,387,2,26,54,1,1,1,1.486105e+00,NaN,1,0,1,2
18,388,2,71,69,1,1,1,1.039858e+00,NaN,1,0,2,2
18,389,2,132,38,1,1,1,1.467594e+00,NaN,1,0,3,2
18,390,2,36,34,1,2,0,1.477960e+00,NaN,1,0,1,2
18,391,2,101,28,2,1,0,1.104685e+00,NaN,1,0,3,2
18,392,2,7,32,2,1,0,1.385302e+00,NaN,1,0,1,2
18,393,2,126,42,2,1,0,1.135330e+00,NaN,1,0,3,2
18,394,2,2,39,2,2,1,9.191875e-01,NaN,1,0,1,2
18,395,2,41,19,1,2,0,1.079611e+00,NaN,1,1,1,2
18,396,2,72,26,2,2,1,1.409781e+00,NaN,1,0,2,2
18,397,2,29,49,1,1,1,8.785725e-01,NaN,1,1,1,2
18,398,2,80,51,1,1,1,1.048209e+00,NaN,1,0,2,2
18,399,2,90,63,1,2,0,1.235518e+00,NaN,1,0,2,2
18,400,2,139,47,2,0,0,3.499899e+00,NaN,1,0,3,2
18,401,2,3,6,1,1,1,2.566108e-01,NaN,1,0,1,2
18,402,2,120,62,2,1,0,1.211391e+00,NaN,1,1,3,2
18,403,2,48,43,2,1,0,9.204024e-01,NaN,1,1,1,2
18,404,2,73,36,1,2,0,6.167660e-01,NaN,1,0,2,2
18,405,2,19,71,2,2,1,7.491910e-01,NaN,1,0,1,2
18,406,2,76,64,2,2,1,7.806999e-01,NaN,1,0,2,2
18,407,2,1,20,1,1,1,1.338560e+00,NaN,1,1,1,2
18,408,2,14,48,2,2,1,1.281860e+00,NaN,1,0,1,2
18,409,2,17,35,1,2,0,1.051689e+00,NaN,1,0,1,2
18,410,3,73,36,1,1,1,9.685080e-01,NaN,1,0,2,2
18,411,3,7,32,2,2,1,9.267952e-01,NaN,1,0,1,2
18,412,3,72,26,1,2,0,6.313950e-01,NaN,1,0,2,2
18,413,3,120,62,2,1,0,1.443566e+00,NaN,1,1,3,2
18,414,3,127,1,1,2,0,1.319229e+00,NaN,1,0,3,2
18,415,3,90,63,2,2,1,7.196728e-01,NaN,1,0,2,2
18,416,3,3,6,2,2,1,1.000313e+00,NaN,1,0,1,2
18,417,3,29,49,2,2,1,6.852583e-01,NaN,1,1,1,2
18,418,3,36,34,1,2,0,9.111740e-01,NaN,1,0,1,2
18,419,3,126,42,2,2,1,1.415662e-04,NaN,1,0,3,2
18,420,3,19,71,1,1,1,1.029544e+00,NaN,1,0,1,2
18,421,3,71,69,2,2,1,7.696133e-01,NaN,1,0,2,2
18,422,3,26,54,1,1,1,1.056100e+00,NaN,1,0,1,2
18,423,3,132,38,2,2,1,2.274699e-01,NaN,1,0,3,2
18,424,3,48,43,2,2,1,9.037426e-01,NaN,1,1,1,2
18,425,3,14,48,1,1,1,8.244242e-01,NaN,1,0,1,2
18,426,3,101,28,1,2,0,8.365635e-01,NaN,1,0,3,2
18,427,3,17,35,1,2,0,9.682623e-01,NaN,1,0,1,2
18,428,3,80,51,1,1,1,3.508465e-01,NaN,1,0,2,2
18,429,3,139,47,1,2,0,6.783346e-01,NaN,1,0,3,2
18,430,3,41,19,1,2,0,5.364654e-01,NaN,1,1,1,2
18,431,3,2,39,1,1,1,3.681978e-01,NaN,1,0,1,2
18,432,3,1,20,1,2,0,7.428775e-01,NaN,1,1,1,2
18,433,3,76,64,1,1,1,1.062301e+00,NaN,1,0,2,2
18,458,2,95,7,2,2,1,8.472073e-01,NaN,1,0,2,3
18,459,2,88,15,2,1,0,8.100744e-01,NaN,1,1,2,3
18,460,2,15,13,1,2,0,2.549552e-01,NaN,1,0,1,3
18,461,2,142,61,1,2,0,3.861227e-01,NaN,1,0,3,3
18,462,2,77,10,1,2,0,2.481510e-01,NaN,1,1,2,3
18,463,2,37,3,2,2,1,2.272734e-01,NaN,1,1,1,3
18,464,2,98,4,2,2,1,2.078731e-01,NaN,1,0,3,3
18,465,2,13,52,2,2,1,3.332057e-01,NaN,1,0,1,3
18,466,2,115,18,2,1,0,7.888207e-01,NaN,1,1,3,3
18,467,2,85,31,1,1,1,7.624188e-01,NaN,1,0,2,3
18,468,2,62,66,2,1,0,1.617023e+00,NaN,1,1,2,3
18,469,2,4,68,1,2,0,9.173764e-01,NaN,1,1,1,3
18,470,2,52,45,1,1,1,6.300454e-01,NaN,1,0,2,3
18,471,2,75,58,1,1,1,5.138265e-01,NaN,1,1,2,3
18,472,2,102,27,1,1,1,2.506219e-01,NaN,1,0,3,3
18,473,2,68,12,1,2,0,1.442827e-04,NaN,1,0,2,3
18,474,2,112,46,2,1,0,3.398249e-01,NaN,1,0,3,3
18,475,2,31,67,1,1,1,2.859285e+00,NaN,1,0,1,3
18,476,2,21,24,2,1,0,1.533729e+00,NaN,1,0,1,3
18,477,2,22,14,1,2,0,5.339398e-01,NaN,1,1,1,3
18,478,2,34,60,1,1,1,1.045787e+00,NaN,1,0,1,3
18,479,2,143,55,2,1,0,8.735663e-01,NaN,1,0,3,3
18,480,2,45,44,1,2,0,2.753190e-01,NaN,1,1,1,3
18,481,2,109,50,2,1,0,7.784719e-02,NaN,1,0,3,3
18,482,3,95,7,2,2,1,9.609136e-01,NaN,1,0,2,3
18,483,3,45,44,1,2,0,6.963014e-01,NaN,1,1,1,3
18,484,3,102,27,1,2,0,5.050902e-01,NaN,1,0,3,3
18,485,3,98,4,1,1,1,2.101497e-01,NaN,1,0,3,3
18,486,3,21,24,2,1,0,4.954257e-01,NaN,1,0,1,3
18,487,3,13,52,1,2,0,3.602451e-01,NaN,1,0,1,3
18,488,3,68,12,1,1,1,1.415662e-04,NaN,1,0,2,3
18,489,3,115,18,2,1,0,7.248899e-01,NaN,1,1,3,3
18,490,3,112,46,1,1,1,1.157257e+00,NaN,1,0,3,3
18,491,3,75,58,1,1,1,1.708158e+00,NaN,1,1,2,3
18,492,3,142,61,1,1,1,1.189327e+00,NaN,1,0,3,3
18,493,3,109,50,2,2,1,6.509830e-01,NaN,1,0,3,3
18,494,3,31,67,2,2,1,1.910048e+00,NaN,1,0,1,3
18,495,3,77,10,2,2,1,3.110914e+00,NaN,1,1,2,3
18,496,3,34,60,1,2,0,8.632806e-01,NaN,1,0,1,3
18,497,3,52,45,1,2,0,5.142274e-01,NaN,1,0,2,3
18,498,3,4,68,2,2,1,3.065858e-01,NaN,1,1,1,3
18,499,3,22,14,1,1,1,4.363473e-01,NaN,1,1,1,3
18,500,3,143,55,1,2,0,1.183514e+00,NaN,1,0,3,3
18,501,3,88,15,1,1,1,1.637519e+00,NaN,1,1,2,3
18,502,3,62,66,1,1,1,5.687811e-01,NaN,1,1,2,3
18,503,3,37,3,1,0,0,3.500022e+00,NaN,1,1,1,3
18,504,3,15,13,2,1,0,7.287378e-01,NaN,1,0,1,3
18,505,3,85,31,2,1,0,3.603535e-01,NaN,1,0,2,3
18,530,4,84,17,1,2,0,1.358664e+00,NaN,2,0,2,1
18,531,4,11,1,1,1,1,3.257712e-01,NaN,2,0,1,1
18,532,4,125,24,2,1,0,9.343468e-01,NaN,2,0,3,1
18,533,4,138,67,2,1,0,7.103527e-01,NaN,2,0,3,1
18,534,4,16,53,2,2,1,2.706823e-01,NaN,2,0,1,1
18,535,4,81,28,2,2,1,1.448866e-04,NaN,2,0,2,1
18,536,4,119,12,2,2,1,1.451883e-04,NaN,2,0,3,1
18,537,4,105,65,2,1,0,2.200197e-01,NaN,2,1,3,1
18,538,4,78,40,1,1,1,6.725331e-01,NaN,2,0,2,1
18,539,4,20,46,1,1,1,1.400568e-04,NaN,2,0,1,1
18,540,4,53,32,1,1,1,1.623980e+00,NaN,2,0,2,1
18,541,4,94,61,1,1,1,1.479050e-04,NaN,2,0,2,1
18,542,4,49,35,1,1,1,8.978363e-01,NaN,2,0,2,1
18,543,4,124,14,2,1,0,4.111745e-01,NaN,2,1,3,1
18,544,4,69,13,2,2,1,4.238859e-01,NaN,2,0,2,1
18,545,4,114,21,2,2,1,3.563492e-01,NaN,2,1,3,1
18,546,4,74,55,2,2,1,3.483483e+00,NaN,2,0,2,1
18,547,4,33,26,2,2,1,3.489421e-01,NaN,2,0,1,1
18,548,4,60,6,2,2,1,9.319671e-01,NaN,2,0,2,1
18,549,4,23,50,1,2,0,1.962695e-01,NaN,2,0,1,1
18,550,4,104,70,1,1,1,1.193605e+00,NaN,2,0,3,1
18,551,4,6,72,2,1,0,1.374974e+00,NaN,2,0,1,1
18,552,4,35,8,2,1,0,1.617899e-04,NaN,2,0,1,1
18,553,4,63,19,2,1,0,1.064556e-01,NaN,2,1,2,1
18,578,4,110,64,1,1,1,2.723509e-01,NaN,2,0,3,2
18,579,4,30,31,2,1,0,1.250669e+00,NaN,2,0,1,2
18,580,4,40,63,2,1,0,1.427736e-04,NaN,2,0,1,2
18,581,4,92,47,2,2,1,2.835878e-01,NaN,2,0,2,2
18,582,4,46,15,1,2,0,2.869172e+00,NaN,2,1,1,2
18,583,4,91,27,2,2,1,1.487511e+00,NaN,2,0,2,2
18,584,4,70,23,2,1,0,2.889954e-01,NaN,2,0,2,2
18,585,4,97,7,1,1,1,5.708004e-01,NaN,2,0,3,2
18,586,4,12,30,2,1,0,1.225259e+00,NaN,2,1,1,2
18,587,4,122,60,2,2,1,2.709376e+00,NaN,2,0,3,2
18,588,4,54,52,1,2,0,2.742234e+00,NaN,2,0,2,2
18,589,4,9,62,2,2,1,3.254699e-01,NaN,2,1,1,2
18,590,4,66,11,2,1,0,7.098081e-01,NaN,2,0,2,2
18,591,4,99,10,2,2,1,1.439808e-04,NaN,2,1,3,2
18,592,4,144,49,1,2,0,1.972315e+00,NaN,2,1,3,2
18,593,4,38,36,1,2,0,1.458653e+00,NaN,2,0,1,2
18,594,4,43,9,1,2,0,7.012616e-01,NaN,2,0,1,2
18,595,4,128,39,2,1,0,2.545489e-01,NaN,2,0,3,2
18,596,4,141,44,1,2,0,1.441348e+00,NaN,2,1,3,2
18,597,4,59,3,1,2,0,1.253176e+00,NaN,2,1,2,2
18,598,4,103,69,1,2,0,7.444840e-01,NaN,2,0,3,2
18,599,4,116,45,1,1,1,3.279451e-01,NaN,2,0,3,2
18,600,4,10,42,2,1,0,1.677945e-01,NaN,2,0,1,2
18,601,4,61,20,1,1,1,1.686413e+00,NaN,2,1,2,2
18,626,4,130,43,2,1,0,7.321161e-01,NaN,2,1,3,3
18,627,4,39,37,2,1,0,2.761032e-01,NaN,2,1,1,3
18,628,4,24,38,1,2,0,2.306288e-01,NaN,2,0,1,3
18,629,4,96,41,2,1,0,2.344142e-01,NaN,2,0,2,3
18,630,4,106,25,1,2,0,3.026702e-01,NaN,2,0,3,3
18,631,4,100,33,1,1,1,8.720019e-01,NaN,2,0,3,3
18,632,4,83,29,2,1,0,3.144136e-01,NaN,2,0,2,3
18,633,4,47,58,1,2,0,4.346941e-01,NaN,2,1,1,3
18,634,4,27,56,1,2,0,1.424716e-04,NaN,2,0,1,3
18,635,4,42,51,1,2,0,1.708167e+00,NaN,2,0,1,3
18,636,4,65,68,2,1,0,3.008875e-01,NaN,2,1,2,3
18,637,4,55,2,1,0,0,3.499803e+00,NaN,2,0,2,3
18,638,4,140,34,2,2,1,1.673125e-01,NaN,2,0,3,3
18,639,4,56,54,2,2,1,2.158094e+00,NaN,2,0,2,3
18,640,4,86,16,2,2,1,1.196472e+00,NaN,2,0,2,3
18,641,4,135,57,1,1,1,2.337491e+00,NaN,2,0,3,3
18,642,4,8,4,2,0,0,3.499723e+00,NaN,2,0,1,3
18,643,4,93,18,1,1,1,1.297749e+00,NaN,2,1,2,3
18,644,4,134,48,2,2,1,1.349256e-04,NaN,2,0,3,3
18,645,4,28,22,1,0,0,3.499803e+00,NaN,2,0,1,3
18,646,4,32,5,1,2,0,1.481122e+00,NaN,2,0,1,3
18,647,4,5,59,2,2,1,2.290993e+00,NaN,2,0,1,3
18,648,4,136,71,2,0,0,3.499524e+00,NaN,2,0,3,3
18,649,4,117,66,1,0,0,3.500066e+00,NaN,2,1,3,3
18,650,5,1.935000e+01,57,1,1,1,1.570999e+00,1,1,0,1.300000e+00,1
18,651,5,2.225000e+01,24,1,2,0,1.448864e-04,1,1,0,1.300000e+00,1
18,652,5,1.354000e+01,52,1,0,0,2.500616e+00,1,1,0,1.200000e+00,1
18,653,5,8.728000e+01,22,2,0,0,2.500150e+00,1,1,0,2.100000e+00,1
18,654,5,8.935000e+01,8,2,1,0,1.386733e+00,1,1,0,2.100000e+00,1
18,655,5,1.437400e+02,55,3,1,0,4.840491e-01,1,1,0,3.200000e+00,1
18,656,5,1.339600e+02,41,3,3,1,3.650601e-01,1,1,0,3.200000e+00,1
18,657,5,1.029100e+02,27,3,1,0,5.506048e-01,1,1,0,3.200000e+00,1
18,658,5,8.042000e+01,51,2,1,0,3.041997e-01,1,1,0,2.100000e+00,1
18,659,5,5.904000e+01,70,2,2,1,4.652525e-01,1,1,0,2.300000e+00,1
18,660,5,1.018100e+02,28,3,2,0,2.666635e-02,1,1,0,3.200000e+00,1
18,661,5,8.042000e+01,51,2,1,0,4.676144e-01,2,1,0,2.100000e+00,1
18,662,5,2.566000e+01,11,1,3,0,1.427735e-04,1,1,0,1.200000e+00,1
18,663,5,1.569000e+01,13,1,2,0,3.751521e-01,1,1,0,1.200000e+00,1
18,664,5,4.455000e+01,2,1,1,1,6.162607e-01,1,1,0,1.200000e+00,1
18,665,5,3.740000e+01,34,1,3,0,1.617975e+00,1,1,0,1.300000e+00,1
18,666,5,5.106000e+01,25,2,2,1,3.954513e-01,1,1,0,2.300000e+00,1
18,667,5,7.233000e+01,26,2,2,1,2.289115e-01,1,1,0,2.100000e+00,1
18,668,5,1.217800e+02,40,3,2,0,2.701052e-01,1,1,0,3.200000e+00,1
18,669,5,1.311600e+02,53,3,1,0,5.438220e-01,1,1,0,3.100000e+00,1
18,670,5,2.225000e+01,24,1,1,1,3.850826e-01,2,1,0,1.300000e+00,1
18,671,5,1.138400e+02,17,3,1,0,4.419710e-01,1,1,0,3.200000e+00,1
18,672,5,3.238000e+01,67,1,2,0,3.238104e-01,1,1,0,1.300000e+00,1
18,673,5,1.238600e+02,16,3,2,0,4.849775e-01,1,1,0,3.200000e+00,1
18,674,5,7.203000e+01,69,2,2,1,3.103048e-01,1,1,0,2.300000e+00,1
18,675,5,1.092300e+02,50,3,2,0,6.559967e-01,1,1,0,3.100000e+00,1
18,676,5,1.092300e+02,50,3,1,0,6.009954e-01,2,1,0,3.100000e+00,1
18,677,5,5.316000e+01,45,2,0,0,2.500620e+00,1,1,0,2.300000e+00,1
18,678,5,7.530000e+00,32,1,2,0,4.284486e-01,1,1,0,1.200000e+00,1
18,679,5,1.429400e+02,61,3,2,0,3.895369e-01,1,1,0,3.200000e+00,1
18,680,5,3.238000e+01,67,1,1,1,6.867217e-01,2,1,0,1.300000e+00,1
18,681,5,6.919000e+01,12,2,2,1,5.123692e-01,1,1,0,2.300000e+00,1
18,682,5,2.036000e+01,71,1,0,0,2.500302e+00,1,1,0,1.300000e+00,1
18,683,5,1.569000e+01,13,1,0,0,2.500576e+00,2,1,0,1.200000e+00,1
18,684,5,1.238600e+02,16,3,2,0,5.892538e-01,2,1,0,3.200000e+00,1
18,685,5,3.740000e+01,34,1,2,0,1.822492e+00,2,1,0,1.300000e+00,1
18,686,5,9.040000e+01,63,2,1,0,5.847116e-01,1,1,0,2.100000e+00,1
18,687,5,1.437400e+02,55,3,3,1,6.263034e-01,2,1,0,3.200000e+00,1
18,688,5,6.732000e+01,5,2,3,0,5.233728e-01,1,1,0,2.100000e+00,1
18,689,5,1.187000e+02,23,3,1,0,3.565562e-01,1,1,0,3.200000e+00,1
18,690,5,1.322400e+02,38,3,2,0,2.936710e-01,1,1,0,3.100000e+00,1
18,691,5,1.311600e+02,53,3,0,0,2.500411e+00,2,1,0,3.100000e+00,1
18,692,5,1.372700e+02,56,3,2,0,9.132269e-01,1,1,0,3.100000e+00,1
18,693,5,9.040000e+01,63,2,2,1,1.522624e+00,2,1,0,2.100000e+00,1
18,694,5,1.271100e+02,1,3,2,0,2.684281e-01,1,1,0,3.100000e+00,1
18,695,5,1.018100e+02,28,3,3,1,3.498552e-01,2,1,0,3.200000e+00,1
18,696,5,2.225000e+01,24,1,3,0,2.472237e-01,3,1,0,1.300000e+00,1
18,697,5,1.122000e+02,46,3,3,1,3.245909e-02,1,1,0,3.100000e+00,1
18,698,5,1.122000e+02,46,3,3,1,2.180644e-01,2,1,0,3.100000e+00,1
18,699,5,52,33,2,3,0,2.515549e-01,1,1,0,2.300000e+00,1
18,700,5,1.217800e+02,40,3,3,1,3.573513e-01,2,1,0,3.200000e+00,1
18,701,5,2.036000e+01,71,1,3,0,3.498585e-01,2,1,0,1.300000e+00,1
18,702,5,1.322400e+02,38,3,2,0,4.473777e-01,2,1,0,3.100000e+00,1
18,703,5,6.732000e+01,5,2,3,0,3.049591e-01,2,1,0,2.100000e+00,1
18,704,5,1.749000e+01,35,1,3,0,1.479050e-04,1,1,0,1.200000e+00,1
18,705,5,6.919000e+01,12,2,2,1,1.236108e-01,2,1,0,2.300000e+00,1
18,706,5,5.743000e+01,9,2,2,1,7.967678e-01,1,1,0,2.100000e+00,1
18,707,5,7.233000e+01,26,2,2,1,1.077997e+00,2,1,0,2.100000e+00,1
18,708,5,4.455000e+01,2,1,2,0,1.430755e-04,2,1,0,1.200000e+00,1
18,709,5,7.203000e+01,69,2,3,0,9.642013e-02,2,1,0,2.300000e+00,1
18,710,5,8.530000e+01,31,2,2,1,1.421699e-04,1,1,0,2.100000e+00,1
18,711,5,3.280000e+00,39,1,2,0,7.551875e-02,1,1,0,1.300000e+00,1
18,712,5,3.280000e+00,39,1,3,0,9.976474e-01,2,1,0,1.300000e+00,1
18,713,5,1.372700e+02,56,3,2,0,4.627338e-01,2,1,0,3.100000e+00,1
18,714,5,3.522000e+01,60,1,3,0,1.391671e+00,1,1,0,1.300000e+00,1
18,715,5,1.935000e+01,57,1,3,0,5.375565e-01,2,1,0,1.300000e+00,1
18,716,5,1.271100e+02,1,3,3,1,1.675250e-04,2,1,0,3.100000e+00,1
18,717,5,1.322400e+02,38,3,3,1,8.435290e-02,3,1,0,3.100000e+00,1
18,718,5,1.749000e+01,35,1,3,0,5.355366e-02,2,1,0,1.200000e+00,1
18,719,5,6.919000e+01,12,2,3,0,1.491123e-04,3,1,0,2.300000e+00,1
18,720,5,2.036000e+01,71,1,2,0,1.320675e+00,3,1,0,1.300000e+00,1
18,721,5,5.106000e+01,25,2,2,1,1.129773e+00,2,1,0,2.300000e+00,1
18,722,5,1.080500e+02,59,3,2,0,9.473157e-01,1,1,0,3.100000e+00,1
18,723,5,1.935000e+01,57,1,3,0,1.924462e+00,3,1,0,1.300000e+00,1
18,724,5,4.455000e+01,2,1,3,0,6.499667e-03,3,1,0,1.200000e+00,1
18,725,5,1.534000e+01,48,1,3,0,2.879540e-01,1,1,0,1.300000e+00,1
18,726,5,1.261000e+02,42,3,3,1,1.448866e-04,1,1,0,3.100000e+00,1
18,727,5,9.040000e+01,63,2,0,0,2.500110e+00,3,1,0,2.100000e+00,1
18,728,5,1.372700e+02,56,3,0,0,2.500065e+00,3,1,0,3.100000e+00,1
18,729,5,8.530000e+01,31,2,0,0,2.500434e+00,2,1,0,2.100000e+00,1
18,730,5,7.203000e+01,69,2,3,0,1.430754e-04,3,1,0,2.300000e+00,1
18,731,5,1.118300e+02,29,3,1,0,3.063473e-01,1,1,0,3.200000e+00,1
18,732,5,1.437400e+02,55,3,3,1,1.473012e-04,3,1,0,3.200000e+00,1
18,733,5,2.566000e+01,11,1,0,0,2.500609e+00,2,1,0,1.200000e+00,1
18,734,5,1.138400e+02,17,3,3,1,1.427735e-04,2,1,0,3.200000e+00,1
18,735,5,1.399200e+02,47,3,1,0,3.683183e-01,1,1,0,3.200000e+00,1
18,736,5,5.904000e+01,70,2,3,0,4.418186e-01,2,1,0,2.300000e+00,1
18,737,5,9.808000e+01,4,3,3,1,1.723683e+00,1,1,0,3.100000e+00,1
18,738,5,7.530000e+00,32,1,3,0,1.445526e+00,2,1,0,1.200000e+00,1
18,739,5,1.354000e+01,52,1,3,0,1.798792e+00,2,1,0,1.200000e+00,1
18,740,5,6.919000e+01,12,2,3,0,2.320672e+00,4,1,0,2.300000e+00,1
18,741,5,5.316000e+01,45,2,3,0,5.704261e-01,2,1,0,2.300000e+00,1
18,742,5,5.106000e+01,25,2,2,1,3.880977e-01,3,1,0,2.300000e+00,1
18,743,5,1.118300e+02,29,3,2,0,1.632991e-04,2,1,0,3.200000e+00,1
18,744,5,3.600000e+00,6,1,2,0,1.702759e+00,1,1,0,1.200000e+00,1
18,745,5,1.372700e+02,56,3,2,0,3.851109e-01,4,1,0,3.100000e+00,1
18,746,5,5.743000e+01,9,2,0,0,2.500329e+00,2,1,0,2.100000e+00,1
18,747,5,8.042000e+01,51,2,3,0,5.162283e-01,3,1,0,2.100000e+00,1
18,748,5,5.106000e+01,25,2,2,1,1.805581e+00,4,1,0,2.300000e+00,1
18,749,5,1.187000e+02,23,3,0,0,2.500345e+00,2,1,0,3.200000e+00,1
18,750,5,7.338000e+01,36,2,3,0,1.041512e+00,1,1,0,2.100000e+00,1
18,751,5,2.656000e+01,54,1,2,0,4.665109e-01,1,1,0,1.200000e+00,1
18,752,5,1.569000e+01,13,1,2,0,9.245615e-01,3,1,0,1.200000e+00,1
18,753,5,1.070600e+02,72,3,2,0,2.221834e+00,1,1,0,3.100000e+00,1
18,754,5,1.080500e+02,59,3,2,0,1.439810e-04,2,1,0,3.100000e+00,1
18,755,5,1.187000e+02,23,3,2,0,4.337638e-01,3,1,0,3.200000e+00,1
18,756,5,52,33,2,0,0,2.500250e+00,2,1,0,2.300000e+00,1
18,757,5,1.138400e+02,17,3,3,1,5.171946e-01,3,1,0,3.200000e+00,1
18,758,5,7.203000e+01,69,2,0,0,2.500390e+00,4,1,0,2.300000e+00,1
18,759,5,52,33,2,3,0,2.248155e+00,3,1,0,2.300000e+00,1
18,760,5,8.728000e+01,22,2,3,0,5.541017e-01,2,1,0,2.100000e+00,1
18,761,5,1.271100e+02,1,3,1,0,1.123413e+00,3,1,0,3.100000e+00,1
18,762,5,1.187000e+02,23,3,2,0,1.620658e+00,4,1,0,3.200000e+00,1
18,763,5,1.070600e+02,72,3,3,1,2.334559e+00,2,1,0,3.100000e+00,1
18,764,5,1.029100e+02,27,3,2,0,1.248976e+00,2,1,0,3.200000e+00,1
18,765,5,5.904000e+01,70,2,2,1,1.249827e+00,3,1,0,2.300000e+00,1
18,766,5,3.740000e+01,34,1,3,0,1.483067e+00,3,1,0,1.300000e+00,1
18,767,5,1.534000e+01,48,1,1,1,1.007827e-01,2,1,0,1.300000e+00,1
18,768,5,3.522000e+01,60,1,2,0,7.818828e-01,2,1,0,1.300000e+00,1
18,769,5,1.092300e+02,50,3,3,1,1.511365e+00,3,1,0,3.100000e+00,1
18,770,5,5.316000e+01,45,2,3,0,2.041022e+00,3,1,0,2.300000e+00,1
18,771,5,1.238600e+02,16,3,3,1,7.789694e-01,3,1,0,3.200000e+00,1
18,772,5,7.710000e+01,64,2,3,0,3.483424e-01,1,1,0,2.300000e+00,1
18,773,5,5.316000e+01,45,2,2,1,1.510215e+00,4,1,0,2.300000e+00,1
18,774,5,8.728000e+01,22,2,3,0,4.715764e-01,3,1,0,2.100000e+00,1
18,775,5,7.338000e+01,36,2,3,0,6.488933e-01,2,1,0,2.100000e+00,1
18,776,5,52,33,2,0,0,2.500518e+00,4,1,0,2.300000e+00,1
18,777,5,7.530000e+00,32,1,2,0,8.444469e-01,3,1,0,1.200000e+00,1
18,778,5,1.261000e+02,42,3,2,0,1.642047e-04,2,1,0,3.100000e+00,1
18,779,5,1.029100e+02,27,3,1,0,7.990980e-01,3,1,0,3.200000e+00,1
18,780,5,1.238600e+02,16,3,2,0,9.524151e-01,4,1,0,3.200000e+00,1
18,781,5,3.600000e+00,6,1,0,0,2.500431e+00,2,1,0,1.200000e+00,1
18,782,5,1.749000e+01,35,1,3,0,1.460652e+00,3,1,0,1.200000e+00,1
18,783,5,1.261000e+02,42,3,2,0,5.250139e-01,3,1,0,3.100000e+00,1
18,784,5,3.238000e+01,67,1,1,1,1.457919e-04,3,1,0,1.300000e+00,1
18,785,5,1.569000e+01,13,1,0,0,2.500186e+00,4,1,0,1.200000e+00,1
18,786,5,8.042000e+01,51,2,1,0,1.218536e+00,4,1,0,2.100000e+00,1
18,787,5,1.399200e+02,47,3,1,0,4.519093e-01,2,1,0,3.200000e+00,1
18,788,5,2.656000e+01,54,1,3,0,8.532092e-01,2,1,0,1.200000e+00,1
18,789,5,1.311600e+02,53,3,3,1,1.524326e-04,3,1,0,3.100000e+00,1
18,790,5,1.118300e+02,29,3,3,1,1.494142e-04,3,1,0,3.200000e+00,1
18,791,5,7.710000e+01,64,2,3,0,5.055107e-01,2,1,0,2.300000e+00,1
18,792,5,8.530000e+01,31,2,2,1,2.298818e+00,3,1,0,2.100000e+00,1
18,793,5,1.261000e+02,42,3,2,0,6.767173e-01,4,1,0,3.100000e+00,1
18,794,5,6.732000e+01,5,2,2,1,1.566001e+00,3,1,0,2.100000e+00,1
18,795,5,1.018100e+02,28,3,0,0,2.500114e+00,3,1,0,3.200000e+00,1
18,796,5,3.600000e+00,6,1,3,0,2.659862e-01,3,1,0,1.200000e+00,1
18,797,5,1.080500e+02,59,3,3,1,1.731484e+00,3,1,0,3.100000e+00,1
18,798,5,3.740000e+01,34,1,3,0,2.937250e-01,4,1,0,1.300000e+00,1
18,799,5,9.597000e+01,7,2,3,0,1.158821e+00,1,1,0,2.300000e+00,1
18,800,5,8.935000e+01,8,2,3,0,1.488115e+00,2,1,0,2.100000e+00,1
18,801,5,1.354000e+01,52,1,0,0,2.500459e+00,3,1,0,1.200000e+00,1
18,802,5,3.600000e+00,6,1,3,0,1.595471e+00,4,1,0,1.200000e+00,1
18,803,5,1.029100e+02,27,3,2,0,9.173945e-01,4,1,0,3.200000e+00,1
18,804,5,1.339600e+02,41,3,3,1,1.518908e+00,2,1,0,3.200000e+00,1
18,805,5,3.522000e+01,60,1,3,0,4.327940e-01,3,1,0,1.300000e+00,1
18,806,5,1.092300e+02,50,3,2,0,1.010229e+00,4,1,0,3.100000e+00,1
18,807,5,9.808000e+01,4,3,3,1,4.516793e-01,2,1,0,3.100000e+00,1
18,808,5,7.338000e+01,36,2,3,0,3.007644e-01,3,1,0,2.100000e+00,1
18,809,5,7.233000e+01,26,2,0,0,2.500590e+00,3,1,0,2.100000e+00,1
18,810,5,1.399200e+02,47,3,0,0,2.500248e+00,3,1,0,3.200000e+00,1
18,811,5,2.566000e+01,11,1,0,0,2.500209e+00,3,1,0,1.200000e+00,1
18,812,5,3.522000e+01,60,1,2,0,8.198162e-01,4,1,0,1.300000e+00,1
18,813,5,4.455000e+01,2,1,0,0,2.500629e+00,4,1,0,1.200000e+00,1
18,814,5,2.656000e+01,54,1,2,0,5.676504e-01,3,1,0,1.200000e+00,1
18,815,5,9.597000e+01,7,2,2,1,3.848827e-01,2,1,0,2.300000e+00,1
18,816,5,1.138400e+02,17,3,2,0,1.448864e-04,4,1,0,3.200000e+00,1
18,817,5,2.566000e+01,11,1,0,0,2.500374e+00,4,1,0,1.200000e+00,1
18,818,5,7.710000e+01,64,2,2,1,2.437422e+00,3,1,0,2.300000e+00,1
18,819,5,3.280000e+00,39,1,2,0,4.475784e-01,3,1,0,1.300000e+00,1
18,820,5,5.904000e+01,70,2,2,1,7.686082e-01,4,1,0,2.300000e+00,1
18,821,5,1.080500e+02,59,3,0,0,2.500368e+00,4,1,0,3.100000e+00,1
18,822,5,8.530000e+01,31,2,0,0,2.500326e+00,4,1,0,2.100000e+00,1
18,823,5,8.935000e+01,8,2,2,1,6.697368e-01,3,1,0,2.100000e+00,1
18,824,5,1.322400e+02,38,3,0,0,2.500511e+00,4,1,0,3.100000e+00,1
18,825,5,1.339600e+02,41,3,0,0,2.500496e+00,3,1,0,3.200000e+00,1
18,826,5,1.271100e+02,1,3,0,0,2.500212e+00,4,1,0,3.100000e+00,1
18,827,5,2.225000e+01,24,1,0,0,2.500305e+00,4,1,0,1.300000e+00,1
18,828,5,2.036000e+01,71,1,1,1,2.255015e+00,4,1,0,1.300000e+00,1
18,829,5,1.122000e+02,46,3,0,0,2.500093e+00,3,1,0,3.100000e+00,1
18,830,5,8.728000e+01,22,2,2,1,8.911299e-01,4,1,0,2.100000e+00,1
18,831,5,7.530000e+00,32,1,0,0,2.500260e+00,4,1,0,1.200000e+00,1
18,832,5,9.808000e+01,4,3,0,0,2.500350e+00,3,1,0,3.100000e+00,1
18,833,5,1.749000e+01,35,1,0,0,2.500090e+00,4,1,0,1.200000e+00,1
18,834,5,9.808000e+01,4,3,3,1,2.338235e+00,4,1,0,3.100000e+00,1
18,835,5,1.217800e+02,40,3,2,0,6.201904e-01,3,1,0,3.200000e+00,1
18,836,5,7.338000e+01,36,2,0,0,2.500197e+00,4,1,0,2.100000e+00,1
18,837,5,1.935000e+01,57,1,2,0,1.915541e-01,4,1,0,1.300000e+00,1
18,838,5,5.743000e+01,9,2,3,0,1.017057e+00,3,1,0,2.100000e+00,1
18,839,5,1.399200e+02,47,3,0,0,2.500577e+00,4,1,0,3.200000e+00,1
18,840,5,3.280000e+00,39,1,2,0,1.451883e-04,4,1,0,1.300000e+00,1
18,841,5,9.040000e+01,63,2,0,0,2.500296e+00,4,1,0,2.100000e+00,1
18,842,5,2.656000e+01,54,1,0,0,2.500242e+00,4,1,0,1.200000e+00,1
18,843,5,1.437400e+02,55,3,0,0,2.500069e+00,4,1,0,3.200000e+00,1
18,844,5,7.233000e+01,26,2,0,0,2.500567e+00,4,1,0,2.100000e+00,1
18,845,5,1.339600e+02,41,3,0,0,2.500459e+00,4,1,0,3.200000e+00,1
18,846,5,9.597000e+01,7,2,0,0,2.500123e+00,3,1,0,2.300000e+00,1
18,847,5,1.354000e+01,52,1,3,0,1.785122e-02,4,1,0,1.200000e+00,1
18,848,5,6.732000e+01,5,2,2,1,1.645066e-04,4,1,0,2.100000e+00,1
18,849,5,1.429400e+02,61,3,2,0,1.892753e+00,2,1,0,3.200000e+00,1
18,850,5,1.534000e+01,48,1,2,0,1.473012e-04,3,1,0,1.300000e+00,1
18,851,5,1.429400e+02,61,3,0,0,2.500009e+00,3,1,0,3.200000e+00,1
18,852,5,1.534000e+01,48,1,0,0,2.500221e+00,4,1,0,1.300000e+00,1
18,853,5,1.122000e+02,46,3,2,0,6.052330e-02,4,1,0,3.100000e+00,1
18,854,5,3.238000e+01,67,1,2,0,1.479049e-04,4,1,0,1.300000e+00,1
18,855,5,1.118300e+02,29,3,0,0,2.500596e+00,4,1,0,3.200000e+00,1
18,856,5,5.743000e+01,9,2,2,1,3.296324e-01,4,1,0,2.100000e+00,1
18,857,5,1.070600e+02,72,3,0,0,2.500613e+00,3,1,0,3.100000e+00,1
18,858,5,1.429400e+02,61,3,2,0,1.445846e-04,4,1,0,3.200000e+00,1
18,859,5,1.070600e+02,72,3,0,0,2.500602e+00,4,1,0,3.100000e+00,1
18,860,5,8.935000e+01,8,2,0,0,2.500629e+00,4,1,0,2.100000e+00,1
18,861,5,1.217800e+02,40,3,2,0,1.498345e+00,4,1,0,3.200000e+00,1
18,862,5,7.710000e+01,64,2,0,0,2.500195e+00,4,1,0,2.300000e+00,1
18,863,5,1.018100e+02,28,3,2,0,2.429796e+00,4,1,0,3.200000e+00,1
18,864,5,1.311600e+02,53,3,2,0,4.553265e-01,4,1,0,3.100000e+00,1
18,865,5,9.597000e+01,7,2,3,0,3.446496e-01,4,1,0,2.300000e+00,1
18,866,6,105,65,2,1,0,4.413438e-01,NaN,2,1,3,1
18,867,6,84,17,1,1,1,1.433772e-04,NaN,2,0,2,1
18,868,6,23,50,2,1,0,3.173276e-01,NaN,2,0,1,1
18,869,6,97,7,1,2,0,8.632685e-01,NaN,2,0,3,1
18,870,6,63,19,2,1,0,7.552041e-01,NaN,2,1,2,1
18,871,6,66,11,1,1,1,8.911607e-01,NaN,2,0,2,1
18,872,6,110,64,1,1,1,7.657473e-01,NaN,2,0,3,1
18,873,6,6,72,1,1,1,8.213490e-01,NaN,2,0,1,1
18,874,6,11,1,1,1,1,1.099156e+00,NaN,2,0,1,1
18,875,6,78,40,2,1,0,8.293476e-01,NaN,2,0,2,1
18,876,6,140,34,1,1,1,8.505354e-01,NaN,2,0,3,1
18,877,6,138,67,1,1,1,7.829782e-01,NaN,2,0,3,1
18,878,6,119,12,2,1,0,8.062922e-01,NaN,2,0,3,1
18,879,6,42,51,2,1,0,8.761221e-01,NaN,2,0,1,1
18,880,6,124,14,2,2,1,8.798499e-01,NaN,2,1,3,1
18,881,6,69,13,2,2,1,6.823865e-01,NaN,2,0,2,1
18,882,6,55,2,2,2,1,7.494696e-01,NaN,2,0,2,1
18,883,6,61,20,2,2,1,7.181826e-01,NaN,2,1,2,1
18,884,6,60,6,2,2,1,9.354639e-01,NaN,2,0,2,1
18,885,6,91,27,2,1,0,7.766047e-01,NaN,2,0,2,1
18,886,6,27,56,2,1,0,1.087906e+00,NaN,2,0,1,1
18,887,6,81,28,1,1,1,6.670893e-01,NaN,2,0,2,1
18,888,6,116,45,2,1,0,9.343323e-01,NaN,2,0,3,1
18,889,6,134,48,1,1,1,6.874111e-01,NaN,2,0,3,1
18,890,6,114,21,2,1,0,1.258395e+00,NaN,2,1,3,1
18,891,6,136,71,2,1,0,7.188653e-01,NaN,2,0,3,1
18,892,6,47,58,1,1,1,6.964185e-01,NaN,2,1,1,1
18,893,6,93,18,2,2,1,7.707154e-01,NaN,2,1,2,1
18,894,6,96,41,1,1,1,4.024116e-01,NaN,2,0,2,1
18,895,6,32,5,2,1,0,9.768903e-01,NaN,2,0,1,1
18,896,6,94,61,2,2,1,5.920450e-01,NaN,2,0,2,1
18,897,6,49,35,1,1,1,6.311115e-01,NaN,2,0,2,1
18,898,6,103,69,2,1,0,4.365058e-01,NaN,2,0,3,1
18,899,6,56,54,1,2,0,6.728627e-01,NaN,2,0,2,1
18,900,6,35,8,1,2,0,6.523926e-01,NaN,2,0,1,1
18,901,6,135,57,2,2,1,5.447818e-01,NaN,2,0,3,1
18,902,6,16,53,1,2,0,1.415662e-04,NaN,2,0,1,1
18,903,6,12,30,2,1,0,2.079927e-01,NaN,2,1,1,1
18,904,6,106,25,2,1,0,1.174517e+00,NaN,2,0,3,1
18,905,6,8,4,2,1,0,6.457526e-01,NaN,2,0,1,1
18,906,6,5,59,2,1,0,5.941607e-01,NaN,2,0,1,1
18,907,6,130,43,1,1,1,6.885699e-01,NaN,2,1,3,1
18,908,6,117,66,1,1,1,6.755651e-01,NaN,2,1,3,1
18,909,6,83,29,1,1,1,1.400569e-04,NaN,2,0,2,1
18,910,6,65,68,2,2,1,2.695748e-01,NaN,2,1,2,1
18,911,6,92,47,2,2,1,1.424716e-04,NaN,2,0,2,1
18,912,6,33,26,1,2,0,6.881600e-01,NaN,2,0,1,1
18,913,6,100,33,2,2,1,4.745840e-01,NaN,2,0,3,1
18,914,6,54,52,2,1,0,2.463393e-01,NaN,2,0,2,1
18,915,6,43,9,1,2,0,2.345790e-01,NaN,2,0,1,1
18,916,6,128,39,2,1,0,2.957181e-01,NaN,2,0,3,1
18,917,6,39,37,2,2,1,3.299798e-01,NaN,2,1,1,1
18,918,6,53,32,1,1,1,4.992033e-01,NaN,2,0,2,1
18,919,6,99,10,1,2,0,2.696240e-01,NaN,2,1,3,1
18,920,6,46,15,2,2,1,5.215762e-01,NaN,2,1,1,1
18,921,6,20,46,2,2,1,6.268362e-01,NaN,2,0,1,1
18,922,6,74,55,2,1,0,1.080578e+00,NaN,2,0,2,1
18,923,6,144,49,2,2,1,7.392382e-01,NaN,2,1,3,1
18,924,6,70,23,1,1,1,7.639664e-01,NaN,2,0,2,1
18,925,6,125,24,2,2,1,4.755373e-01,NaN,2,0,3,1
18,926,6,122,60,1,1,1,4.554364e-01,NaN,2,0,3,1
18,927,6,38,36,1,2,0,5.395825e-01,NaN,2,0,1,1
18,928,6,86,16,2,2,1,6.359021e-01,NaN,2,0,2,1
18,929,6,10,42,1,2,0,6.090191e-01,NaN,2,0,1,1
18,930,6,28,22,1,1,1,7.111619e-01,NaN,2,0,1,1
18,931,6,30,31,1,1,1,6.013008e-01,NaN,2,0,1,1
18,932,6,24,38,1,2,0,2.399353e-01,NaN,2,0,1,1
18,933,6,59,3,2,1,0,3.163487e-01,NaN,2,1,2,1
18,934,6,9,62,1,2,0,2.943172e-01,NaN,2,1,1,1
18,935,6,40,63,2,1,0,3.289403e-01,NaN,2,0,1,1
18,936,6,141,44,2,2,1,2.420494e-01,NaN,2,1,3,1
18,937,6,104,70,2,2,1,1.415662e-04,NaN,2,0,3,1
18,938,6,109,50,2,1,0,3.099417e-01,NaN,1,0,3,1
18,939,6,4,68,1,1,1,8.642661e-01,NaN,1,1,1,1
18,940,6,132,38,1,1,1,5.238826e-01,NaN,1,0,3,1
18,941,6,51,33,1,1,1,1.729766e-01,NaN,1,0,2,1
18,942,6,41,19,1,2,0,1.300371e+00,NaN,1,1,1,1
18,943,6,17,35,1,1,1,2.948011e-01,NaN,1,0,1,1
18,944,6,72,26,1,1,1,8.174796e-01,NaN,1,0,2,1
18,945,6,112,46,1,1,1,8.314216e-01,NaN,1,0,3,1
18,946,6,133,41,2,1,0,7.167437e-01,NaN,1,0,3,1
18,947,6,80,51,2,1,0,6.939645e-01,NaN,1,0,2,1
18,948,6,101,28,1,2,0,8.328647e-01,NaN,1,0,3,1
18,949,6,1,20,2,2,1,6.937508e-01,NaN,1,1,1,1
18,950,6,34,60,1,1,1,8.084423e-01,NaN,1,0,1,1
18,951,6,50,25,1,1,1,5.665148e-01,NaN,1,0,2,1
18,952,6,139,47,2,1,0,6.943632e-01,NaN,1,0,3,1
18,953,6,120,62,1,1,1,1.451883e-04,NaN,1,1,3,1
18,954,6,57,9,2,2,1,2.395124e-01,NaN,1,0,2,1
18,955,6,22,14,2,2,1,5.564081e-01,NaN,1,1,1,1
18,956,6,25,11,1,1,1,1.388573e+00,NaN,1,0,1,1
18,957,6,102,27,2,2,1,6.998810e-01,NaN,1,0,3,1
18,958,6,121,40,1,1,1,7.899795e-01,NaN,1,0,3,1
18,959,6,113,17,2,2,1,5.885034e-01,NaN,1,0,3,1
18,960,6,48,43,1,2,0,6.992184e-01,NaN,1,1,1,1
18,961,6,21,24,2,1,0,2.695281e-01,NaN,1,0,1,1
18,962,6,58,70,1,1,1,5.135096e-01,NaN,1,0,2,1
18,963,6,123,16,1,1,1,4.031499e-01,NaN,1,0,3,1
18,964,6,87,22,2,1,0,3.056175e-01,NaN,1,0,2,1
18,965,6,37,3,2,2,1,3.160547e-01,NaN,1,1,1,1
18,966,6,45,44,1,2,0,1.385476e-04,NaN,1,1,1,1
18,967,6,137,56,1,1,1,2.200813e-01,NaN,1,0,3,1
18,968,6,29,49,1,2,0,2.259326e-01,NaN,1,1,1,1
18,969,6,107,72,1,1,1,5.114893e-01,NaN,1,0,3,1
18,970,6,71,69,2,2,1,4.334161e-01,NaN,1,0,2,1
18,971,6,77,10,2,1,0,5.264954e-01,NaN,1,1,2,1
18,972,6,13,52,2,2,1,2.878269e-01,NaN,1,0,1,1
18,973,6,18,57,2,1,0,4.187294e-01,NaN,1,0,1,1
18,974,6,85,31,2,2,1,5.288069e-01,NaN,1,0,2,1
18,975,6,52,45,2,2,1,1.385855e+00,NaN,1,0,2,1
18,976,6,98,4,2,2,1,1.412643e-04,NaN,1,0,3,1
18,977,6,62,66,1,2,0,5.684656e-01,NaN,1,1,2,1
18,978,6,19,71,1,2,0,3.196102e-01,NaN,1,0,1,1
18,979,6,111,29,2,2,1,1.436791e-04,NaN,1,0,3,1
18,980,6,108,59,1,1,1,6.718041e-01,NaN,1,0,3,1
18,981,6,131,53,1,2,0,1.397551e-04,NaN,1,0,3,1
18,982,6,118,23,2,1,0,2.095924e-01,NaN,1,0,3,1
18,983,6,15,13,1,2,0,4.398825e-01,NaN,1,0,1,1
18,984,6,95,7,1,2,0,2.124500e-01,NaN,1,0,2,1
18,985,6,76,64,2,1,0,4.907848e-01,NaN,1,0,2,1
18,986,6,88,15,2,2,1,2.449758e-01,NaN,1,1,2,1
18,987,6,26,54,1,2,0,1.469994e-04,NaN,1,0,1,1
18,988,6,31,67,1,2,0,8.245835e-01,NaN,1,0,1,1
18,989,6,142,61,1,2,0,4.700917e-01,NaN,1,0,3,1
18,990,6,143,55,2,2,1,2.017082e-01,NaN,1,0,3,1
18,991,6,68,12,1,2,0,1.603842e-01,NaN,1,0,2,1
18,992,6,7,32,2,1,0,6.800988e-01,NaN,1,0,1,1
18,993,6,129,30,1,2,0,1.143848e-02,NaN,1,1,3,1
18,994,6,126,42,1,2,0,3.452641e-01,NaN,1,0,3,1
18,995,6,3,6,2,2,1,2.182298e-01,NaN,1,0,1,1
18,996,6,64,65,2,1,0,2.719443e-01,NaN,1,1,2,1
18,997,6,75,58,1,2,0,5.961927e-02,NaN,1,1,2,1
18,998,6,73,36,2,2,1,1.397550e-04,NaN,1,0,2,1
18,999,6,115,18,1,2,0,6.305709e-01,NaN,1,1,3,1
18,1000,6,44,2,1,1,1,3.870409e-01,NaN,1,0,1,1
18,1001,6,2,39,2,2,1,2.582290e-01,NaN,1,0,1,1
18,1002,6,89,8,2,2,1,8.782887e-01,NaN,1,0,2,1
18,1003,6,127,1,1,2,0,2.658546e-01,NaN,1,0,3,1
18,1004,6,36,34,1,2,0,4.455615e-01,NaN,1,0,1,1
18,1005,6,82,21,2,2,1,9.059590e-01,NaN,1,1,2,1
18,1006,6,14,48,2,2,1,5.720093e-01,NaN,1,0,1,1
18,1007,6,67,5,2,1,0,2.675552e-01,NaN,1,0,2,1
18,1008,6,79,37,1,2,0,3.353412e-01,NaN,1,1,2,1
18,1009,6,90,63,1,2,0,3.282789e-01,NaN,1,0,2,1
