Subject,Trial,Cond,ImageNum,CueNum,Correct,Resp,Accuracy,RT,CueRep,ImageType,Baseline,Category,Block
45,1,1,43,NaN,NaN,1,NaN,4.814511e-01,NaN,0,1,1,1
45,2,1,18,NaN,NaN,1,NaN,5.493672e-02,NaN,2,1,1,1
45,3,1,134,NaN,NaN,2,NaN,1.710773e+00,NaN,0,0,3,1
45,4,1,3,NaN,NaN,2,NaN,3.524420e+00,NaN,0,0,1,1
45,5,1,56,NaN,NaN,1,NaN,8.651675e-01,NaN,0,1,2,1
45,6,1,100,NaN,NaN,2,NaN,1.720363e+00,NaN,2,1,3,1
45,7,1,19,NaN,NaN,1,NaN,8.760792e-01,NaN,1,0,1,1
45,8,1,50,NaN,NaN,1,NaN,7.150500e-01,NaN,0,0,2,1
45,9,1,73,NaN,NaN,1,NaN,2.655161e+00,NaN,0,0,2,1
45,10,1,11,NaN,NaN,1,NaN,1.249646e-04,NaN,2,1,1,1
45,11,1,134,NaN,NaN,1,NaN,4.455693e+00,NaN,2,0,3,1
45,12,1,46,NaN,NaN,2,NaN,1.390087e+00,NaN,1,0,1,1
45,13,1,14,NaN,NaN,1,NaN,1.063284e+00,NaN,0,0,1,1
45,14,1,100,NaN,NaN,2,NaN,1.829608e+00,NaN,0,1,3,1
45,15,1,6,NaN,NaN,1,NaN,1.115962e+00,NaN,1,0,1,1
45,16,1,43,NaN,NaN,1,NaN,2.352932e+00,NaN,2,1,1,1
45,17,1,131,NaN,NaN,2,NaN,5.035361e+00,NaN,2,0,3,1
45,18,1,101,NaN,NaN,2,NaN,1.963236e+00,NaN,0,0,3,1
45,19,1,40,NaN,NaN,1,NaN,1.495841e-01,NaN,0,0,1,1
45,20,1,69,NaN,NaN,1,NaN,6.172543e-01,NaN,0,0,2,1
45,21,1,23,NaN,NaN,1,NaN,4.256891e-01,NaN,0,0,1,1
45,22,1,68,NaN,NaN,1,NaN,5.779793e-01,NaN,0,1,2,1
45,23,1,44,NaN,NaN,1,NaN,6.526000e-01,NaN,0,0,1,1
45,24,1,7,NaN,NaN,1,NaN,9.947820e-01,NaN,0,1,1,1
45,25,1,41,NaN,NaN,1,NaN,2.916186e+00,NaN,0,0,1,1
45,26,1,87,NaN,NaN,1,NaN,1.261720e-04,NaN,0,0,2,1
45,27,1,73,NaN,NaN,1,NaN,1.085230e-02,NaN,1,0,2,1
45,28,1,14,NaN,NaN,1,NaN,3.534566e-02,NaN,1,0,1,1
45,29,1,9,NaN,NaN,1,NaN,6.671318e-01,NaN,0,0,1,1
45,30,1,32,NaN,NaN,1,NaN,2.973779e-01,NaN,1,0,1,1
45,31,1,141,NaN,NaN,1,NaN,4.709036e-01,NaN,0,0,3,1
45,32,1,127,NaN,NaN,1,NaN,5.174514e-01,NaN,1,0,3,1
45,33,1,94,NaN,NaN,1,NaN,1.626326e+00,NaN,2,0,2,1
45,34,1,29,NaN,NaN,1,NaN,9.220146e-01,NaN,2,0,1,1
45,35,1,130,NaN,NaN,2,NaN,1.535822e+00,NaN,0,0,3,1
45,36,1,5,NaN,NaN,1,NaN,5.152407e-01,NaN,0,0,1,1
45,37,1,84,NaN,NaN,1,NaN,8.047779e-02,NaN,0,0,2,1
45,38,1,65,NaN,NaN,1,NaN,1.422297e+00,NaN,0,1,2,1
45,39,1,120,NaN,NaN,2,NaN,2.383105e+00,NaN,2,0,3,1
45,40,1,105,NaN,NaN,1,NaN,2.225612e+00,NaN,0,0,3,1
45,41,1,48,NaN,NaN,1,NaN,4.112726e-01,NaN,2,0,1,1
45,42,1,93,NaN,NaN,1,NaN,3.248801e-01,NaN,2,0,2,1
45,43,1,64,NaN,NaN,1,NaN,5.992939e-01,NaN,2,0,2,1
45,44,1,17,NaN,NaN,1,NaN,1.346558e+00,NaN,0,0,1,1
45,45,1,94,NaN,NaN,1,NaN,7.814035e-01,NaN,0,0,2,1
45,46,1,49,NaN,NaN,1,NaN,1.078754e+00,NaN,2,0,2,1
45,47,1,59,NaN,NaN,1,NaN,5.010974e-01,NaN,0,0,2,1
45,48,1,108,NaN,NaN,1,NaN,3.144344e-01,NaN,2,0,3,1
45,49,1,32,NaN,NaN,1,NaN,3.828688e-01,NaN,0,0,1,1
45,50,1,47,NaN,NaN,1,NaN,1.153427e+00,NaN,0,0,1,1
45,51,1,72,NaN,NaN,1,NaN,3.241593e-01,NaN,0,0,2,1
45,52,1,130,NaN,NaN,1,NaN,1.248613e+00,NaN,1,0,3,1
45,53,1,21,NaN,NaN,1,NaN,1.282849e-04,NaN,0,1,1,1
45,54,1,61,NaN,NaN,1,NaN,8.049267e+00,NaN,0,1,2,1
45,55,1,46,NaN,NaN,1,NaN,5.197029e-01,NaN,0,0,1,1
45,56,1,105,NaN,NaN,1,NaN,1.212527e+00,NaN,1,0,3,1
45,57,1,99,NaN,NaN,2,NaN,3.476904e+00,NaN,1,1,3,1
45,58,1,4,NaN,NaN,1,NaN,3.534572e-01,NaN,0,0,1,1
45,59,1,13,NaN,NaN,1,NaN,3.006968e-01,NaN,0,0,1,1
45,60,1,52,NaN,NaN,1,NaN,4.502081e-01,NaN,2,0,2,1
45,61,1,121,NaN,NaN,1,NaN,8.547806e-01,NaN,2,0,3,1
45,62,1,48,NaN,NaN,1,NaN,3.740389e-01,NaN,0,0,1,1
45,63,1,9,NaN,NaN,1,NaN,4.004867e-01,NaN,2,0,1,1
45,64,1,60,NaN,NaN,1,NaN,4.420060e-01,NaN,0,0,2,1
45,65,1,71,NaN,NaN,1,NaN,1.618292e+00,NaN,0,1,2,1
45,66,1,77,NaN,NaN,1,NaN,1.154978e+00,NaN,0,0,2,1
45,67,1,59,NaN,NaN,1,NaN,7.188747e-01,NaN,2,0,2,1
45,68,1,39,NaN,NaN,2,NaN,7.321843e-01,NaN,0,0,1,1
45,69,1,57,NaN,NaN,1,NaN,1.270775e-04,NaN,0,0,2,1
45,70,1,56,NaN,NaN,1,NaN,2.975624e-01,NaN,1,1,2,1
45,71,1,75,NaN,NaN,1,NaN,4.467492e-01,NaN,0,0,2,1
45,72,1,96,NaN,NaN,1,NaN,5.181137e-01,NaN,0,0,2,1
45,73,1,69,NaN,NaN,0,NaN,9.995118e+00,NaN,2,0,2,1
45,74,1,27,NaN,NaN,1,NaN,3.959240e-01,NaN,2,1,1,1
45,75,1,112,NaN,NaN,1,NaN,5.097743e-01,NaN,2,1,3,1
45,76,1,90,NaN,NaN,1,NaN,6.590218e-01,NaN,0,1,2,1
45,77,1,110,NaN,NaN,1,NaN,7.787321e-01,NaN,1,0,3,1
45,78,1,106,NaN,NaN,1,NaN,1.060780e+00,NaN,1,0,3,1
45,79,1,124,NaN,NaN,1,NaN,6.354937e-01,NaN,2,1,3,1
45,80,1,104,NaN,NaN,1,NaN,1.451030e+00,NaN,0,0,3,1
45,81,1,132,NaN,NaN,1,NaN,1.002836e+00,NaN,2,0,3,1
45,82,1,20,NaN,NaN,1,NaN,4.007644e-01,NaN,0,1,1,1
45,83,1,116,NaN,NaN,1,NaN,3.462385e-01,NaN,0,0,3,1
45,84,1,72,NaN,NaN,1,NaN,1.182328e-01,NaN,1,0,2,1
45,85,1,49,NaN,NaN,1,NaN,3.625584e-01,NaN,0,0,2,1
45,86,1,30,NaN,NaN,1,NaN,7.495061e-01,NaN,1,0,1,1
45,87,1,95,NaN,NaN,1,NaN,1.225880e+00,NaN,0,0,2,1
45,88,1,33,NaN,NaN,1,NaN,1.418528e+00,NaN,1,0,1,1
45,89,1,17,NaN,NaN,1,NaN,5.554941e-01,NaN,2,0,1,1
45,90,1,53,NaN,NaN,1,NaN,5.514994e-01,NaN,1,1,2,1
45,91,1,117,NaN,NaN,2,NaN,1.114547e+00,NaN,0,0,3,1
45,92,1,42,NaN,NaN,1,NaN,3.111407e-01,NaN,0,0,1,1
45,93,1,34,NaN,NaN,1,NaN,3.827819e-01,NaN,1,0,1,1
45,94,1,67,NaN,NaN,1,NaN,2.808893e-01,NaN,2,1,2,1
45,95,1,75,NaN,NaN,1,NaN,8.233916e-01,NaN,2,0,2,1
45,96,1,58,NaN,NaN,1,NaN,8.540399e-01,NaN,1,0,2,1
45,97,1,136,NaN,NaN,1,NaN,1.595484e+00,NaN,2,1,3,1
45,98,1,125,NaN,NaN,1,NaN,1.212803e+00,NaN,2,0,3,1
45,99,1,142,NaN,NaN,1,NaN,1.141755e+00,NaN,2,0,3,1
45,100,1,44,NaN,NaN,1,NaN,6.198040e-01,NaN,2,0,1,1
45,101,1,40,NaN,NaN,1,NaN,5.808848e-01,NaN,2,0,1,1
45,102,1,121,NaN,NaN,1,NaN,1.243609e-04,NaN,0,0,3,1
45,103,1,10,NaN,NaN,1,NaN,6.070565e-01,NaN,2,1,1,1
45,104,1,66,NaN,NaN,1,NaN,4.316485e-01,NaN,1,0,2,1
45,105,1,124,NaN,NaN,1,NaN,9.282519e-01,NaN,0,1,3,1
45,106,1,129,NaN,NaN,2,NaN,1.285116e+00,NaN,2,0,3,1
45,107,1,76,NaN,NaN,1,NaN,8.339459e-01,NaN,2,0,2,1
45,108,1,109,NaN,NaN,1,NaN,7.779189e-01,NaN,0,1,3,1
45,109,1,125,NaN,NaN,1,NaN,5.476548e-01,NaN,0,0,3,1
45,110,1,47,NaN,NaN,1,NaN,2.348902e-01,NaN,2,0,1,1
45,111,1,77,NaN,NaN,1,NaN,2.597923e-01,NaN,1,0,2,1
45,112,1,54,NaN,NaN,1,NaN,3.621132e-01,NaN,0,0,2,1
45,113,1,74,NaN,NaN,1,NaN,9.573071e-01,NaN,0,1,2,1
45,114,1,117,NaN,NaN,1,NaN,8.941438e-01,NaN,2,0,3,1
45,115,1,138,NaN,NaN,1,NaN,5.550274e-01,NaN,2,1,3,1
45,116,1,2,NaN,NaN,1,NaN,6.862393e-01,NaN,0,0,1,1
45,117,1,102,NaN,NaN,2,NaN,9.883937e-01,NaN,2,0,3,1
45,118,1,38,NaN,NaN,1,NaN,1.197708e+00,NaN,2,0,1,1
45,119,1,91,NaN,NaN,1,NaN,5.147765e+00,NaN,0,1,2,1
45,120,1,115,NaN,NaN,2,NaN,2.074899e+00,NaN,1,0,3,1
45,121,1,26,NaN,NaN,1,NaN,1.612493e+00,NaN,2,0,1,1
45,122,1,111,NaN,NaN,1,NaN,1.500994e+00,NaN,0,0,3,1
45,123,1,41,NaN,NaN,1,NaN,6.106991e-01,NaN,1,0,1,1
45,124,1,79,NaN,NaN,1,NaN,1.027648e+00,NaN,0,0,2,1
45,125,1,62,NaN,NaN,1,NaN,5.624456e-01,NaN,2,0,2,1
45,126,1,30,NaN,NaN,1,NaN,3.006497e-01,NaN,0,0,1,1
45,127,1,97,NaN,NaN,1,NaN,1.322910e+00,NaN,1,0,3,1
45,128,1,70,NaN,NaN,1,NaN,1.006926e+00,NaN,1,0,2,1
45,129,1,86,NaN,NaN,1,NaN,2.160330e+00,NaN,0,0,2,1
45,130,1,136,NaN,NaN,2,NaN,1.068161e+00,NaN,0,1,3,1
45,131,1,55,NaN,NaN,1,NaN,6.742005e-01,NaN,1,1,2,1
45,132,1,128,NaN,NaN,1,NaN,5.526914e-01,NaN,0,0,3,1
45,133,1,80,NaN,NaN,1,NaN,5.470086e-01,NaN,0,0,2,1
45,134,1,107,NaN,NaN,1,NaN,6.146235e-01,NaN,2,0,3,1
45,135,1,144,NaN,NaN,1,NaN,8.478258e-01,NaN,0,0,3,1
45,136,1,113,NaN,NaN,1,NaN,6.878467e-01,NaN,0,0,3,1
45,137,1,144,NaN,NaN,1,NaN,1.502091e+00,NaN,1,0,3,1
45,138,1,139,NaN,NaN,1,NaN,1.395011e+00,NaN,1,1,3,1
45,139,1,115,NaN,NaN,1,NaN,1.788638e+00,NaN,0,0,3,1
45,140,1,18,NaN,NaN,1,NaN,9.266856e-01,NaN,0,1,1,1
45,141,1,64,NaN,NaN,1,NaN,7.952923e-01,NaN,0,0,2,1
45,142,1,132,NaN,NaN,1,NaN,8.118172e-01,NaN,0,0,3,1
45,143,1,23,NaN,NaN,1,NaN,4.125153e-01,NaN,1,0,1,1
45,144,1,81,NaN,NaN,1,NaN,8.614270e-01,NaN,0,0,2,1
45,145,1,54,NaN,NaN,1,NaN,4.043863e-01,NaN,2,0,2,1
45,146,1,107,NaN,NaN,1,NaN,1.038096e+00,NaN,0,0,3,1
45,147,1,65,NaN,NaN,1,NaN,6.853296e-01,NaN,2,1,2,1
45,148,1,98,NaN,NaN,1,NaN,7.323603e-01,NaN,0,0,3,1
45,149,1,85,NaN,NaN,1,NaN,5.254027e-01,NaN,1,0,2,1
45,150,1,71,NaN,NaN,1,NaN,4.173331e-01,NaN,2,1,2,1
45,151,1,140,NaN,NaN,1,NaN,1.040653e+00,NaN,2,0,3,1
45,152,1,143,NaN,NaN,2,NaN,2.080381e+00,NaN,1,0,3,1
45,153,1,99,NaN,NaN,2,NaN,8.942127e-01,NaN,0,1,3,1
45,154,1,51,NaN,NaN,1,NaN,3.883135e-01,NaN,0,1,2,1
45,155,1,58,NaN,NaN,1,NaN,4.065928e-01,NaN,0,0,2,1
45,156,1,60,NaN,NaN,1,NaN,7.597037e-01,NaN,1,0,2,1
45,157,1,63,NaN,NaN,1,NaN,1.782454e-01,NaN,1,0,2,1
45,158,1,34,NaN,NaN,1,NaN,5.169697e-01,NaN,0,0,1,1
45,159,1,76,NaN,NaN,1,NaN,4.106351e-01,NaN,0,0,2,1
45,160,1,1,NaN,NaN,1,NaN,4.829666e-01,NaN,0,1,1,1
45,161,1,126,NaN,NaN,2,NaN,6.017657e-01,NaN,0,1,3,1
45,162,1,2,NaN,NaN,1,NaN,4.189821e-01,NaN,2,0,1,1
45,163,1,87,NaN,NaN,1,NaN,5.086813e-01,NaN,1,0,2,1
45,164,1,118,NaN,NaN,1,NaN,1.801510e+00,NaN,2,0,3,1
45,165,1,39,NaN,NaN,1,NaN,8.911516e-01,NaN,1,0,1,1
45,166,1,122,NaN,NaN,2,NaN,1.473548e+00,NaN,2,0,3,1
45,167,1,83,NaN,NaN,1,NaN,4.398705e-01,NaN,0,0,2,1
45,168,1,131,NaN,NaN,1,NaN,1.096039e+00,NaN,0,0,3,1
45,169,1,120,NaN,NaN,1,NaN,1.973336e+00,NaN,0,0,3,1
45,170,1,53,NaN,NaN,1,NaN,3.355163e-01,NaN,0,1,2,1
45,171,1,106,NaN,NaN,1,NaN,3.951920e-01,NaN,0,0,3,1
45,172,1,3,NaN,NaN,2,NaN,8.766847e-01,NaN,2,0,1,1
45,173,1,78,NaN,NaN,1,NaN,6.826706e-01,NaN,0,0,2,1
45,174,1,137,NaN,NaN,1,NaN,9.048027e-01,NaN,0,0,3,1
45,175,1,110,NaN,NaN,1,NaN,1.446578e+00,NaN,0,0,3,1
45,176,1,96,NaN,NaN,1,NaN,7.497817e-01,NaN,1,0,2,1
45,177,1,101,NaN,NaN,1,NaN,8.962456e-01,NaN,1,0,3,1
45,178,1,29,NaN,NaN,1,NaN,1.877915e+00,NaN,0,0,1,1
45,179,1,129,NaN,NaN,1,NaN,1.667786e+00,NaN,0,0,3,1
45,180,1,25,NaN,NaN,1,NaN,6.027494e-01,NaN,1,0,1,1
45,181,1,114,NaN,NaN,1,NaN,1.299972e+00,NaN,1,0,3,1
45,182,1,103,NaN,NaN,1,NaN,9.855533e-01,NaN,0,0,3,1
45,183,1,102,NaN,NaN,1,NaN,4.197165e-01,NaN,0,0,3,1
45,184,1,80,NaN,NaN,1,NaN,3.960704e-01,NaN,1,0,2,1
45,185,1,113,NaN,NaN,1,NaN,1.004757e+00,NaN,2,0,3,1
45,186,1,51,NaN,NaN,1,NaN,4.459650e-01,NaN,1,1,2,1
45,187,1,37,NaN,NaN,2,NaN,1.422185e+00,NaN,0,1,1,1
45,188,1,92,NaN,NaN,1,NaN,2.702093e-01,NaN,2,0,2,1
45,189,1,119,NaN,NaN,1,NaN,1.276445e+00,NaN,1,0,3,1
45,190,1,81,NaN,NaN,1,NaN,4.429107e-01,NaN,1,0,2,1
45,191,1,38,NaN,NaN,1,NaN,7.952211e-01,NaN,0,0,1,1
45,192,1,26,NaN,NaN,1,NaN,9.653287e-01,NaN,0,0,1,1
45,193,1,89,NaN,NaN,1,NaN,4.800155e-01,NaN,1,0,2,1
45,194,1,126,NaN,NaN,2,NaN,1.790883e+00,NaN,1,1,3,1
45,195,1,12,NaN,NaN,1,NaN,5.812715e-01,NaN,0,0,1,1
45,196,1,21,NaN,NaN,1,NaN,1.210406e-04,NaN,1,1,1,1
45,197,1,89,NaN,NaN,1,NaN,6.171855e-01,NaN,0,0,2,1
45,198,1,15,NaN,NaN,2,NaN,6.836374e-01,NaN,0,0,1,1
45,199,1,138,NaN,NaN,1,NaN,4.088856e-01,NaN,0,1,3,1
45,200,1,104,NaN,NaN,1,NaN,1.131181e+00,NaN,1,0,3,1
45,201,1,33,NaN,NaN,1,NaN,5.596735e-01,NaN,0,0,1,1
45,202,1,6,NaN,NaN,1,NaN,9.228573e-01,NaN,0,0,1,1
45,203,1,36,NaN,NaN,1,NaN,2.526731e+00,NaN,2,0,1,1
45,204,1,109,NaN,NaN,1,NaN,7.304653e-01,NaN,1,1,3,1
45,205,1,86,NaN,NaN,1,NaN,5.594428e-01,NaN,1,0,2,1
45,206,1,31,NaN,NaN,1,NaN,6.269451e-01,NaN,0,0,1,1
45,207,1,20,NaN,NaN,1,NaN,1.265804e+00,NaN,1,1,1,1
45,208,1,135,NaN,NaN,1,NaN,1.456902e+00,NaN,1,0,3,1
45,209,1,12,NaN,NaN,1,NaN,6.636093e-01,NaN,1,0,1,1
45,210,1,63,NaN,NaN,1,NaN,6.146020e-01,NaN,0,0,2,1
45,211,1,35,NaN,NaN,2,NaN,1.767115e+00,NaN,0,0,1,1
45,212,1,142,NaN,NaN,1,NaN,6.331031e-01,NaN,0,0,3,1
45,213,1,118,NaN,NaN,1,NaN,1.055210e+00,NaN,0,0,3,1
45,214,1,27,NaN,NaN,1,NaN,2.325129e+00,NaN,0,1,1,1
45,215,1,123,NaN,NaN,1,NaN,1.153633e+00,NaN,1,0,3,1
45,216,1,116,NaN,NaN,1,NaN,1.677401e+00,NaN,1,0,3,1
45,217,1,95,NaN,NaN,1,NaN,9.556669e-01,NaN,1,0,2,1
45,218,1,61,NaN,NaN,1,NaN,5.820430e-01,NaN,1,1,2,1
45,219,1,4,NaN,NaN,1,NaN,7.125187e-01,NaN,2,0,1,1
45,220,1,11,NaN,NaN,1,NaN,9.178995e-01,NaN,0,1,1,1
45,221,1,88,NaN,NaN,1,NaN,7.632552e-01,NaN,0,1,2,1
45,222,1,28,NaN,NaN,1,NaN,1.558206e+00,NaN,1,1,1,1
45,223,1,111,NaN,NaN,1,NaN,1.745679e+00,NaN,2,0,3,1
45,224,1,103,NaN,NaN,1,NaN,7.532885e-01,NaN,1,0,3,1
45,225,1,112,NaN,NaN,1,NaN,6.369176e-01,NaN,0,1,3,1
45,226,1,8,NaN,NaN,1,NaN,1.461447e+00,NaN,2,1,1,1
45,227,1,16,NaN,NaN,1,NaN,6.129307e-01,NaN,2,1,1,1
45,228,1,123,NaN,NaN,1,NaN,7.971463e-01,NaN,0,0,3,1
45,229,1,133,NaN,NaN,2,NaN,8.787964e-01,NaN,1,0,3,1
45,230,1,74,NaN,NaN,1,NaN,3.496385e-01,NaN,1,1,2,1
45,231,1,7,NaN,NaN,1,NaN,3.204161e-01,NaN,2,1,1,1
45,232,1,10,NaN,NaN,1,NaN,3.413359e-01,NaN,0,1,1,1
45,233,1,35,NaN,NaN,1,NaN,5.211258e-01,NaN,1,0,1,1
45,234,1,24,NaN,NaN,1,NaN,6.065503e-01,NaN,0,0,1,1
45,235,1,62,NaN,NaN,1,NaN,3.282554e-01,NaN,0,0,2,1
45,236,1,13,NaN,NaN,1,NaN,6.108537e-01,NaN,1,0,1,1
45,237,1,22,NaN,NaN,1,NaN,5.726779e-01,NaN,2,0,1,1
45,238,1,45,NaN,NaN,2,NaN,4.308600e-01,NaN,1,1,1,1
45,239,1,91,NaN,NaN,1,NaN,2.150462e-01,NaN,1,1,2,1
45,240,1,143,NaN,NaN,1,NaN,1.072339e+00,NaN,0,0,3,1
45,241,1,45,NaN,NaN,1,NaN,7.664937e-01,NaN,0,1,1,1
45,242,1,36,NaN,NaN,1,NaN,5.036277e-01,NaN,0,0,1,1
45,243,1,133,NaN,NaN,1,NaN,6.134299e-01,NaN,0,0,3,1
45,244,1,82,NaN,NaN,1,NaN,7.898648e-01,NaN,2,0,2,1
45,245,1,79,NaN,NaN,1,NaN,6.324077e-01,NaN,2,0,2,1
45,246,1,68,NaN,NaN,1,NaN,6.571639e-01,NaN,2,1,2,1
45,247,1,88,NaN,NaN,1,NaN,3.923737e-01,NaN,2,1,2,1
45,248,1,119,NaN,NaN,1,NaN,8.952758e-01,NaN,0,0,3,1
45,249,1,85,NaN,NaN,1,NaN,1.323034e-01,NaN,0,0,2,1
45,250,1,114,NaN,NaN,1,NaN,4.002956e-01,NaN,0,0,3,1
45,251,1,55,NaN,NaN,1,NaN,1.385416e+00,NaN,0,1,2,1
45,252,1,84,NaN,NaN,1,NaN,7.792712e-01,NaN,2,0,2,1
45,253,1,82,NaN,NaN,1,NaN,2.805076e+00,NaN,0,0,2,1
45,254,1,92,NaN,NaN,1,NaN,3.580682e-01,NaN,0,0,2,1
45,255,1,42,NaN,NaN,1,NaN,5.696637e-01,NaN,1,0,1,1
45,256,1,25,NaN,NaN,1,NaN,6.681237e-01,NaN,0,0,1,1
45,257,1,24,NaN,NaN,1,NaN,1.203193e+00,NaN,1,0,1,1
45,258,1,31,NaN,NaN,1,NaN,9.726581e-01,NaN,2,0,1,1
45,259,1,66,NaN,NaN,1,NaN,3.430139e-01,NaN,0,0,2,1
45,260,1,137,NaN,NaN,1,NaN,9.232256e-01,NaN,1,0,3,1
45,261,1,90,NaN,NaN,1,NaN,1.719417e+00,NaN,1,1,2,1
45,262,1,97,NaN,NaN,2,NaN,3.380083e+00,NaN,0,0,3,1
45,263,1,83,NaN,NaN,1,NaN,8.379445e-01,NaN,2,0,2,1
45,264,1,28,NaN,NaN,1,NaN,7.330253e-01,NaN,0,1,1,1
45,265,1,22,NaN,NaN,2,NaN,5.693226e-01,NaN,0,0,1,1
45,266,1,16,NaN,NaN,1,NaN,5.966633e-01,NaN,0,1,1,1
45,267,1,140,NaN,NaN,1,NaN,6.380087e-01,NaN,0,0,3,1
45,268,1,67,NaN,NaN,1,NaN,5.020530e-01,NaN,0,1,2,1
45,269,1,1,NaN,NaN,1,NaN,7.155100e-01,NaN,1,1,1,1
45,270,1,37,NaN,NaN,1,NaN,1.344284e+00,NaN,1,1,1,1
45,271,1,70,NaN,NaN,1,NaN,5.367820e-01,NaN,0,0,2,1
45,272,1,135,NaN,NaN,1,NaN,1.253218e+00,NaN,0,0,3,1
45,273,1,93,NaN,NaN,1,NaN,8.360685e-01,NaN,0,0,2,1
45,274,1,141,NaN,NaN,1,NaN,2.003469e+00,NaN,2,0,3,1
45,275,1,8,NaN,NaN,1,NaN,9.330145e-01,NaN,0,1,1,1
45,276,1,108,NaN,NaN,1,NaN,5.286188e-01,NaN,0,0,3,1
45,277,1,98,NaN,NaN,1,NaN,9.894019e-01,NaN,1,0,3,1
45,278,1,5,NaN,NaN,1,NaN,1.508075e-01,NaN,2,0,1,1
45,279,1,19,NaN,NaN,1,NaN,5.060066e-01,NaN,0,0,1,1
45,280,1,57,NaN,NaN,1,NaN,2.791108e-01,NaN,2,0,2,1
45,281,1,122,NaN,NaN,2,NaN,2.429569e+00,NaN,0,0,3,1
45,282,1,50,NaN,NaN,1,NaN,2.061115e+00,NaN,2,0,2,1
45,283,1,52,NaN,NaN,1,NaN,2.164137e+00,NaN,0,0,2,1
45,284,1,127,NaN,NaN,1,NaN,1.198837e+00,NaN,0,0,3,1
45,285,1,15,NaN,NaN,1,NaN,6.163766e-01,NaN,1,0,1,1
45,286,1,139,NaN,NaN,1,NaN,1.521210e+00,NaN,0,1,3,1
45,287,1,128,NaN,NaN,1,NaN,1.054004e+00,NaN,2,0,3,1
45,288,1,78,NaN,NaN,1,NaN,4.869352e+00,NaN,2,0,2,1
45,343,2,41,11,2,0,0,3.500001e+00,NaN,1,0,1,1
45,344,2,1,15,1,1,1,1.994191e+00,NaN,1,1,1,1
45,345,2,46,53,2,2,1,1.583704e+00,NaN,1,0,1,1
45,346,2,135,35,1,1,1,9.266413e-01,NaN,1,0,3,1
45,347,2,133,62,1,1,1,7.196604e-01,NaN,1,0,3,1
45,348,2,81,58,1,2,0,1.936488e+00,NaN,1,0,2,1
45,349,2,106,22,1,1,1,1.704363e+00,NaN,1,0,3,1
45,350,2,86,31,1,1,1,1.506081e+00,NaN,1,0,2,1
45,351,2,77,6,1,1,1,9.232986e-01,NaN,1,0,2,1
45,352,2,33,29,1,1,1,1.467877e+00,NaN,1,0,1,1
45,353,2,101,47,2,2,1,2.078978e+00,NaN,1,0,3,1
45,354,2,87,14,1,1,1,1.041667e+00,NaN,1,0,2,1
45,355,2,103,63,2,2,1,1.237589e+00,NaN,1,0,3,1
45,356,2,63,69,2,2,1,2.081097e+00,NaN,1,0,2,1
45,357,2,126,33,1,1,1,1.844119e+00,NaN,1,1,3,1
45,358,2,73,28,2,1,0,1.231683e+00,NaN,1,0,2,1
45,359,2,97,4,1,1,1,1.395782e+00,NaN,1,0,3,1
45,360,2,116,10,1,2,0,1.017404e+00,NaN,1,0,3,1
45,361,2,32,56,2,2,1,1.438625e+00,NaN,1,0,1,1
45,362,2,13,36,1,1,1,1.114561e+00,NaN,1,0,1,1
45,363,2,60,43,2,1,0,1.139603e+00,NaN,1,0,2,1
45,364,2,139,72,1,1,1,1.003907e+00,NaN,1,1,3,1
45,365,2,123,45,1,1,1,1.240834e+00,NaN,1,0,3,1
45,366,2,45,7,2,1,0,1.716673e+00,NaN,1,1,1,1
45,367,3,73,28,1,2,0,1.493186e+00,NaN,1,0,2,1
45,368,3,60,43,2,2,1,8.473383e-01,NaN,1,0,2,1
45,369,3,81,58,1,1,1,1.338790e+00,NaN,1,0,2,1
45,370,3,86,31,1,1,1,8.433002e-01,NaN,1,0,2,1
45,371,3,97,4,1,1,1,8.548896e-01,NaN,1,0,3,1
45,372,3,126,33,1,1,1,9.463947e-01,NaN,1,1,3,1
45,373,3,116,10,1,1,1,1.585868e+00,NaN,1,0,3,1
45,374,3,101,47,1,1,1,1.472060e+00,NaN,1,0,3,1
45,375,3,33,29,1,1,1,1.186574e+00,NaN,1,0,1,1
45,376,3,1,15,2,2,1,1.001037e+00,NaN,1,1,1,1
45,377,3,46,53,1,1,1,1.190733e+00,NaN,1,0,1,1
45,378,3,45,7,1,2,0,1.508706e+00,NaN,1,1,1,1
45,379,3,32,56,1,1,1,1.085544e+00,NaN,1,0,1,1
45,380,3,135,35,1,1,1,9.441843e-01,NaN,1,0,3,1
45,381,3,63,69,2,2,1,8.643528e-01,NaN,1,0,2,1
45,382,3,139,72,2,2,1,1.091617e+00,NaN,1,1,3,1
45,383,3,77,6,2,2,1,1.013913e+00,NaN,1,0,2,1
45,384,3,87,14,1,1,1,8.826344e-01,NaN,1,0,2,1
45,385,3,103,63,1,1,1,9.331977e-01,NaN,1,0,3,1
45,386,3,133,62,2,2,1,1.005656e+00,NaN,1,0,3,1
45,387,3,13,36,1,1,1,7.627653e-01,NaN,1,0,1,1
45,388,3,41,11,1,2,0,1.041898e+00,NaN,1,0,1,1
45,389,3,123,45,1,1,1,1.222016e+00,NaN,1,0,3,1
45,390,3,106,22,1,1,1,1.490603e+00,NaN,1,0,3,1
45,415,2,58,38,1,1,1,1.082068e+00,NaN,1,0,2,2
45,416,2,53,3,2,2,1,9.886014e-01,NaN,1,1,2,2
45,417,2,99,19,1,1,1,1.202371e+00,NaN,1,1,3,2
45,418,2,70,25,1,1,1,1.176207e+00,NaN,1,0,2,2
45,419,2,25,41,1,1,1,1.574673e+00,NaN,1,0,1,2
45,420,2,96,65,2,2,1,9.101417e-01,NaN,1,0,2,2
45,421,2,30,49,1,2,0,1.814678e+00,NaN,1,0,1,2
45,422,2,42,2,1,1,1,1.259551e+00,NaN,1,0,1,2
45,423,2,12,46,2,2,1,1.934948e+00,NaN,1,0,1,2
45,424,2,35,70,1,1,1,1.239148e+00,NaN,1,0,1,2
45,425,2,110,71,2,1,0,1.411065e+00,NaN,1,0,3,2
45,426,2,51,64,2,2,1,7.522746e-01,NaN,1,1,2,2
45,427,2,89,61,1,1,1,1.231857e+00,NaN,1,0,2,2
45,428,2,37,8,2,1,0,1.396614e+00,NaN,1,1,1,2
45,429,2,34,23,1,1,1,1.801937e+00,NaN,1,0,1,2
45,430,2,74,67,2,2,1,1.111804e+00,NaN,1,1,2,2
45,431,2,55,68,2,2,1,8.885826e-01,NaN,1,1,2,2
45,432,2,6,44,1,1,1,2.018595e+00,NaN,1,0,1,2
45,433,2,39,37,1,1,1,8.152628e-01,NaN,1,0,1,2
45,434,2,20,52,1,1,1,1.388521e+00,NaN,1,1,1,2
45,435,2,143,1,1,1,1,1.074006e+00,NaN,1,0,3,2
45,436,2,104,5,2,2,1,1.404983e+00,NaN,1,0,3,2
45,437,2,119,20,2,1,0,1.737933e+00,NaN,1,0,3,2
45,438,2,85,13,1,1,1,9.141675e-01,NaN,1,0,2,2
45,439,3,42,2,2,2,1,1.196977e+00,NaN,1,0,1,2
45,440,3,99,19,1,1,1,7.949989e-01,NaN,1,1,3,2
45,441,3,34,23,1,1,1,8.004304e-01,NaN,1,0,1,2
45,442,3,143,1,2,2,1,1.502460e+00,NaN,1,0,3,2
45,443,3,55,68,2,2,1,6.795121e-01,NaN,1,1,2,2
45,444,3,25,41,1,1,1,1.154220e+00,NaN,1,0,1,2
45,445,3,53,3,1,1,1,1.129235e+00,NaN,1,1,2,2
45,446,3,20,52,1,1,1,1.025937e+00,NaN,1,1,1,2
45,447,3,37,8,2,2,1,1.102174e+00,NaN,1,1,1,2
45,448,3,70,25,1,1,1,7.044368e-01,NaN,1,0,2,2
45,449,3,39,37,2,2,1,1.001531e+00,NaN,1,0,1,2
45,450,3,119,20,2,2,1,1.287325e+00,NaN,1,0,3,2
45,451,3,35,70,1,1,1,1.441178e+00,NaN,1,0,1,2
45,452,3,30,49,1,1,1,2.508899e+00,NaN,1,0,1,2
45,453,3,51,64,2,2,1,8.630545e-01,NaN,1,1,2,2
45,454,3,85,13,2,2,1,1.049648e+00,NaN,1,0,2,2
45,455,3,96,65,1,1,1,7.730686e-01,NaN,1,0,2,2
45,456,3,110,71,2,1,0,1.315227e+00,NaN,1,0,3,2
45,457,3,74,67,1,1,1,1.332373e+00,NaN,1,1,2,2
45,458,3,89,61,2,2,1,1.092787e+00,NaN,1,0,2,2
45,459,3,12,46,2,2,1,1.310825e+00,NaN,1,0,1,2
45,460,3,6,44,1,1,1,1.296214e+00,NaN,1,0,1,2
45,461,3,58,38,2,2,1,1.441725e+00,NaN,1,0,2,2
45,462,3,104,5,2,2,1,1.309519e+00,NaN,1,0,3,2
45,487,2,127,50,2,2,1,1.081388e+00,NaN,1,0,3,3
45,488,2,130,40,1,1,1,1.332220e+00,NaN,1,0,3,3
45,489,2,23,30,2,2,1,1.788341e+00,NaN,1,0,1,3
45,490,2,98,66,2,2,1,1.642544e+00,NaN,1,0,3,3
45,491,2,72,16,2,2,1,1.494584e+00,NaN,1,0,2,3
45,492,2,66,51,1,1,1,8.084118e-01,NaN,1,0,2,3
45,493,2,56,48,1,1,1,1.093573e+00,NaN,1,1,2,3
45,494,2,90,39,1,1,1,9.916087e-01,NaN,1,1,2,3
45,495,2,144,60,2,2,1,1.437626e+00,NaN,1,0,3,3
45,496,2,61,57,1,1,1,1.673753e+00,NaN,1,1,2,3
45,497,2,24,17,2,2,1,9.965336e-01,NaN,1,0,1,3
45,498,2,21,59,2,2,1,7.618942e-01,NaN,1,1,1,3
45,499,2,15,24,2,2,1,1.649099e+00,NaN,1,0,1,3
45,500,2,14,26,1,1,1,1.172505e+00,NaN,1,0,1,3
45,501,2,137,54,1,2,0,1.579189e+00,NaN,1,0,3,3
45,502,2,95,32,2,2,1,1.897499e+00,NaN,1,0,2,3
45,503,2,80,12,2,2,1,1.914854e+00,NaN,1,0,2,3
45,504,2,114,34,1,1,1,1.252280e+00,NaN,1,0,3,3
45,505,2,28,21,2,2,1,1.591535e+00,NaN,1,1,1,3
45,506,2,115,18,1,1,1,1.773752e+00,NaN,1,0,3,3
45,507,2,91,27,1,1,1,1.420453e+00,NaN,1,1,2,3
45,508,2,105,55,1,2,0,2.792698e+00,NaN,1,0,3,3
45,509,2,19,9,2,2,1,1.990686e+00,NaN,1,0,1,3
45,510,2,109,42,2,2,1,2.012809e+00,NaN,1,1,3,3
45,511,3,105,55,2,1,0,2.184063e+00,NaN,1,0,3,3
45,512,3,21,59,1,1,1,9.747584e-01,NaN,1,1,1,3
45,513,3,137,54,1,1,1,1.317267e+00,NaN,1,0,3,3
45,514,3,115,18,2,2,1,1.438174e+00,NaN,1,0,3,3
45,515,3,15,24,1,1,1,9.702862e-01,NaN,1,0,1,3
45,516,3,56,48,1,1,1,9.131572e-01,NaN,1,1,2,3
45,517,3,28,21,2,2,1,7.619624e-01,NaN,1,1,1,3
45,518,3,14,26,1,1,1,1.145413e+00,NaN,1,0,1,3
45,519,3,127,50,2,2,1,1.609521e+00,NaN,1,0,3,3
45,520,3,91,27,1,1,1,7.908519e-01,NaN,1,1,2,3
45,521,3,109,42,2,2,1,1.324763e+00,NaN,1,1,3,3
45,522,3,23,30,2,2,1,9.809471e-01,NaN,1,0,1,3
45,523,3,144,60,1,1,1,2.115402e+00,NaN,1,0,3,3
45,524,3,90,39,1,1,1,2.060302e+00,NaN,1,1,2,3
45,525,3,61,57,2,2,1,1.687746e+00,NaN,1,1,2,3
45,526,3,95,32,2,2,1,1.322468e+00,NaN,1,0,2,3
45,527,3,114,34,2,2,1,1.674406e+00,NaN,1,0,3,3
45,528,3,24,17,1,1,1,1.164822e+00,NaN,1,0,1,3
45,529,3,19,9,2,2,1,1.059834e+00,NaN,1,0,1,3
45,530,3,72,16,1,1,1,1.686917e+00,NaN,1,0,2,3
45,531,3,66,51,2,2,1,9.131798e-01,NaN,1,0,2,3
45,532,3,130,40,2,2,1,1.569993e+00,NaN,1,0,3,3
45,533,3,80,12,2,2,1,2.089015e+00,NaN,1,0,2,3
45,534,3,98,66,1,1,1,2.202793e+00,NaN,1,0,3,3
45,559,4,94,40,2,2,1,1.133566e+00,NaN,2,0,2,1
45,560,4,44,71,1,1,1,1.038006e+00,NaN,2,0,1,1
45,561,4,129,26,2,2,1,1.857824e+00,NaN,2,0,3,1
45,562,4,84,1,2,2,1,1.061268e+00,NaN,2,0,2,1
45,563,4,26,20,1,1,1,2.008543e+00,NaN,2,0,1,1
45,564,4,48,60,1,1,1,1.173727e+00,NaN,2,0,1,1
45,565,4,102,12,2,2,1,1.180956e+00,NaN,2,0,3,1
45,566,4,140,53,2,2,1,2.011158e+00,NaN,2,0,3,1
45,567,4,131,29,1,1,1,1.408394e+00,NaN,2,0,3,1
45,568,4,36,18,1,1,1,1.373735e+00,NaN,2,0,1,1
45,569,4,125,36,1,1,1,2.068798e+00,NaN,2,0,3,1
45,570,4,124,59,2,2,1,1.551662e+00,NaN,2,1,3,1
45,571,4,120,31,2,2,1,1.144114e+00,NaN,2,0,3,1
45,572,4,138,7,1,1,1,1.047848e+00,NaN,2,1,3,1
45,573,4,65,15,2,2,1,1.715189e+00,NaN,2,1,2,1
45,574,4,50,11,1,1,1,2.436325e+00,NaN,2,0,2,1
45,575,4,52,17,2,2,1,1.352926e+00,NaN,2,0,2,1
45,576,4,142,2,1,1,1,1.440233e+00,NaN,2,0,3,1
45,577,4,134,37,1,1,1,1.092829e+00,NaN,2,0,3,1
45,578,4,38,22,1,2,0,2.142921e+00,NaN,2,0,1,1
45,579,4,75,50,2,2,1,9.343625e-01,NaN,2,0,2,1
45,580,4,67,8,2,2,1,2.790909e+00,NaN,2,1,2,1
45,581,4,113,61,2,2,1,1.620629e+00,NaN,2,0,3,1
45,582,4,22,5,2,2,1,1.160847e+00,NaN,2,0,1,1
45,607,4,43,42,1,1,1,1.081822e+00,NaN,2,1,1,2
45,608,4,76,4,2,2,1,1.043920e+00,NaN,2,0,2,2
45,609,4,107,28,1,1,1,1.016796e+00,NaN,2,0,3,2
45,610,4,40,35,1,1,1,1.373595e+00,NaN,2,0,1,2
45,611,4,108,32,1,1,1,1.676355e+00,NaN,2,0,3,2
45,612,4,11,3,2,2,1,1.470815e+00,NaN,2,1,1,2
45,613,4,93,45,2,2,1,8.176909e-01,NaN,2,0,2,2
45,614,4,2,38,1,1,1,1.622626e+00,NaN,2,0,1,2
45,615,4,71,72,2,2,1,1.875333e+00,NaN,2,1,2,2
45,616,4,16,48,2,2,1,1.317680e+00,NaN,2,1,1,2
45,617,4,17,58,1,1,1,2.582838e+00,NaN,2,0,1,2
45,618,4,31,34,1,1,1,1.269003e+00,NaN,2,0,1,2
45,619,4,3,13,2,2,1,1.968138e+00,NaN,2,0,1,2
45,620,4,122,43,1,1,1,1.662963e+00,NaN,2,0,3,2
45,621,4,62,56,1,1,1,2.009526e+00,NaN,2,0,2,2
45,622,4,112,27,1,1,1,1.462749e+00,NaN,2,1,3,2
45,623,4,78,63,2,2,1,7.139772e-01,NaN,2,0,2,2
45,624,4,117,65,1,1,1,1.531400e+00,NaN,2,0,3,2
45,625,4,88,19,1,1,1,1.531386e+00,NaN,2,1,2,2
45,626,4,27,33,1,1,1,1.283595e+00,NaN,2,1,1,2
45,627,4,83,62,1,1,1,1.845900e+00,NaN,2,0,2,2
45,628,4,82,66,1,1,1,1.665701e+00,NaN,2,0,2,2
45,629,4,10,39,2,2,1,1.348822e+00,NaN,2,1,1,2
45,630,4,29,55,2,2,1,1.076307e+00,NaN,2,0,1,2
45,655,4,49,46,2,2,1,1.455563e+00,NaN,2,0,2,3
45,656,4,111,51,2,2,1,1.331109e+00,NaN,2,0,3,3
45,657,4,5,6,1,1,1,1.315507e+00,NaN,2,0,1,3
45,658,4,136,52,1,1,1,1.028439e+00,NaN,2,1,3,3
45,659,4,18,68,2,2,1,1.200932e+00,NaN,2,1,1,3
45,660,4,141,30,2,2,1,1.566896e+00,NaN,2,0,3,3
45,661,4,57,41,1,1,1,1.109873e+00,NaN,2,0,2,3
45,662,4,4,14,2,2,1,6.711850e-01,NaN,2,0,1,3
45,663,4,92,47,2,2,1,7.294339e-01,NaN,2,0,2,3
45,664,4,69,9,1,1,1,2.025765e+00,NaN,2,0,2,3
45,665,4,79,10,1,1,1,1.070571e+00,NaN,2,0,2,3
45,666,4,54,49,1,1,1,9.373961e-01,NaN,2,0,2,3
45,667,4,8,64,2,2,1,1.265163e+00,NaN,2,1,1,3
45,668,4,47,54,2,2,1,1.300435e+00,NaN,2,0,1,3
45,669,4,9,69,1,2,0,1.182058e+00,NaN,2,0,1,3
45,670,4,64,24,2,2,1,1.003870e+00,NaN,2,0,2,3
45,671,4,118,16,2,2,1,1.817142e+00,NaN,2,0,3,3
45,672,4,128,44,2,2,1,1.630525e+00,NaN,2,0,3,3
45,673,4,100,57,2,2,1,1.242781e+00,NaN,2,1,3,3
45,674,4,7,67,1,2,0,2.630684e+00,NaN,2,1,1,3
45,675,4,132,23,1,1,1,1.362798e+00,NaN,2,0,3,3
45,676,4,121,25,2,2,1,1.289866e+00,NaN,2,0,3,3
45,677,4,68,21,2,2,1,2.195562e+00,NaN,2,1,2,3
45,678,4,59,70,1,1,1,2.393245e+00,NaN,2,0,2,3
45,679,5,1.037800e+02,63,3,0,0,2.500514e+00,1,1,0,3.200000e+00,1
45,680,5,9.608000e+01,32,2,2,1,5.713480e-01,1,1,0,2.300000e+00,1
45,681,5,8.102000e+01,12,2,3,0,8.850586e-01,1,1,0,2.300000e+00,1
45,682,5,5.802000e+01,38,2,4,0,9.433038e-01,1,1,0,2.100000e+00,1
45,683,5,8.503000e+01,13,2,2,1,5.929922e-01,1,1,0,2.100000e+00,1
45,684,5,3.532000e+01,23,1,2,0,7.788701e-01,1,1,0,1.300000e+00,1
45,685,5,1.167900e+02,10,3,1,0,4.686036e-01,1,1,0,3.200000e+00,1
45,686,5,7.280000e+00,44,1,1,1,6.788664e-01,1,1,0,1.300000e+00,1
45,687,5,3.054000e+01,49,1,0,0,2.500270e+00,1,1,0,1.200000e+00,1
45,688,5,1.042200e+02,5,3,1,0,3.789363e-01,1,1,0,3.100000e+00,1
45,689,5,5.802000e+01,38,2,1,0,1.164513e+00,2,1,0,2.100000e+00,1
45,690,5,2.452000e+01,17,1,2,0,7.021853e-01,1,1,0,1.200000e+00,1
45,691,5,1.564000e+01,24,1,1,1,5.762512e-01,1,1,0,1.200000e+00,1
45,692,5,3.559000e+01,70,1,3,0,5.226812e-01,1,1,0,1.200000e+00,1
45,693,5,7.407000e+01,28,2,3,0,4.763779e-01,1,1,0,2.300000e+00,1
45,694,5,1.042200e+02,5,3,3,1,7.182254e-01,2,1,0,3.100000e+00,1
45,695,5,1.192600e+02,20,3,1,0,3.843868e-01,1,1,0,3.100000e+00,1
45,696,5,3.054000e+01,49,1,1,1,1.378154e+00,2,1,0,1.200000e+00,1
45,697,5,1.338300e+02,62,3,2,0,3.878260e-01,1,1,0,3.200000e+00,1
45,698,5,9.013000e+01,61,2,1,0,1.045577e+00,1,1,0,2.300000e+00,1
45,699,5,1.042200e+02,5,3,3,1,1.143376e+00,3,1,0,3.100000e+00,1
45,700,5,8.720000e+01,31,2,3,0,8.816507e-01,1,1,0,2.300000e+00,1
45,701,5,1.192600e+02,20,3,3,1,1.714913e+00,2,1,0,3.100000e+00,1
45,702,5,1.374700e+02,54,3,2,0,1.229375e+00,1,1,0,3.100000e+00,1
45,703,5,1.529000e+01,26,1,1,1,5.431703e-01,1,1,0,1.300000e+00,1
45,704,5,9.717000e+01,65,2,2,1,3.934848e-01,1,1,0,2.300000e+00,1
45,705,5,6.309000e+01,69,2,1,0,4.192444e-01,1,1,0,2.100000e+00,1
45,706,5,2.441000e+01,30,1,1,1,5.096469e-01,1,1,0,1.300000e+00,1
45,707,5,2.441000e+01,30,1,1,1,5.116394e-01,2,1,0,1.300000e+00,1
45,708,5,1.277500e+02,50,3,2,0,6.089997e-01,1,1,0,3.200000e+00,1
45,709,5,7.705000e+01,6,2,3,0,3.871719e-01,1,1,0,2.100000e+00,1
45,710,5,1.338300e+02,62,3,2,0,7.488867e-01,2,1,0,3.200000e+00,1
45,711,5,7.121000e+01,25,2,2,1,4.627812e-01,1,1,0,2.300000e+00,1
45,712,5,4.034000e+01,37,1,1,1,1.216143e+00,1,1,0,1.300000e+00,1
45,713,5,1.969000e+01,9,1,1,1,3.698559e-01,1,1,0,1.200000e+00,1
45,714,5,3.532000e+01,23,1,2,0,5.955099e-01,2,1,0,1.300000e+00,1
45,715,5,3.532000e+01,23,1,1,1,7.252521e-01,3,1,0,1.300000e+00,1
45,716,5,1.063800e+02,22,3,3,1,8.393167e-01,1,1,0,3.100000e+00,1
45,717,5,6.309000e+01,69,2,2,1,4.169370e-01,2,1,0,2.100000e+00,1
45,718,5,1.425000e+01,36,1,2,0,7.151596e-01,1,1,0,1.300000e+00,1
45,719,5,1.167900e+02,10,3,1,0,3.650547e-01,2,1,0,3.200000e+00,1
45,720,5,9.013000e+01,61,2,2,1,1.174635e+00,2,1,0,2.300000e+00,1
45,721,5,1.529000e+01,26,1,1,1,4.002525e-01,2,1,0,1.300000e+00,1
45,722,5,1.277500e+02,50,3,2,0,6.500382e-01,2,1,0,3.200000e+00,1
45,723,5,1.564000e+01,24,1,1,1,9.882874e-01,2,1,0,1.200000e+00,1
45,724,5,7.121000e+01,25,2,2,1,5.816216e-01,2,1,0,2.300000e+00,1
45,725,5,7.121000e+01,25,2,2,1,3.271781e-01,3,1,0,2.300000e+00,1
45,726,5,1.042200e+02,5,3,1,0,4.417114e-01,4,1,0,3.100000e+00,1
45,727,5,1.444800e+02,60,3,1,0,3.713096e-01,1,1,0,3.100000e+00,1
45,728,5,7.407000e+01,28,2,2,1,9.248408e-01,2,1,0,2.300000e+00,1
45,729,5,8.720000e+01,31,2,3,0,7.024271e-01,2,1,0,2.300000e+00,1
45,730,5,3.054000e+01,49,1,3,0,7.763988e-01,3,1,0,1.200000e+00,1
45,731,5,1.052900e+02,55,3,2,0,7.225693e-01,1,1,0,3.100000e+00,1
45,732,5,1.143100e+02,34,3,2,0,1.348477e+00,1,1,0,3.100000e+00,1
45,733,5,7.407000e+01,28,2,2,1,8.381775e-01,3,1,0,2.300000e+00,1
45,734,5,2.557000e+01,41,1,1,1,6.078579e-01,1,1,0,1.200000e+00,1
45,735,5,6.122000e+01,43,2,3,0,3.056688e-01,1,1,0,2.300000e+00,1
45,736,5,9.717000e+01,65,2,3,0,1.115074e+00,2,1,0,2.300000e+00,1
45,737,5,6.122000e+01,43,2,1,0,5.728454e-01,2,1,0,2.300000e+00,1
45,738,5,1.438400e+02,1,3,3,1,3.986506e-01,1,1,0,3.200000e+00,1
45,739,5,1.425000e+01,36,1,2,0,5.925047e-01,2,1,0,1.300000e+00,1
45,740,5,1.354000e+02,35,3,1,0,8.745540e-01,1,1,0,3.100000e+00,1
45,741,5,1.277500e+02,50,3,3,1,1.203936e+00,3,1,0,3.200000e+00,1
45,742,5,3.559000e+01,70,1,1,1,8.935586e-01,2,1,0,1.200000e+00,1
45,743,5,8.117000e+01,58,2,3,0,9.755374e-01,1,1,0,2.100000e+00,1
45,744,5,9.882000e+01,66,3,1,0,6.178279e-01,1,1,0,3.200000e+00,1
45,745,5,5.802000e+01,38,2,0,0,2.500115e+00,3,1,0,2.100000e+00,1
45,746,5,7.280000e+00,44,1,1,1,4.864152e-01,2,1,0,1.300000e+00,1
45,747,5,9.013000e+01,61,2,3,0,7.042653e-01,3,1,0,2.300000e+00,1
45,748,5,1.969000e+01,9,1,1,1,6.175227e-01,2,1,0,1.200000e+00,1
45,749,5,1.019200e+02,47,3,1,0,1.123896e+00,1,1,0,3.200000e+00,1
45,750,5,2.557000e+01,41,1,2,0,1.229547e+00,2,1,0,1.200000e+00,1
45,751,5,7.705000e+01,6,2,1,0,9.993610e-01,2,1,0,2.100000e+00,1
45,752,5,8.102000e+01,12,2,3,0,3.526606e-01,2,1,0,2.300000e+00,1
45,753,5,4.034000e+01,37,1,1,1,3.630130e-01,2,1,0,1.300000e+00,1
45,754,5,8.720000e+01,31,2,3,0,1.460528e+00,3,1,0,2.300000e+00,1
45,755,5,1.063800e+02,22,3,2,0,8.065114e-01,2,1,0,3.100000e+00,1
45,756,5,1.167900e+02,10,3,1,0,3.365426e-01,3,1,0,3.200000e+00,1
45,757,5,1.167900e+02,10,3,3,1,4.417745e-01,4,1,0,3.200000e+00,1
45,758,5,1.104400e+02,71,3,3,1,1.468078e+00,1,1,0,3.100000e+00,1
45,759,5,1.143100e+02,34,3,2,0,2.939100e-01,2,1,0,3.100000e+00,1
45,760,5,1.104400e+02,71,3,3,1,3.358248e-01,2,1,0,3.100000e+00,1
45,761,5,2.452000e+01,17,1,2,0,4.820291e-01,2,1,0,1.200000e+00,1
45,762,5,7.318000e+01,16,2,2,1,3.793855e-01,1,1,0,2.300000e+00,1
45,763,5,3.262000e+01,56,1,3,0,7.415352e-01,1,1,0,1.200000e+00,1
45,764,5,9.776000e+01,4,3,2,0,9.590919e-01,1,1,0,3.200000e+00,1
45,765,5,7.318000e+01,16,2,1,0,1.336959e+00,2,1,0,2.300000e+00,1
45,766,5,3.431000e+01,29,1,0,0,2.500052e+00,1,1,0,1.300000e+00,1
45,767,5,9.776000e+01,4,3,3,1,9.890113e-01,2,1,0,3.200000e+00,1
45,768,5,1.143100e+02,34,3,1,0,1.326544e+00,3,1,0,3.100000e+00,1
45,769,5,4.740000e+01,53,1,3,0,7.367383e-01,1,1,0,1.300000e+00,1
45,770,5,1.192600e+02,20,3,1,0,6.025885e-01,3,1,0,3.100000e+00,1
45,771,5,1.239300e+02,45,3,4,0,3.886217e-01,1,1,0,3.200000e+00,1
45,772,5,6.309000e+01,69,2,1,0,5.184705e-01,3,1,0,2.100000e+00,1
45,773,5,2.441000e+01,30,1,1,1,5.124915e-01,3,1,0,1.300000e+00,1
45,774,5,8.503000e+01,13,2,2,1,6.497811e-01,2,1,0,2.100000e+00,1
45,775,5,1.052900e+02,55,3,3,1,6.594945e-01,2,1,0,3.100000e+00,1
45,776,5,1.143100e+02,34,3,3,1,3.976300e-01,4,1,0,3.100000e+00,1
45,777,5,1.564000e+01,24,1,1,1,5.355489e-01,3,1,0,1.200000e+00,1
45,778,5,3.431000e+01,29,1,3,0,4.258080e-01,2,1,0,1.300000e+00,1
45,779,5,1.309400e+02,40,3,2,0,4.831236e-01,1,1,0,3.200000e+00,1
45,780,5,1.249000e+01,46,1,2,0,4.608422e-01,1,1,0,1.200000e+00,1
45,781,5,1.374700e+02,54,3,1,0,1.143043e+00,2,1,0,3.100000e+00,1
45,782,5,4.150000e+01,11,1,2,0,3.375124e-01,1,1,0,1.200000e+00,1
45,783,5,7.705000e+01,6,2,1,0,6.667919e-01,3,1,0,2.100000e+00,1
45,784,5,1.277500e+02,50,3,1,0,5.249354e-01,4,1,0,3.200000e+00,1
45,785,5,4.034000e+01,37,1,1,1,5.183570e-01,3,1,0,1.300000e+00,1
45,786,5,3.431000e+01,29,1,1,1,6.564507e-01,3,1,0,1.300000e+00,1
45,787,5,3.532000e+01,23,1,2,0,7.300974e-01,4,1,0,1.300000e+00,1
45,788,5,1.153600e+02,18,3,1,0,4.196905e-01,1,1,0,3.100000e+00,1
45,789,5,4.740000e+01,53,1,3,0,4.696350e-01,2,1,0,1.300000e+00,1
45,790,5,3.559000e+01,70,1,2,0,3.593211e-01,3,1,0,1.200000e+00,1
45,791,5,3.054000e+01,49,1,4,0,5.455014e-01,4,1,0,1.200000e+00,1
45,792,5,1.239300e+02,45,3,2,0,6.430393e-01,2,1,0,3.200000e+00,1
45,793,5,8.704000e+01,14,2,4,0,1.421148e+00,1,1,0,2.100000e+00,1
45,794,5,3.262000e+01,56,1,1,1,4.789590e-01,2,1,0,1.200000e+00,1
45,795,5,8.117000e+01,58,2,1,0,1.008310e+00,2,1,0,2.100000e+00,1
45,796,5,2.452000e+01,17,1,3,0,5.062149e-01,3,1,0,1.200000e+00,1
45,797,5,6.122000e+01,43,2,1,0,6.521904e-01,3,1,0,2.300000e+00,1
45,798,5,6.122000e+01,43,2,2,1,5.258669e-01,4,1,0,2.300000e+00,1
45,799,5,3.559000e+01,70,1,1,1,5.761274e-01,4,1,0,1.200000e+00,1
45,800,5,8.117000e+01,58,2,1,0,4.260229e-01,3,1,0,2.100000e+00,1
45,801,5,1.425000e+01,36,1,3,0,5.402375e-01,3,1,0,1.300000e+00,1
45,802,5,7.280000e+00,44,1,2,0,1.157940e+00,3,1,0,1.300000e+00,1
45,803,5,1.153600e+02,18,3,1,0,4.237054e-01,2,1,0,3.100000e+00,1
45,804,5,1.249000e+01,46,1,1,1,3.771437e-01,2,1,0,1.200000e+00,1
45,805,5,9.882000e+01,66,3,1,0,3.956134e-01,2,1,0,3.200000e+00,1
45,806,5,1.354000e+02,35,3,1,0,1.060918e+00,2,1,0,3.100000e+00,1
45,807,5,1.309400e+02,40,3,2,0,1.783340e+00,2,1,0,3.200000e+00,1
45,808,5,1.153600e+02,18,3,3,1,4.335899e-01,3,1,0,3.100000e+00,1
45,809,5,2.557000e+01,41,1,1,1,3.633837e-01,3,1,0,1.200000e+00,1
45,810,5,1.104400e+02,71,3,1,0,3.331398e-01,3,1,0,3.100000e+00,1
45,811,5,1.438400e+02,1,3,3,1,3.829062e-01,2,1,0,3.200000e+00,1
45,812,5,6.309000e+01,69,2,1,0,4.004701e-01,4,1,0,2.100000e+00,1
45,813,5,1.037800e+02,63,3,3,1,3.869012e-01,2,1,0,3.200000e+00,1
45,814,5,6.711000e+01,51,2,1,0,1.140223e+00,1,1,0,2.300000e+00,1
45,815,5,7.705000e+01,6,2,1,0,1.102193e+00,4,1,0,2.100000e+00,1
45,816,5,1.249000e+01,46,1,3,0,7.599666e-01,3,1,0,1.200000e+00,1
45,817,5,1.529000e+01,26,1,1,1,5.460674e-01,3,1,0,1.300000e+00,1
45,818,5,1.374700e+02,54,3,1,0,5.480723e-01,3,1,0,3.100000e+00,1
45,819,5,1.037800e+02,63,3,2,0,3.735722e-01,3,1,0,3.200000e+00,1
45,820,5,1.425000e+01,36,1,1,1,3.910911e-01,4,1,0,1.300000e+00,1
45,821,5,1.444800e+02,60,3,1,0,5.448084e-01,2,1,0,3.100000e+00,1
45,822,5,9.717000e+01,65,2,2,1,8.185201e-01,3,1,0,2.300000e+00,1
45,823,5,9.013000e+01,61,2,1,0,1.492689e+00,4,1,0,2.300000e+00,1
45,824,5,4.150000e+01,11,1,2,0,7.667428e-01,2,1,0,1.200000e+00,1
45,825,5,9.776000e+01,4,3,3,1,6.401591e-01,3,1,0,3.200000e+00,1
45,826,5,2.557000e+01,41,1,2,0,8.818735e-01,4,1,0,1.200000e+00,1
45,827,5,1.438400e+02,1,3,3,1,4.037273e-01,3,1,0,3.200000e+00,1
45,828,5,9.608000e+01,32,2,1,0,8.694099e-01,2,1,0,2.300000e+00,1
45,829,5,8.720000e+01,31,2,3,0,3.596604e-01,4,1,0,2.300000e+00,1
45,830,5,1.338300e+02,62,3,1,0,5.695134e-01,3,1,0,3.200000e+00,1
45,831,5,1.969000e+01,9,1,1,1,5.076133e-01,3,1,0,1.200000e+00,1
45,832,5,9.717000e+01,65,2,4,0,1.301168e+00,4,1,0,2.300000e+00,1
45,833,5,1.444800e+02,60,3,1,0,4.632077e-01,3,1,0,3.100000e+00,1
45,834,5,1.063800e+02,22,3,1,0,5.130819e-01,3,1,0,3.100000e+00,1
45,835,5,1.104400e+02,71,3,1,0,5.223761e-01,4,1,0,3.100000e+00,1
45,836,5,3.262000e+01,56,1,3,0,3.404382e-01,3,1,0,1.200000e+00,1
45,837,5,7.121000e+01,25,2,2,1,3.257389e-01,4,1,0,2.300000e+00,1
45,838,5,1.063800e+02,22,3,3,1,4.242188e-01,4,1,0,3.100000e+00,1
45,839,5,3.262000e+01,56,1,3,0,5.453943e-01,4,1,0,1.200000e+00,1
45,840,5,4.342000e+01,2,1,3,0,4.031713e-01,1,1,0,1.300000e+00,1
45,841,5,3.431000e+01,29,1,1,1,3.733941e-01,4,1,0,1.300000e+00,1
45,842,5,8.704000e+01,14,2,1,0,3.426236e-01,2,1,0,2.100000e+00,1
45,843,5,1.052900e+02,55,3,3,1,1.112702e+00,3,1,0,3.100000e+00,1
45,844,5,1.438400e+02,1,3,3,1,5.624272e-01,4,1,0,3.200000e+00,1
45,845,5,1.338300e+02,62,3,3,1,3.960224e-01,4,1,0,3.200000e+00,1
45,846,5,1.019200e+02,47,3,1,0,6.062225e-01,2,1,0,3.200000e+00,1
45,847,5,1.374700e+02,54,3,3,1,3.995214e-01,4,1,0,3.100000e+00,1
45,848,5,4.034000e+01,37,1,1,1,3.532824e-01,4,1,0,1.300000e+00,1
45,849,5,1.019200e+02,47,3,3,1,6.752231e-01,3,1,0,3.200000e+00,1
45,850,5,7.318000e+01,16,2,3,0,3.659672e-01,3,1,0,2.300000e+00,1
45,851,5,9.882000e+01,66,3,3,1,4.790743e-01,3,1,0,3.200000e+00,1
45,852,5,1.529000e+01,26,1,1,1,5.207020e-01,4,1,0,1.300000e+00,1
45,853,5,4.342000e+01,2,1,3,0,4.106348e-01,2,1,0,1.300000e+00,1
45,854,5,6.711000e+01,51,2,2,1,5.213588e-02,2,1,0,2.300000e+00,1
45,855,5,1.444800e+02,60,3,3,1,2.861954e-01,4,1,0,3.100000e+00,1
45,856,5,4.342000e+01,2,1,2,0,4.800846e-01,3,1,0,1.300000e+00,1
45,857,5,1.052900e+02,55,3,3,1,4.098421e-01,4,1,0,3.100000e+00,1
45,858,5,4.342000e+01,2,1,1,1,3.716286e-01,4,1,0,1.300000e+00,1
45,859,5,8.704000e+01,14,2,3,0,7.172991e-01,3,1,0,2.100000e+00,1
45,860,5,6.711000e+01,51,2,3,0,2.958850e-01,3,1,0,2.300000e+00,1
45,861,5,1.309400e+02,40,3,2,0,6.333316e-01,3,1,0,3.200000e+00,1
45,862,5,9.882000e+01,66,3,1,0,6.670047e-01,4,1,0,3.200000e+00,1
45,863,5,1.354000e+02,35,3,1,0,6.128226e-01,3,1,0,3.100000e+00,1
45,864,5,1.969000e+01,9,1,0,0,2.500476e+00,4,1,0,1.200000e+00,1
45,865,5,1.564000e+01,24,1,2,0,1.169142e+00,4,1,0,1.200000e+00,1
45,866,5,2.441000e+01,30,1,1,1,4.667309e-01,4,1,0,1.300000e+00,1
45,867,5,6.711000e+01,51,2,3,0,4.926532e-01,4,1,0,2.300000e+00,1
45,868,5,1.239300e+02,45,3,2,0,4.467637e-01,3,1,0,3.200000e+00,1
45,869,5,7.280000e+00,44,1,2,0,5.604362e-01,4,1,0,1.300000e+00,1
45,870,5,8.704000e+01,14,2,3,0,6.344346e-01,4,1,0,2.100000e+00,1
45,871,5,8.117000e+01,58,2,1,0,1.028566e+00,4,1,0,2.100000e+00,1
45,872,5,2.452000e+01,17,1,3,0,9.025623e-01,4,1,0,1.200000e+00,1
45,873,5,8.503000e+01,13,2,1,0,1.344247e+00,3,1,0,2.100000e+00,1
45,874,5,9.608000e+01,32,2,3,0,3.382383e-01,3,1,0,2.300000e+00,1
45,875,5,9.608000e+01,32,2,2,1,5.216365e-02,4,1,0,2.300000e+00,1
45,876,5,1.309400e+02,40,3,2,0,3.823216e-01,4,1,0,3.200000e+00,1
45,877,5,7.318000e+01,16,2,3,0,4.797492e-01,4,1,0,2.300000e+00,1
45,878,5,1.153600e+02,18,3,3,1,4.334737e-01,4,1,0,3.100000e+00,1
45,879,5,4.150000e+01,11,1,2,0,1.331415e+00,3,1,0,1.200000e+00,1
45,880,5,1.354000e+02,35,3,3,1,1.013100e+00,4,1,0,3.100000e+00,1
45,881,5,8.102000e+01,12,2,3,0,7.030178e-01,3,1,0,2.300000e+00,1
45,882,5,1.019200e+02,47,3,1,0,5.685773e-01,4,1,0,3.200000e+00,1
45,883,5,7.407000e+01,28,2,1,0,2.824764e-01,4,1,0,2.300000e+00,1
45,884,5,1.192600e+02,20,3,2,0,7.964264e-01,4,1,0,3.100000e+00,1
45,885,5,1.249000e+01,46,1,3,0,1.278313e+00,4,1,0,1.200000e+00,1
45,886,5,4.740000e+01,53,1,3,0,3.437223e-01,3,1,0,1.300000e+00,1
45,887,5,8.102000e+01,12,2,3,0,8.256325e-01,4,1,0,2.300000e+00,1
45,888,5,1.239300e+02,45,3,3,1,3.557494e-01,4,1,0,3.200000e+00,1
45,889,5,5.802000e+01,38,2,2,1,1.277535e+00,4,1,0,2.100000e+00,1
45,890,5,1.037800e+02,63,3,1,0,9.670516e-01,4,1,0,3.200000e+00,1
45,891,5,8.503000e+01,13,2,2,1,1.025177e+00,4,1,0,2.100000e+00,1
45,892,5,4.740000e+01,53,1,1,1,4.356488e-01,4,1,0,1.300000e+00,1
45,893,5,9.776000e+01,4,3,3,1,3.976496e-01,4,1,0,3.200000e+00,1
45,894,5,4.150000e+01,11,1,1,1,5.753152e-01,4,1,0,1.200000e+00,1
45,895,6,44,71,1,1,1,9.802073e-01,NaN,2,0,1,1
45,896,6,52,17,2,2,1,8.765438e-01,NaN,2,0,2,1
45,897,6,141,30,1,1,1,9.281644e-01,NaN,2,0,3,1
45,898,6,40,35,2,1,0,7.696154e-01,NaN,2,0,1,1
45,899,6,76,4,1,2,0,6.018279e-01,NaN,2,0,2,1
45,900,6,47,54,1,2,0,7.122591e-01,NaN,2,0,1,1
45,901,6,10,39,2,2,1,8.904049e-01,NaN,2,1,1,1
45,902,6,142,2,2,2,1,9.812547e-01,NaN,2,0,3,1
45,903,6,136,52,2,2,1,7.646784e-01,NaN,2,1,3,1
45,904,6,5,6,1,1,1,7.007760e-01,NaN,2,0,1,1
45,905,6,43,42,2,2,1,7.032635e-01,NaN,2,1,1,1
45,906,6,128,44,2,2,1,6.744824e-01,NaN,2,0,3,1
45,907,6,79,10,1,1,1,5.739565e-01,NaN,2,0,2,1
45,908,6,64,24,2,2,1,5.332356e-01,NaN,2,0,2,1
45,909,6,78,63,2,2,1,5.504221e-01,NaN,2,0,2,1
45,910,6,107,28,1,1,1,5.994988e-01,NaN,2,0,3,1
45,911,6,62,56,1,2,0,4.940755e-01,NaN,2,0,2,1
45,912,6,27,33,1,2,0,5.130046e-01,NaN,2,1,1,1
45,913,6,36,18,1,1,1,7.389991e-01,NaN,2,0,1,1
45,914,6,75,50,2,2,1,6.119657e-01,NaN,2,0,2,1
45,915,6,8,64,1,2,0,5.776484e-01,NaN,2,1,1,1
45,916,6,9,69,1,1,1,6.257752e-01,NaN,2,0,1,1
45,917,6,112,27,1,1,1,9.353200e-01,NaN,2,1,3,1
45,918,6,3,13,1,1,1,7.129177e-01,NaN,2,0,1,1
45,919,6,11,3,1,2,0,6.268114e-01,NaN,2,1,1,1
45,920,6,94,40,1,1,1,7.442054e-01,NaN,2,0,2,1
45,921,6,131,29,1,1,1,6.575769e-01,NaN,2,0,3,1
45,922,6,17,58,2,1,0,8.627448e-01,NaN,2,0,1,1
45,923,6,88,19,2,2,1,9.452842e-01,NaN,2,1,2,1
45,924,6,92,47,2,1,0,1.073890e+00,NaN,2,0,2,1
45,925,6,67,8,1,1,1,8.215756e-01,NaN,2,1,2,1
45,926,6,124,59,2,2,1,8.992849e-01,NaN,2,1,3,1
45,927,6,121,25,2,2,1,7.024720e-01,NaN,2,0,3,1
45,928,6,138,7,1,1,1,7.287744e-01,NaN,2,1,3,1
45,929,6,57,41,2,2,1,8.027537e-01,NaN,2,0,2,1
45,930,6,65,15,1,2,0,6.411304e-01,NaN,2,1,2,1
45,931,6,82,66,1,1,1,7.736545e-01,NaN,2,0,2,1
45,932,6,22,5,1,1,1,9.578115e-01,NaN,2,0,1,1
45,933,6,120,31,1,1,1,7.739898e-01,NaN,2,0,3,1
45,934,6,16,48,2,2,1,1.197844e+00,NaN,2,1,1,1
45,935,6,134,37,1,1,1,7.565726e-01,NaN,2,0,3,1
45,936,6,29,55,1,1,1,8.609374e-01,NaN,2,0,1,1
45,937,6,48,60,1,1,1,8.649133e-01,NaN,2,0,1,1
45,938,6,113,61,2,2,1,9.170042e-01,NaN,2,0,3,1
45,939,6,31,34,2,1,0,8.713079e-01,NaN,2,0,1,1
45,940,6,100,57,2,2,1,1.218514e+00,NaN,2,1,3,1
45,941,6,2,38,2,1,0,1.137108e+00,NaN,2,0,1,1
45,942,6,117,65,2,1,0,1.322531e+00,NaN,2,0,3,1
45,943,6,102,12,2,2,1,1.076010e+00,NaN,2,0,3,1
45,944,6,108,32,2,2,1,1.455866e+00,NaN,2,0,3,1
45,945,6,49,46,2,2,1,1.099857e+00,NaN,2,0,2,1
45,946,6,83,62,1,1,1,7.184560e-01,NaN,2,0,2,1
45,947,6,54,49,1,1,1,8.482882e-01,NaN,2,0,2,1
45,948,6,69,9,2,2,1,1.092685e+00,NaN,2,0,2,1
45,949,6,71,72,2,1,0,1.272094e+00,NaN,2,1,2,1
45,950,6,93,45,2,2,1,1.403125e+00,NaN,2,0,2,1
45,951,6,122,43,1,1,1,1.065663e+00,NaN,2,0,3,1
45,952,6,84,1,1,2,0,8.374492e-01,NaN,2,0,2,1
45,953,6,111,51,2,1,0,1.730539e+00,NaN,2,0,3,1
45,954,6,132,23,2,2,1,1.740071e+00,NaN,2,0,3,1
45,955,6,18,68,2,2,1,1.148820e+00,NaN,2,1,1,1
45,956,6,68,21,1,1,1,9.493975e-01,NaN,2,1,2,1
45,957,6,129,26,1,1,1,1.245852e+00,NaN,2,0,3,1
45,958,6,38,22,2,2,1,1.658518e+00,NaN,2,0,1,1
45,959,6,59,70,1,1,1,7.988846e-01,NaN,2,0,2,1
45,960,6,4,14,1,1,1,1.925690e+00,NaN,2,0,1,1
45,961,6,118,16,2,2,1,1.567269e+00,NaN,2,0,3,1
45,962,6,125,36,1,1,1,1.399428e+00,NaN,2,0,3,1
45,963,6,140,53,1,1,1,1.150008e+00,NaN,2,0,3,1
45,964,6,50,11,2,2,1,9.503284e-01,NaN,2,0,2,1
45,965,6,26,20,1,1,1,1.703308e+00,NaN,2,0,1,1
45,966,6,7,67,2,2,1,1.409975e+00,NaN,2,1,1,1
45,967,6,123,45,2,2,1,2.000243e+00,NaN,1,0,3,1
45,968,6,72,16,1,2,0,1.574391e+00,NaN,1,0,2,1
45,969,6,103,63,1,1,1,1.462750e+00,NaN,1,0,3,1
45,970,6,53,3,1,1,1,6.896221e-01,NaN,1,1,2,1
45,971,6,97,4,2,2,1,1.068781e+00,NaN,1,0,3,1
45,972,6,77,6,2,2,1,1.264683e+00,NaN,1,0,2,1
45,973,6,127,50,2,2,1,1.108771e+00,NaN,1,0,3,1
45,974,6,135,35,1,1,1,8.551839e-01,NaN,1,0,3,1
45,975,6,6,44,1,1,1,1.258901e+00,NaN,1,0,1,1
45,976,6,41,11,2,2,1,1.607156e+00,NaN,1,0,1,1
45,977,6,110,71,2,1,0,9.415238e-01,NaN,1,0,3,1
45,978,6,23,30,1,1,1,1.254894e+00,NaN,1,0,1,1
45,979,6,91,27,2,2,1,1.083310e+00,NaN,1,1,2,1
45,980,6,28,21,2,2,1,1.118745e+00,NaN,1,1,1,1
45,981,6,46,53,2,2,1,1.049123e+00,NaN,1,0,1,1
45,982,6,58,38,1,1,1,8.772090e-01,NaN,1,0,2,1
45,983,6,61,57,1,1,1,7.527651e-01,NaN,1,1,2,1
45,984,6,81,58,2,2,1,9.055872e-01,NaN,1,0,2,1
45,985,6,98,66,1,1,1,1.156166e+00,NaN,1,0,3,1
45,986,6,34,23,1,1,1,9.964892e-01,NaN,1,0,1,1
45,987,6,90,39,1,1,1,7.872288e-01,NaN,1,1,2,1
45,988,6,89,61,2,2,1,7.148049e-01,NaN,1,0,2,1
45,989,6,20,52,2,1,0,8.929935e-01,NaN,1,1,1,1
45,990,6,60,43,2,1,0,1.143975e+00,NaN,1,0,2,1
45,991,6,80,12,1,1,1,8.724076e-01,NaN,1,0,2,1
45,992,6,24,17,2,2,1,8.763107e-01,NaN,1,0,1,1
45,993,6,99,19,1,1,1,1.248387e+00,NaN,1,1,3,1
45,994,6,51,64,2,2,1,6.369085e-01,NaN,1,1,2,1
45,995,6,37,8,1,1,1,1.241383e+00,NaN,1,1,1,1
45,996,6,63,69,2,2,1,6.785066e-01,NaN,1,0,2,1
45,997,6,114,34,2,2,1,9.301379e-01,NaN,1,0,3,1
45,998,6,1,15,1,1,1,8.358116e-01,NaN,1,1,1,1
45,999,6,116,10,1,2,0,1.113114e+00,NaN,1,0,3,1
45,1000,6,66,51,2,2,1,1.098976e+00,NaN,1,0,2,1
45,1001,6,95,32,2,1,0,7.732611e-01,NaN,1,0,2,1
45,1002,6,126,33,2,2,1,1.301325e+00,NaN,1,1,3,1
45,1003,6,12,46,2,1,0,1.071892e+00,NaN,1,0,1,1
45,1004,6,86,31,2,2,1,1.291364e+00,NaN,1,0,2,1
45,1005,6,85,13,2,2,1,7.739768e-01,NaN,1,0,2,1
45,1006,6,25,41,2,2,1,1.229476e+00,NaN,1,0,1,1
45,1007,6,45,7,1,2,0,1.426813e+00,NaN,1,1,1,1
45,1008,6,33,29,1,1,1,1.088700e+00,NaN,1,0,1,1
45,1009,6,101,47,1,1,1,1.091164e+00,NaN,1,0,3,1
45,1010,6,70,25,2,2,1,7.897462e-01,NaN,1,0,2,1
45,1011,6,21,59,2,2,1,8.612462e-01,NaN,1,1,1,1
45,1012,6,39,37,1,1,1,9.048416e-01,NaN,1,0,1,1
45,1013,6,104,5,2,2,1,1.139349e+00,NaN,1,0,3,1
45,1014,6,119,20,2,2,1,1.468221e+00,NaN,1,0,3,1
45,1015,6,137,54,1,1,1,1.287959e+00,NaN,1,0,3,1
45,1016,6,115,18,2,1,0,1.427410e+00,NaN,1,0,3,1
45,1017,6,139,72,1,1,1,1.048599e+00,NaN,1,1,3,1
45,1018,6,56,48,2,2,1,7.254121e-01,NaN,1,1,2,1
45,1019,6,35,70,2,2,1,1.198640e+00,NaN,1,0,1,1
45,1020,6,130,40,1,1,1,9.574052e-01,NaN,1,0,3,1
45,1021,6,74,67,2,2,1,9.096325e-01,NaN,1,1,2,1
45,1022,6,14,26,1,1,1,1.328018e+00,NaN,1,0,1,1
45,1023,6,55,68,1,1,1,1.001344e+00,NaN,1,1,2,1
45,1024,6,106,22,1,1,1,9.840377e-01,NaN,1,0,3,1
45,1025,6,32,56,2,2,1,1.207643e+00,NaN,1,0,1,1
45,1026,6,42,2,1,1,1,1.461790e+00,NaN,1,0,1,1
45,1027,6,73,28,2,2,1,9.059503e-01,NaN,1,0,2,1
45,1028,6,133,62,1,1,1,1.036275e+00,NaN,1,0,3,1
45,1029,6,105,55,1,1,1,1.545728e+00,NaN,1,0,3,1
45,1030,6,13,36,1,1,1,9.461801e-01,NaN,1,0,1,1
45,1031,6,96,65,2,2,1,8.108574e-01,NaN,1,0,2,1
45,1032,6,144,60,1,1,1,1.321627e+00,NaN,1,0,3,1
45,1033,6,15,24,2,2,1,1.035445e+00,NaN,1,0,1,1
45,1034,6,19,9,1,1,1,9.202258e-01,NaN,1,0,1,1
45,1035,6,87,14,1,1,1,7.538252e-01,NaN,1,0,2,1
45,1036,6,30,49,2,2,1,1.297958e+00,NaN,1,0,1,1
45,1037,6,109,42,2,2,1,1.060775e+00,NaN,1,1,3,1
45,1038,6,143,1,1,2,0,1.624959e+00,NaN,1,0,3,1
