Subject,Trial,Cond,ImageNum,CueNum,Correct,Resp,Accuracy,RT,CueRep,ImageType,Baseline,Category,Block
10,1,1,109,NaN,NaN,1,NaN,1.116875e+00,NaN,0,1,3,1
10,2,1,82,NaN,NaN,1,NaN,1.302971e+00,NaN,1,0,2,1
10,3,1,108,NaN,NaN,2,NaN,3.212782e+00,NaN,0,0,3,1
10,4,1,130,NaN,NaN,1,NaN,2.462029e+00,NaN,2,1,3,1
10,5,1,14,NaN,NaN,1,NaN,4.377221e-01,NaN,2,0,1,1
10,6,1,65,NaN,NaN,1,NaN,5.425282e-01,NaN,0,0,2,1
10,7,1,112,NaN,NaN,1,NaN,4.990418e-01,NaN,0,1,3,1
10,8,1,67,NaN,NaN,1,NaN,4.576061e-01,NaN,0,0,2,1
10,9,1,1,NaN,NaN,1,NaN,4.495510e-01,NaN,1,0,1,1
10,10,1,18,NaN,NaN,1,NaN,6.497687e-01,NaN,0,0,1,1
10,11,1,86,NaN,NaN,1,NaN,5.300534e-01,NaN,0,1,2,1
10,12,1,51,NaN,NaN,1,NaN,5.593943e-01,NaN,0,0,2,1
10,13,1,40,NaN,NaN,1,NaN,6.674799e-01,NaN,0,0,1,1
10,14,1,15,NaN,NaN,1,NaN,4.681005e-01,NaN,1,0,1,1
10,15,1,82,NaN,NaN,1,NaN,3.544563e-01,NaN,0,0,2,1
10,16,1,50,NaN,NaN,1,NaN,4.307845e-01,NaN,1,0,2,1
10,17,1,123,NaN,NaN,1,NaN,4.634952e-01,NaN,0,1,3,1
10,18,1,4,NaN,NaN,1,NaN,4.793797e-01,NaN,0,0,1,1
10,19,1,130,NaN,NaN,1,NaN,9.261292e-01,NaN,0,1,3,1
10,20,1,89,NaN,NaN,1,NaN,7.317550e-01,NaN,1,0,2,1
10,21,1,1,NaN,NaN,1,NaN,9.286834e-01,NaN,0,0,1,1
10,22,1,138,NaN,NaN,1,NaN,5.092280e-01,NaN,0,0,3,1
10,23,1,112,NaN,NaN,1,NaN,6.193451e-01,NaN,2,1,3,1
10,24,1,33,NaN,NaN,1,NaN,4.927310e-01,NaN,0,0,1,1
10,25,1,80,NaN,NaN,1,NaN,5.230946e-01,NaN,0,0,2,1
10,26,1,132,NaN,NaN,2,NaN,1.280448e+00,NaN,2,0,3,1
10,27,1,129,NaN,NaN,1,NaN,2.191281e+00,NaN,2,0,3,1
10,28,1,76,NaN,NaN,1,NaN,5.942642e-01,NaN,0,0,2,1
10,29,1,106,NaN,NaN,1,NaN,7.725009e-01,NaN,0,0,3,1
10,30,1,16,NaN,NaN,1,NaN,5.922668e-01,NaN,0,1,1,1
10,31,1,122,NaN,NaN,2,NaN,6.026392e-01,NaN,1,1,3,1
10,32,1,10,NaN,NaN,1,NaN,4.847369e-01,NaN,0,0,1,1
10,33,1,13,NaN,NaN,1,NaN,6.282049e-01,NaN,2,0,1,1
10,34,1,132,NaN,NaN,1,NaN,3.044605e+00,NaN,0,0,3,1
10,35,1,111,NaN,NaN,1,NaN,8.372245e-01,NaN,1,1,3,1
10,36,1,19,NaN,NaN,1,NaN,7.094807e-01,NaN,1,0,1,1
10,37,1,56,NaN,NaN,1,NaN,5.957136e-01,NaN,1,0,2,1
10,38,1,6,NaN,NaN,1,NaN,5.982099e-01,NaN,2,1,1,1
10,39,1,47,NaN,NaN,1,NaN,7.924109e-01,NaN,0,0,1,1
10,40,1,125,NaN,NaN,1,NaN,1.195232e+00,NaN,1,0,3,1
10,41,1,48,NaN,NaN,1,NaN,5.890141e-01,NaN,0,0,1,1
10,42,1,65,NaN,NaN,1,NaN,8.081151e-01,NaN,1,0,2,1
10,43,1,28,NaN,NaN,1,NaN,1.770114e+00,NaN,2,1,1,1
10,44,1,122,NaN,NaN,2,NaN,8.292648e-01,NaN,0,1,3,1
10,45,1,134,NaN,NaN,2,NaN,1.535368e+00,NaN,2,0,3,1
10,46,1,61,NaN,NaN,1,NaN,6.668645e-01,NaN,0,0,2,1
10,47,1,2,NaN,NaN,1,NaN,5.143395e-01,NaN,0,0,1,1
10,48,1,24,NaN,NaN,1,NaN,7.602685e-01,NaN,0,1,1,1
10,49,1,34,NaN,NaN,1,NaN,5.001991e-01,NaN,0,0,1,1
10,50,1,110,NaN,NaN,1,NaN,5.063767e-01,NaN,2,0,3,1
10,51,1,36,NaN,NaN,2,NaN,5.609648e-01,NaN,0,1,1,1
10,52,1,29,NaN,NaN,1,NaN,5.407506e-01,NaN,0,0,1,1
10,53,1,118,NaN,NaN,1,NaN,4.092104e-01,NaN,2,0,3,1
10,54,1,46,NaN,NaN,2,NaN,9.878156e-01,NaN,2,0,1,1
10,55,1,21,NaN,NaN,1,NaN,4.624849e-01,NaN,0,0,1,1
10,56,1,91,NaN,NaN,1,NaN,5.415852e-01,NaN,2,0,2,1
10,57,1,121,NaN,NaN,1,NaN,6.101930e-01,NaN,2,0,3,1
10,58,1,92,NaN,NaN,1,NaN,3.723825e-01,NaN,0,0,2,1
10,59,1,119,NaN,NaN,2,NaN,8.954372e-01,NaN,1,0,3,1
10,60,1,78,NaN,NaN,1,NaN,4.615818e-01,NaN,1,0,2,1
10,61,1,3,NaN,NaN,2,NaN,4.851619e-01,NaN,1,1,1,1
10,62,1,126,NaN,NaN,2,NaN,8.201097e-01,NaN,0,0,3,1
10,63,1,53,NaN,NaN,1,NaN,4.457779e-01,NaN,0,0,2,1
10,64,1,54,NaN,NaN,1,NaN,8.142985e-01,NaN,0,0,2,1
10,65,1,96,NaN,NaN,1,NaN,1.503872e+00,NaN,0,1,2,1
10,66,1,25,NaN,NaN,1,NaN,7.096947e-01,NaN,0,0,1,1
10,67,1,77,NaN,NaN,1,NaN,1.107548e+00,NaN,0,0,2,1
10,68,1,25,NaN,NaN,1,NaN,1.153422e+00,NaN,2,0,1,1
10,69,1,101,NaN,NaN,2,NaN,4.997518e+00,NaN,1,0,3,1
10,70,1,95,NaN,NaN,1,NaN,1.102999e+00,NaN,0,0,2,1
10,71,1,5,NaN,NaN,1,NaN,6.055125e-01,NaN,0,0,1,1
10,72,1,37,NaN,NaN,2,NaN,4.636425e-01,NaN,0,0,1,1
10,73,1,34,NaN,NaN,1,NaN,8.149662e-01,NaN,1,0,1,1
10,74,1,84,NaN,NaN,1,NaN,6.488019e-01,NaN,1,0,2,1
10,75,1,144,NaN,NaN,1,NaN,4.571799e-01,NaN,2,0,3,1
10,76,1,12,NaN,NaN,1,NaN,1.489087e+00,NaN,1,0,1,1
10,77,1,71,NaN,NaN,1,NaN,1.159604e+00,NaN,0,0,2,1
10,78,1,113,NaN,NaN,1,NaN,2.827479e+00,NaN,0,1,3,1
10,79,1,60,NaN,NaN,1,NaN,1.444775e+00,NaN,2,0,2,1
10,80,1,68,NaN,NaN,1,NaN,2.252845e+00,NaN,2,1,2,1
10,81,1,70,NaN,NaN,1,NaN,1.237154e+00,NaN,0,1,2,1
10,82,1,134,NaN,NaN,2,NaN,1.901774e+00,NaN,0,0,3,1
10,83,1,21,NaN,NaN,1,NaN,2.292050e+00,NaN,2,0,1,1
10,84,1,120,NaN,NaN,1,NaN,2.778441e+00,NaN,0,0,3,1
10,85,1,71,NaN,NaN,1,NaN,7.812868e-01,NaN,1,0,2,1
10,86,1,100,NaN,NaN,2,NaN,9.922627e-01,NaN,2,0,3,1
10,87,1,94,NaN,NaN,1,NaN,4.908780e-01,NaN,1,1,2,1
10,88,1,137,NaN,NaN,1,NaN,1.065525e+00,NaN,2,0,3,1
10,89,1,83,NaN,NaN,1,NaN,7.210514e-01,NaN,0,1,2,1
10,90,1,13,NaN,NaN,1,NaN,8.623757e-01,NaN,0,0,1,1
10,91,1,115,NaN,NaN,1,NaN,3.621827e+00,NaN,0,0,3,1
10,92,1,90,NaN,NaN,1,NaN,1.982935e+00,NaN,0,0,2,1
10,93,1,64,NaN,NaN,1,NaN,1.761977e+00,NaN,0,0,2,1
10,94,1,24,NaN,NaN,1,NaN,1.005862e+00,NaN,2,1,1,1
10,95,1,11,NaN,NaN,1,NaN,1.191843e+00,NaN,2,1,1,1
10,96,1,26,NaN,NaN,1,NaN,5.704124e-01,NaN,1,1,1,1
10,97,1,41,NaN,NaN,1,NaN,4.455642e-01,NaN,0,0,1,1
10,98,1,56,NaN,NaN,1,NaN,6.138209e-01,NaN,0,0,2,1
10,99,1,62,NaN,NaN,1,NaN,1.095681e+00,NaN,0,1,2,1
10,100,1,74,NaN,NaN,1,NaN,6.458057e-01,NaN,2,0,2,1
10,101,1,7,NaN,NaN,1,NaN,3.660729e-01,NaN,2,0,1,1
10,102,1,85,NaN,NaN,1,NaN,4.179154e-01,NaN,2,0,2,1
10,103,1,7,NaN,NaN,1,NaN,4.438421e-01,NaN,0,0,1,1
10,104,1,9,NaN,NaN,1,NaN,3.803477e-01,NaN,0,0,1,1
10,105,1,76,NaN,NaN,1,NaN,7.114566e-01,NaN,2,0,2,1
10,106,1,124,NaN,NaN,1,NaN,8.532512e-01,NaN,1,0,3,1
10,107,1,96,NaN,NaN,1,NaN,3.650062e-01,NaN,2,1,2,1
10,108,1,86,NaN,NaN,1,NaN,4.728531e-01,NaN,1,1,2,1
10,109,1,133,NaN,NaN,2,NaN,8.883897e-01,NaN,2,1,3,1
10,110,1,118,NaN,NaN,1,NaN,5.505676e-01,NaN,0,0,3,1
10,111,1,32,NaN,NaN,1,NaN,4.829560e-01,NaN,2,0,1,1
10,112,1,91,NaN,NaN,1,NaN,5.383032e-01,NaN,0,0,2,1
10,113,1,72,NaN,NaN,1,NaN,5.030929e-01,NaN,0,0,2,1
10,114,1,102,NaN,NaN,2,NaN,1.780622e+00,NaN,0,0,3,1
10,115,1,87,NaN,NaN,1,NaN,7.517790e-01,NaN,0,0,2,1
10,116,1,57,NaN,NaN,1,NaN,3.401939e-01,NaN,1,0,2,1
10,117,1,14,NaN,NaN,1,NaN,5.049695e-01,NaN,0,0,1,1
10,118,1,79,NaN,NaN,1,NaN,3.590402e-01,NaN,0,0,2,1
10,119,1,2,NaN,NaN,1,NaN,4.109461e-01,NaN,2,0,1,1
10,120,1,38,NaN,NaN,1,NaN,5.092826e-01,NaN,0,0,1,1
10,121,1,88,NaN,NaN,1,NaN,1.459308e+00,NaN,1,0,2,1
10,122,1,139,NaN,NaN,1,NaN,1.242953e+00,NaN,2,0,3,1
10,123,1,72,NaN,NaN,1,NaN,4.196001e-01,NaN,2,0,2,1
10,124,1,125,NaN,NaN,1,NaN,1.660823e+00,NaN,0,0,3,1
10,125,1,75,NaN,NaN,1,NaN,7.726023e-01,NaN,0,0,2,1
10,126,1,45,NaN,NaN,2,NaN,1.616084e+00,NaN,0,1,1,1
10,127,1,10,NaN,NaN,1,NaN,1.321742e+00,NaN,1,0,1,1
10,128,1,117,NaN,NaN,2,NaN,1.879100e+00,NaN,0,0,3,1
10,129,1,127,NaN,NaN,1,NaN,4.301189e-01,NaN,1,0,3,1
10,130,1,97,NaN,NaN,1,NaN,1.070759e+00,NaN,2,0,3,1
10,131,1,18,NaN,NaN,1,NaN,2.110554e+00,NaN,2,0,1,1
10,132,1,127,NaN,NaN,1,NaN,1.036027e+00,NaN,0,0,3,1
10,133,1,29,NaN,NaN,1,NaN,1.076580e+00,NaN,2,0,1,1
10,134,1,111,NaN,NaN,1,NaN,4.760660e-01,NaN,0,1,3,1
10,135,1,102,NaN,NaN,1,NaN,7.235915e-01,NaN,1,0,3,1
10,136,1,70,NaN,NaN,1,NaN,1.097730e+00,NaN,1,1,2,1
10,137,1,54,NaN,NaN,1,NaN,5.672412e-01,NaN,1,0,2,1
10,138,1,143,NaN,NaN,1,NaN,5.630334e-01,NaN,0,1,3,1
10,139,1,83,NaN,NaN,1,NaN,2.944539e-01,NaN,2,1,2,1
10,140,1,48,NaN,NaN,1,NaN,3.653642e-01,NaN,1,0,1,1
10,141,1,69,NaN,NaN,1,NaN,4.889166e-01,NaN,1,1,2,1
10,142,1,90,NaN,NaN,1,NaN,5.357577e-01,NaN,1,0,2,1
10,143,1,142,NaN,NaN,2,NaN,3.228337e+00,NaN,2,0,3,1
10,144,1,58,NaN,NaN,1,NaN,7.658310e-01,NaN,2,1,2,1
10,145,1,77,NaN,NaN,1,NaN,4.502618e-01,NaN,1,0,2,1
10,146,1,50,NaN,NaN,1,NaN,4.413250e-01,NaN,0,0,2,1
10,147,1,121,NaN,NaN,1,NaN,3.222448e-01,NaN,0,0,3,1
10,148,1,105,NaN,NaN,2,NaN,1.071752e+00,NaN,1,1,3,1
10,149,1,49,NaN,NaN,1,NaN,7.668195e-01,NaN,2,0,2,1
10,150,1,140,NaN,NaN,1,NaN,6.506766e-01,NaN,0,0,3,1
10,151,1,4,NaN,NaN,1,NaN,4.587954e-01,NaN,2,0,1,1
10,152,1,117,NaN,NaN,2,NaN,5.953206e-01,NaN,1,0,3,1
10,153,1,137,NaN,NaN,1,NaN,4.536374e-01,NaN,0,0,3,1
10,154,1,39,NaN,NaN,2,NaN,8.615076e-01,NaN,1,0,1,1
10,155,1,8,NaN,NaN,1,NaN,3.570619e-01,NaN,1,0,1,1
10,156,1,43,NaN,NaN,1,NaN,3.290050e-01,NaN,0,1,1,1
10,157,1,115,NaN,NaN,2,NaN,5.184781e-01,NaN,1,0,3,1
10,158,1,136,NaN,NaN,1,NaN,3.796000e-01,NaN,2,0,3,1
10,159,1,15,NaN,NaN,1,NaN,3.269337e-01,NaN,0,0,1,1
10,160,1,55,NaN,NaN,1,NaN,3.882890e-01,NaN,2,0,2,1
10,161,1,22,NaN,NaN,2,NaN,6.947985e-01,NaN,0,0,1,1
10,162,1,64,NaN,NaN,1,NaN,3.572701e-01,NaN,2,0,2,1
10,163,1,44,NaN,NaN,1,NaN,1.209049e+00,NaN,1,1,1,1
10,164,1,109,NaN,NaN,1,NaN,5.072967e-01,NaN,1,1,3,1
10,165,1,45,NaN,NaN,2,NaN,6.413287e-01,NaN,1,1,1,1
10,166,1,143,NaN,NaN,1,NaN,3.623324e-01,NaN,2,1,3,1
10,167,1,67,NaN,NaN,1,NaN,6.136259e-01,NaN,1,0,2,1
10,168,1,23,NaN,NaN,1,NaN,1.895471e+00,NaN,2,0,1,1
10,169,1,17,NaN,NaN,1,NaN,4.058563e-01,NaN,0,1,1,1
10,170,1,68,NaN,NaN,1,NaN,3.918161e-01,NaN,0,1,2,1
10,171,1,84,NaN,NaN,1,NaN,4.342802e-01,NaN,0,0,2,1
10,172,1,103,NaN,NaN,1,NaN,5.235468e-01,NaN,2,0,3,1
10,173,1,28,NaN,NaN,2,NaN,3.609596e-01,NaN,0,1,1,1
10,174,1,107,NaN,NaN,1,NaN,3.408423e-01,NaN,0,0,3,1
10,175,1,113,NaN,NaN,1,NaN,4.256748e-01,NaN,1,1,3,1
10,176,1,59,NaN,NaN,1,NaN,6.202494e+00,NaN,0,0,2,1
10,177,1,131,NaN,NaN,2,NaN,7.883214e-01,NaN,1,0,3,1
10,178,1,108,NaN,NaN,2,NaN,8.148868e-01,NaN,2,0,3,1
10,179,1,136,NaN,NaN,1,NaN,2.056967e+00,NaN,0,0,3,1
10,180,1,57,NaN,NaN,1,NaN,5.848096e-01,NaN,0,0,2,1
10,181,1,128,NaN,NaN,1,NaN,3.318481e-01,NaN,1,1,3,1
10,182,1,60,NaN,NaN,1,NaN,4.004257e-01,NaN,0,0,2,1
10,183,1,46,NaN,NaN,2,NaN,4.669806e-01,NaN,0,0,1,1
10,184,1,141,NaN,NaN,1,NaN,1.090744e+00,NaN,0,0,3,1
10,185,1,27,NaN,NaN,1,NaN,6.895831e-01,NaN,1,0,1,1
10,186,1,120,NaN,NaN,1,NaN,3.520472e-01,NaN,1,0,3,1
10,187,1,88,NaN,NaN,1,NaN,3.642848e-01,NaN,0,0,2,1
10,188,1,133,NaN,NaN,2,NaN,2.344095e+00,NaN,0,1,3,1
10,189,1,79,NaN,NaN,1,NaN,4.849125e-01,NaN,2,0,2,1
10,190,1,32,NaN,NaN,1,NaN,2.839925e-01,NaN,0,0,1,1
10,191,1,30,NaN,NaN,2,NaN,3.147445e-01,NaN,1,0,1,1
10,192,1,105,NaN,NaN,1,NaN,1.608850e+00,NaN,0,1,3,1
10,193,1,129,NaN,NaN,1,NaN,9.305697e-01,NaN,0,0,3,1
10,194,1,119,NaN,NaN,1,NaN,5.926571e-01,NaN,0,0,3,1
10,195,1,93,NaN,NaN,1,NaN,9.379934e-01,NaN,0,0,2,1
10,196,1,93,NaN,NaN,1,NaN,4.306990e-01,NaN,2,0,2,1
10,197,1,140,NaN,NaN,1,NaN,4.636850e-01,NaN,1,0,3,1
10,198,1,49,NaN,NaN,1,NaN,3.678807e-01,NaN,0,0,2,1
10,199,1,52,NaN,NaN,1,NaN,4.113680e-01,NaN,2,1,2,1
10,200,1,33,NaN,NaN,1,NaN,8.286357e-01,NaN,2,0,1,1
10,201,1,75,NaN,NaN,1,NaN,3.498757e-01,NaN,1,0,2,1
10,202,1,31,NaN,NaN,1,NaN,3.546555e-01,NaN,1,0,1,1
10,203,1,61,NaN,NaN,1,NaN,3.587018e-01,NaN,2,0,2,1
10,204,1,116,NaN,NaN,1,NaN,5.784745e-01,NaN,1,0,3,1
10,205,1,39,NaN,NaN,2,NaN,5.335974e-01,NaN,0,0,1,1
10,206,1,106,NaN,NaN,1,NaN,7.543737e-01,NaN,1,0,3,1
10,207,1,17,NaN,NaN,2,NaN,3.798741e+00,NaN,2,1,1,1
10,208,1,42,NaN,NaN,1,NaN,8.329473e-01,NaN,2,0,1,1
10,209,1,9,NaN,NaN,1,NaN,4.658559e-01,NaN,1,0,1,1
10,210,1,35,NaN,NaN,2,NaN,6.651593e-01,NaN,2,0,1,1
10,211,1,114,NaN,NaN,1,NaN,4.009579e-01,NaN,0,0,3,1
10,212,1,22,NaN,NaN,2,NaN,1.051351e+00,NaN,1,0,1,1
10,213,1,55,NaN,NaN,1,NaN,6.997726e-01,NaN,0,0,2,1
10,214,1,81,NaN,NaN,1,NaN,3.697884e-01,NaN,1,0,2,1
10,215,1,99,NaN,NaN,2,NaN,7.655291e-01,NaN,0,0,3,1
10,216,1,20,NaN,NaN,1,NaN,6.729706e-01,NaN,0,0,1,1
10,217,1,104,NaN,NaN,2,NaN,7.765505e-01,NaN,1,1,3,1
10,218,1,41,NaN,NaN,1,NaN,3.638954e-01,NaN,1,0,1,1
10,219,1,16,NaN,NaN,1,NaN,4.315460e-01,NaN,2,1,1,1
10,220,1,42,NaN,NaN,1,NaN,6.087695e-01,NaN,0,0,1,1
10,221,1,19,NaN,NaN,1,NaN,4.267158e-01,NaN,0,0,1,1
10,222,1,98,NaN,NaN,1,NaN,3.559568e-01,NaN,0,0,3,1
10,223,1,126,NaN,NaN,1,NaN,1.607810e+00,NaN,2,0,3,1
10,224,1,99,NaN,NaN,2,NaN,7.140549e-01,NaN,1,0,3,1
10,225,1,85,NaN,NaN,1,NaN,4.400388e-01,NaN,0,0,2,1
10,226,1,131,NaN,NaN,1,NaN,4.322001e-01,NaN,0,0,3,1
10,227,1,11,NaN,NaN,1,NaN,6.813650e-01,NaN,0,1,1,1
10,228,1,92,NaN,NaN,1,NaN,4.962868e-01,NaN,2,0,2,1
10,229,1,59,NaN,NaN,1,NaN,5.504466e-01,NaN,2,0,2,1
10,230,1,69,NaN,NaN,1,NaN,5.629027e-01,NaN,0,1,2,1
10,231,1,58,NaN,NaN,1,NaN,6.948938e-01,NaN,0,1,2,1
10,232,1,20,NaN,NaN,1,NaN,4.369838e-01,NaN,1,0,1,1
10,233,1,107,NaN,NaN,1,NaN,3.821361e-01,NaN,2,0,3,1
10,234,1,135,NaN,NaN,1,NaN,4.247270e-01,NaN,1,1,3,1
10,235,1,5,NaN,NaN,1,NaN,3.785508e-01,NaN,2,0,1,1
10,236,1,73,NaN,NaN,1,NaN,3.413395e-01,NaN,1,0,2,1
10,237,1,101,NaN,NaN,1,NaN,3.061038e-01,NaN,0,0,3,1
10,238,1,38,NaN,NaN,1,NaN,7.680115e-01,NaN,1,0,1,1
10,239,1,139,NaN,NaN,1,NaN,8.038666e-01,NaN,0,0,3,1
10,240,1,110,NaN,NaN,1,NaN,4.621438e-01,NaN,0,0,3,1
10,241,1,89,NaN,NaN,1,NaN,3.338914e-01,NaN,0,0,2,1
10,242,1,97,NaN,NaN,1,NaN,4.904162e-01,NaN,0,0,3,1
10,243,1,63,NaN,NaN,1,NaN,3.936085e-01,NaN,0,0,2,1
10,244,1,44,NaN,NaN,1,NaN,5.078875e-01,NaN,0,1,1,1
10,245,1,87,NaN,NaN,1,NaN,3.460812e-01,NaN,2,0,2,1
10,246,1,135,NaN,NaN,1,NaN,8.063804e-01,NaN,0,1,3,1
10,247,1,73,NaN,NaN,1,NaN,4.245305e-01,NaN,0,0,2,1
10,248,1,98,NaN,NaN,1,NaN,3.374649e-01,NaN,1,0,3,1
10,249,1,104,NaN,NaN,1,NaN,1.462539e+00,NaN,0,1,3,1
10,250,1,116,NaN,NaN,1,NaN,3.257342e-01,NaN,0,0,3,1
10,251,1,66,NaN,NaN,1,NaN,3.474754e-01,NaN,1,1,2,1
10,252,1,23,NaN,NaN,1,NaN,1.543928e+00,NaN,0,0,1,1
10,253,1,52,NaN,NaN,1,NaN,3.966629e-01,NaN,0,1,2,1
10,254,1,47,NaN,NaN,1,NaN,4.708730e-01,NaN,1,0,1,1
10,255,1,94,NaN,NaN,1,NaN,3.664222e-01,NaN,0,1,2,1
10,256,1,138,NaN,NaN,1,NaN,1.161681e+00,NaN,2,0,3,1
10,257,1,12,NaN,NaN,1,NaN,5.656094e-01,NaN,0,0,1,1
10,258,1,62,NaN,NaN,1,NaN,4.571509e-01,NaN,2,1,2,1
10,259,1,100,NaN,NaN,2,NaN,3.689520e-01,NaN,0,0,3,1
10,260,1,142,NaN,NaN,2,NaN,4.928747e-01,NaN,0,0,3,1
10,261,1,3,NaN,NaN,2,NaN,3.956245e-01,NaN,0,1,1,1
10,262,1,53,NaN,NaN,1,NaN,7.340152e-01,NaN,2,0,2,1
10,263,1,63,NaN,NaN,1,NaN,4.588796e-01,NaN,2,0,2,1
10,264,1,78,NaN,NaN,1,NaN,4.186055e-01,NaN,0,0,2,1
10,265,1,51,NaN,NaN,1,NaN,3.323232e-01,NaN,1,0,2,1
10,266,1,36,NaN,NaN,1,NaN,8.491967e-01,NaN,2,1,1,1
10,267,1,31,NaN,NaN,1,NaN,3.457516e-01,NaN,0,0,1,1
10,268,1,26,NaN,NaN,1,NaN,3.105071e-01,NaN,0,1,1,1
10,269,1,95,NaN,NaN,1,NaN,3.326185e-01,NaN,1,0,2,1
10,270,1,81,NaN,NaN,1,NaN,3.534599e-01,NaN,0,0,2,1
10,271,1,40,NaN,NaN,1,NaN,3.895734e-01,NaN,1,0,1,1
10,272,1,66,NaN,NaN,1,NaN,6.883012e-01,NaN,0,1,2,1
10,273,1,8,NaN,NaN,1,NaN,4.467655e-01,NaN,0,0,1,1
10,274,1,123,NaN,NaN,1,NaN,5.271478e-01,NaN,2,1,3,1
10,275,1,124,NaN,NaN,1,NaN,2.289416e-01,NaN,0,0,3,1
10,276,1,114,NaN,NaN,1,NaN,3.735814e-01,NaN,1,0,3,1
10,277,1,27,NaN,NaN,1,NaN,6.571929e-01,NaN,0,0,1,1
10,278,1,103,NaN,NaN,1,NaN,3.853997e-01,NaN,0,0,3,1
10,279,1,6,NaN,NaN,1,NaN,4.120234e-01,NaN,0,1,1,1
10,280,1,37,NaN,NaN,2,NaN,1.581808e+00,NaN,2,0,1,1
10,281,1,141,NaN,NaN,1,NaN,4.490013e-01,NaN,2,0,3,1
10,282,1,144,NaN,NaN,1,NaN,5.454184e-01,NaN,0,0,3,1
10,283,1,80,NaN,NaN,1,NaN,3.255926e-01,NaN,2,0,2,1
10,284,1,74,NaN,NaN,1,NaN,3.312429e-01,NaN,0,0,2,1
10,285,1,128,NaN,NaN,1,NaN,4.401608e-01,NaN,0,1,3,1
10,286,1,43,NaN,NaN,1,NaN,1.208891e+00,NaN,1,1,1,1
10,287,1,30,NaN,NaN,2,NaN,1.138594e+00,NaN,0,0,1,1
10,288,1,35,NaN,NaN,2,NaN,4.473991e-01,NaN,0,0,1,1
10,357,2,8,12,2,2,1,3.430306e+00,NaN,1,0,1,1
10,358,2,9,39,1,1,1,3.459325e+00,NaN,1,0,1,1
10,359,2,30,9,2,2,1,1.646121e+00,NaN,1,0,1,1
10,360,2,43,32,1,0,0,3.499516e+00,NaN,1,1,1,1
10,361,2,116,56,1,1,1,2.251527e+00,NaN,1,0,3,1
10,362,2,101,3,2,2,1,2.063402e+00,NaN,1,0,3,1
10,363,2,86,31,1,2,0,2.442556e+00,NaN,1,1,2,1
10,364,2,104,5,1,1,1,3.270126e+00,NaN,1,1,3,1
10,365,2,1,72,2,2,1,1.728861e+00,NaN,1,0,1,1
10,366,2,106,46,2,1,0,1.265528e+00,NaN,1,0,3,1
10,367,2,51,42,2,2,1,1.892369e+00,NaN,1,0,2,1
10,368,2,41,34,2,2,1,2.605909e+00,NaN,1,0,1,1
10,369,2,75,18,1,1,1,9.472417e-01,NaN,1,0,2,1
10,370,2,57,69,2,2,1,1.522961e+00,NaN,1,0,2,1
10,371,2,69,29,2,2,1,1.091418e+00,NaN,1,1,2,1
10,372,2,20,62,1,1,1,1.221602e+00,NaN,1,0,1,1
10,373,2,3,54,1,2,0,1.177793e+00,NaN,1,1,1,1
10,374,2,67,10,1,2,0,1.928752e+00,NaN,1,0,2,1
10,375,2,65,61,1,1,1,1.297029e+00,NaN,1,0,2,1
10,376,2,128,45,2,1,0,1.794510e+00,NaN,1,1,3,1
10,377,2,70,70,1,1,1,1.104294e+00,NaN,1,1,2,1
10,378,2,66,49,2,1,0,6.820121e-01,NaN,1,1,2,1
10,379,2,12,7,1,1,1,1.108043e+00,NaN,1,0,1,1
10,380,2,34,2,2,1,0,9.655144e-01,NaN,1,0,1,1
10,381,3,69,29,2,2,1,9.954001e-01,NaN,1,1,2,1
10,382,3,43,32,2,1,0,1.361272e+00,NaN,1,1,1,1
10,383,3,3,54,1,2,0,1.592660e+00,NaN,1,1,1,1
10,384,3,75,18,2,2,1,1.302348e+00,NaN,1,0,2,1
10,385,3,65,61,1,1,1,1.271935e+00,NaN,1,0,2,1
10,386,3,86,31,1,2,0,1.346320e+00,NaN,1,1,2,1
10,387,3,116,56,1,1,1,1.937987e+00,NaN,1,0,3,1
10,388,3,70,70,1,1,1,9.942622e-01,NaN,1,1,2,1
10,389,3,128,45,2,1,0,1.752310e+00,NaN,1,1,3,1
10,390,3,106,46,1,2,0,1.031616e+00,NaN,1,0,3,1
10,391,3,8,12,2,2,1,1.404258e+00,NaN,1,0,1,1
10,392,3,30,9,2,2,1,1.049639e+00,NaN,1,0,1,1
10,393,3,41,34,1,1,1,1.380761e+00,NaN,1,0,1,1
10,394,3,1,72,2,1,0,1.051102e+00,NaN,1,0,1,1
10,395,3,20,62,1,1,1,1.390966e+00,NaN,1,0,1,1
10,396,3,67,10,2,1,0,1.196989e+00,NaN,1,0,2,1
10,397,3,51,42,2,2,1,1.066476e+00,NaN,1,0,2,1
10,398,3,12,7,1,2,0,8.772101e-01,NaN,1,0,1,1
10,399,3,34,2,2,2,1,1.975914e+00,NaN,1,0,1,1
10,400,3,104,5,1,2,0,1.302534e+00,NaN,1,1,3,1
10,401,3,66,49,2,1,0,1.336207e+00,NaN,1,1,2,1
10,402,3,9,39,1,2,0,2.192310e+00,NaN,1,0,1,1
10,403,3,57,69,2,2,1,9.184849e-01,NaN,1,0,2,1
10,404,3,101,3,1,1,1,9.431507e-01,NaN,1,0,3,1
10,429,2,122,14,1,1,1,2.070683e+00,NaN,1,1,3,2
10,430,2,73,57,1,1,1,2.073128e+00,NaN,1,0,2,2
10,431,2,39,37,1,1,1,1.443747e+00,NaN,1,0,1,2
10,432,2,10,50,1,1,1,9.678580e-01,NaN,1,0,1,2
10,433,2,98,8,1,0,0,3.499603e+00,NaN,1,0,3,2
10,434,2,102,24,2,1,0,9.683122e-01,NaN,1,0,3,2
10,435,2,105,55,2,2,1,1.559263e+00,NaN,1,1,3,2
10,436,2,125,66,2,1,0,2.246797e+00,NaN,1,0,3,2
10,437,2,71,71,2,2,1,1.242522e+00,NaN,1,0,2,2
10,438,2,40,52,1,1,1,9.102511e-01,NaN,1,0,1,2
10,439,2,47,68,2,2,1,1.751528e+00,NaN,1,0,1,2
10,440,2,124,19,2,2,1,1.054977e+00,NaN,1,0,3,2
10,441,2,31,6,2,2,1,1.706339e+00,NaN,1,0,1,2
10,442,2,44,28,1,1,1,1.355560e+00,NaN,1,1,1,2
10,443,2,77,44,1,1,1,1.419062e+00,NaN,1,0,2,2
10,444,2,81,20,1,1,1,1.479877e+00,NaN,1,0,2,2
10,445,2,135,27,1,1,1,1.185941e+00,NaN,1,1,3,2
10,446,2,38,15,2,2,1,2.112318e+00,NaN,1,0,1,2
10,447,2,27,33,2,2,1,1.457146e+00,NaN,1,0,1,2
10,448,2,119,51,1,1,1,1.572708e+00,NaN,1,0,3,2
10,449,2,50,38,1,1,1,1.291256e+00,NaN,1,0,2,2
10,450,2,78,63,2,2,1,1.220869e+00,NaN,1,0,2,2
10,451,2,56,26,1,1,1,9.137111e-01,NaN,1,0,2,2
10,452,2,26,17,2,2,1,1.450345e+00,NaN,1,1,1,2
10,453,3,27,33,1,2,0,1.095941e+00,NaN,1,0,1,2
10,454,3,40,52,2,2,1,1.369312e+00,NaN,1,0,1,2
10,455,3,77,44,1,1,1,1.080247e+00,NaN,1,0,2,2
10,456,3,31,6,2,2,1,9.142795e-01,NaN,1,0,1,2
10,457,3,39,37,1,1,1,1.019684e+00,NaN,1,0,1,2
10,458,3,47,68,1,1,1,1.424743e+00,NaN,1,0,1,2
10,459,3,124,19,2,2,1,1.757130e+00,NaN,1,0,3,2
10,460,3,56,26,2,2,1,8.043665e-01,NaN,1,0,2,2
10,461,3,71,71,2,2,1,7.378092e-01,NaN,1,0,2,2
10,462,3,105,55,2,2,1,1.121937e+00,NaN,1,1,3,2
10,463,3,50,38,1,1,1,6.826653e-01,NaN,1,0,2,2
10,464,3,81,20,1,1,1,7.010769e-01,NaN,1,0,2,2
10,465,3,10,50,1,1,1,7.825972e-01,NaN,1,0,1,2
10,466,3,98,8,2,1,0,1.708978e+00,NaN,1,0,3,2
10,467,3,78,63,2,2,1,8.303590e-01,NaN,1,0,2,2
10,468,3,73,57,1,2,0,8.024878e-01,NaN,1,0,2,2
10,469,3,102,24,1,1,1,1.375811e+00,NaN,1,0,3,2
10,470,3,135,27,2,2,1,9.350941e-01,NaN,1,1,3,2
10,471,3,122,14,2,2,1,1.087966e+00,NaN,1,1,3,2
10,472,3,26,17,1,1,1,1.905598e+00,NaN,1,1,1,2
10,473,3,125,66,1,1,1,1.066898e+00,NaN,1,0,3,2
10,474,3,38,15,2,2,1,1.213753e+00,NaN,1,0,1,2
10,475,3,119,51,1,1,1,1.322786e+00,NaN,1,0,3,2
10,476,3,44,28,1,1,1,1.275632e+00,NaN,1,1,1,2
10,501,2,22,60,1,1,1,2.558633e+00,NaN,1,0,1,3
10,502,2,90,35,2,1,0,1.157844e+00,NaN,1,0,2,3
10,503,2,94,41,2,1,0,1.213282e+00,NaN,1,1,2,3
10,504,2,19,58,2,2,1,1.210398e+00,NaN,1,0,1,3
10,505,2,111,43,1,1,1,1.143949e+00,NaN,1,1,3,3
10,506,2,89,1,1,1,1,7.999423e-01,NaN,1,0,2,3
10,507,2,54,21,2,2,1,9.817653e-01,NaN,1,0,2,3
10,508,2,82,65,1,1,1,1.068182e+00,NaN,1,0,2,3
10,509,2,127,59,2,2,1,1.342570e+00,NaN,1,0,3,3
10,510,2,45,30,2,2,1,1.502486e+00,NaN,1,1,1,3
10,511,2,99,25,1,1,1,1.336513e+00,NaN,1,0,3,3
10,512,2,15,48,1,1,1,9.926823e-01,NaN,1,0,1,3
10,513,2,113,47,2,2,1,2.231049e+00,NaN,1,1,3,3
10,514,2,117,16,2,2,1,1.411776e+00,NaN,1,0,3,3
10,515,2,140,53,1,1,1,1.449342e+00,NaN,1,0,3,3
10,516,2,115,36,2,1,0,2.140518e+00,NaN,1,0,3,3
10,517,2,48,67,2,1,0,1.300488e+00,NaN,1,0,1,3
10,518,2,88,40,2,2,1,1.302144e+00,NaN,1,0,2,3
10,519,2,95,4,1,2,0,1.151784e+00,NaN,1,0,2,3
10,520,2,109,11,2,2,1,1.247340e+00,NaN,1,1,3,3
10,521,2,131,22,1,1,1,1.131442e+00,NaN,1,0,3,3
10,522,2,120,13,2,2,1,1.379905e+00,NaN,1,0,3,3
10,523,2,84,64,1,1,1,1.010298e+00,NaN,1,0,2,3
10,524,2,114,23,2,2,1,2.279545e+00,NaN,1,0,3,3
10,525,3,84,64,1,1,1,5.988438e-01,NaN,1,0,2,3
10,526,3,19,58,2,2,1,7.006685e-01,NaN,1,0,1,3
10,527,3,117,16,2,2,1,1.822010e+00,NaN,1,0,3,3
10,528,3,115,36,1,1,1,2.011059e+00,NaN,1,0,3,3
10,529,3,140,53,1,1,1,1.639890e+00,NaN,1,0,3,3
10,530,3,54,21,2,2,1,7.243114e-01,NaN,1,0,2,3
10,531,3,90,35,2,1,0,9.486957e-01,NaN,1,0,2,3
10,532,3,109,11,2,2,1,8.123703e-01,NaN,1,1,3,3
10,533,3,15,48,1,2,0,1.041555e+00,NaN,1,0,1,3
10,534,3,120,13,2,2,1,1.133627e+00,NaN,1,0,3,3
10,535,3,99,25,1,1,1,1.510204e+00,NaN,1,0,3,3
10,536,3,22,60,1,1,1,9.353012e-01,NaN,1,0,1,3
10,537,3,111,43,2,2,1,1.375303e+00,NaN,1,1,3,3
10,538,3,45,30,2,2,1,1.150033e+00,NaN,1,1,1,3
10,539,3,48,67,2,2,1,1.021895e+00,NaN,1,0,1,3
10,540,3,88,40,2,2,1,7.462893e-01,NaN,1,0,2,3
10,541,3,113,47,2,1,0,2.074146e+00,NaN,1,1,3,3
10,542,3,82,65,2,2,1,1.508345e+00,NaN,1,0,2,3
10,543,3,89,1,1,1,1,8.059584e-01,NaN,1,0,2,3
10,544,3,127,59,2,2,1,1.618794e+00,NaN,1,0,3,3
10,545,3,131,22,2,2,1,1.336440e+00,NaN,1,0,3,3
10,546,3,114,23,1,1,1,1.505082e+00,NaN,1,0,3,3
10,547,3,95,4,1,2,0,1.122222e+00,NaN,1,0,2,3
10,548,3,94,41,2,2,1,9.867111e-01,NaN,1,1,2,3
10,573,4,6,27,1,1,1,1.366947e+00,NaN,2,1,1,1
10,574,4,68,45,1,1,1,8.698181e-01,NaN,2,1,2,1
10,575,4,139,67,1,1,1,1.081157e+00,NaN,2,0,3,1
10,576,4,132,7,1,1,1,1.267548e+00,NaN,2,0,3,1
10,577,4,121,40,1,1,1,9.425984e-01,NaN,2,0,3,1
10,578,4,61,23,1,1,1,6.946125e-01,NaN,2,0,2,1
10,579,4,74,58,1,1,1,1.480417e+00,NaN,2,0,2,1
10,580,4,92,12,1,1,1,1.426875e+00,NaN,2,0,2,1
10,581,4,18,46,2,2,1,1.400298e+00,NaN,2,0,1,1
10,582,4,87,34,1,1,1,1.189204e+00,NaN,2,0,2,1
10,583,4,83,32,2,2,1,1.226859e+00,NaN,2,1,2,1
10,584,4,123,49,1,1,1,1.568123e+00,NaN,2,1,3,1
10,585,4,130,54,1,2,0,2.174879e+00,NaN,2,1,3,1
10,586,4,64,3,1,2,0,2.101194e+00,NaN,2,0,2,1
10,587,4,60,24,2,2,1,1.366601e+00,NaN,2,0,2,1
10,588,4,32,42,2,2,1,1.606038e+00,NaN,2,0,1,1
10,589,4,134,48,1,1,1,1.347092e+00,NaN,2,0,3,1
10,590,4,35,35,2,2,1,1.602741e+00,NaN,2,0,1,1
10,591,4,126,64,1,1,1,1.848066e+00,NaN,2,0,3,1
10,592,4,16,14,2,1,0,1.452292e+00,NaN,2,1,1,1
10,593,4,25,61,1,1,1,1.479604e+00,NaN,2,0,1,1
10,594,4,42,38,1,1,1,1.362000e+00,NaN,2,0,1,1
10,595,4,59,13,1,1,1,1.536397e+00,NaN,2,0,2,1
10,596,4,36,29,2,1,0,1.200721e+00,NaN,2,1,1,1
10,621,4,141,72,1,1,1,2.042632e+00,NaN,2,0,3,2
10,622,4,11,47,2,2,1,1.070440e+00,NaN,2,1,1,2
10,623,4,118,26,1,1,1,1.721097e+00,NaN,2,0,3,2
10,624,4,24,70,2,2,1,1.105796e+00,NaN,2,1,1,2
10,625,4,91,62,1,1,1,1.179239e+00,NaN,2,0,2,2
10,626,4,14,66,2,2,1,2.017106e+00,NaN,2,0,1,2
10,627,4,129,21,1,1,1,1.486283e+00,NaN,2,0,3,2
10,628,4,137,37,2,2,1,1.080911e+00,NaN,2,0,3,2
10,629,4,37,44,2,1,0,1.970834e+00,NaN,2,0,1,2
10,630,4,52,55,1,1,1,9.138802e-01,NaN,2,1,2,2
10,631,4,110,69,1,1,1,1.371136e+00,NaN,2,0,3,2
10,632,4,5,36,1,1,1,1.242761e+00,NaN,2,0,1,2
10,633,4,4,51,1,1,1,1.053346e+00,NaN,2,0,1,2
10,634,4,29,10,2,2,1,1.392628e+00,NaN,2,0,1,2
10,635,4,142,39,1,1,1,1.710433e+00,NaN,2,0,3,2
10,636,4,138,6,1,1,1,1.224426e+00,NaN,2,0,3,2
10,637,4,112,31,1,1,1,2.101129e+00,NaN,2,1,3,2
10,638,4,93,9,2,2,1,7.350895e-01,NaN,2,0,2,2
10,639,4,96,28,1,1,1,8.069886e-01,NaN,2,1,2,2
10,640,4,23,65,1,1,1,8.924169e-01,NaN,2,0,1,2
10,641,4,85,2,2,2,1,7.342332e-01,NaN,2,0,2,2
10,642,4,72,50,2,2,1,1.014552e+00,NaN,2,0,2,2
10,643,4,80,33,2,2,1,1.100051e+00,NaN,2,0,2,2
10,644,4,143,17,1,1,1,8.371820e-01,NaN,2,1,3,2
10,669,4,33,18,2,2,1,1.270240e+00,NaN,2,0,1,3
10,670,4,103,71,2,2,1,1.184992e+00,NaN,2,0,3,3
10,671,4,97,20,2,2,1,1.375941e+00,NaN,2,0,3,3
10,672,4,2,8,2,2,1,1.078133e+00,NaN,2,0,1,3
10,673,4,7,16,1,1,1,1.120955e+00,NaN,2,0,1,3
10,674,4,21,25,1,1,1,1.305657e+00,NaN,2,0,1,3
10,675,4,107,4,1,1,1,1.362655e+00,NaN,2,0,3,3
10,676,4,49,59,2,2,1,1.001540e+00,NaN,2,0,2,3
10,677,4,46,63,2,2,1,1.014964e+00,NaN,2,0,1,3
10,678,4,136,52,2,2,1,1.972419e+00,NaN,2,0,3,3
10,679,4,100,1,2,2,1,1.219314e+00,NaN,2,0,3,3
10,680,4,144,68,2,2,1,1.231865e+00,NaN,2,0,3,3
10,681,4,17,11,2,2,1,1.164440e+00,NaN,2,1,1,3
10,682,4,53,19,1,1,1,8.030951e-01,NaN,2,0,2,3
10,683,4,28,41,1,1,1,9.928655e-01,NaN,2,1,1,3
10,684,4,58,43,2,2,1,1.390487e+00,NaN,2,1,2,3
10,685,4,13,56,1,1,1,1.092818e+00,NaN,2,0,1,3
10,686,4,62,5,1,1,1,8.948848e-01,NaN,2,1,2,3
10,687,4,79,60,1,1,1,1.104798e+00,NaN,2,0,2,3
10,688,4,76,15,2,2,1,8.744071e-01,NaN,2,0,2,3
10,689,4,63,53,2,2,1,1.012862e+00,NaN,2,0,2,3
10,690,4,108,57,2,2,1,9.774939e-01,NaN,2,0,3,3
10,691,4,133,30,1,2,0,1.048005e+00,NaN,2,1,3,3
10,692,4,55,22,1,1,1,9.477889e-01,NaN,2,0,2,3
10,693,5,4.844000e+01,68,1,0,0,2.500159e+00,1,1,0,1.300000e+00,1
10,694,5,7.533000e+01,18,2,1,0,1.222756e+00,1,1,0,2.100000e+00,1
10,695,5,5.718000e+01,26,2,0,0,2.500285e+00,1,1,0,2.300000e+00,1
10,696,5,7.408000e+01,57,2,3,0,3.469575e-01,1,1,0,2.300000e+00,1
10,697,5,9.921000e+01,25,3,3,1,5.168349e-01,1,1,0,3.100000e+00,1
10,698,5,1.170700e+02,16,3,2,0,1.558710e+00,1,1,0,3.100000e+00,1
10,699,5,8.223000e+01,65,2,2,1,4.969479e-01,1,1,0,2.100000e+00,1
10,700,5,3.485000e+01,2,1,1,1,3.707362e-01,1,1,0,1.200000e+00,1
10,701,5,3.485000e+01,2,1,1,1,4.767394e-01,2,1,0,1.200000e+00,1
10,702,5,90,1,2,2,1,4.223372e-01,1,1,0,2.300000e+00,1
10,703,5,4.187000e+01,34,1,1,1,5.205935e-01,1,1,0,1.200000e+00,1
10,704,5,1.251400e+02,66,3,1,0,4.030968e-01,1,1,0,3.100000e+00,1
10,705,5,1.161300e+02,56,3,3,1,4.516841e-01,1,1,0,3.100000e+00,1
10,706,5,1.406300e+02,53,3,3,1,4.935889e-01,1,1,0,3.200000e+00,1
10,707,5,9.921000e+01,25,3,4,0,1.007525e+00,2,1,0,3.100000e+00,1
10,708,5,1.634000e+01,48,1,1,1,3.693091e-01,1,1,0,1.300000e+00,1
10,709,5,4.939000e+01,67,1,3,0,4.834670e-01,1,1,0,1.300000e+00,1
10,710,5,1.406300e+02,53,3,3,1,4.053317e-01,2,1,0,3.200000e+00,1
10,711,5,2.091000e+01,62,1,2,0,4.552698e-01,1,1,0,1.200000e+00,1
10,712,5,2.780000e+01,33,1,2,0,3.930322e-01,1,1,0,1.200000e+00,1
10,713,5,1.245300e+02,19,3,2,0,3.470043e-01,1,1,0,3.200000e+00,1
10,714,5,3.238000e+01,6,1,3,0,5.327694e-01,1,1,0,1.300000e+00,1
10,715,5,7.203000e+01,71,2,3,0,4.943266e-01,1,1,0,2.300000e+00,1
10,716,5,1.042000e+01,39,1,1,1,4.799716e-01,1,1,0,1.300000e+00,1
10,717,5,5.529000e+01,21,2,2,1,3.781255e-01,1,1,0,2.300000e+00,1
10,718,5,3.876000e+01,15,1,2,0,3.397668e-01,1,1,0,1.200000e+00,1
10,719,5,1.974000e+01,58,1,1,1,3.976022e-01,1,1,0,1.200000e+00,1
10,720,5,7.408000e+01,57,2,4,0,6.070948e-01,2,1,0,2.300000e+00,1
10,721,5,1.315500e+02,22,3,3,1,6.084332e-01,1,1,0,3.200000e+00,1
10,722,5,7.408000e+01,57,2,2,1,3.465654e-01,3,1,0,2.300000e+00,1
10,723,5,1.974000e+01,58,1,1,1,3.722110e-01,2,1,0,1.200000e+00,1
10,724,5,8.223000e+01,65,2,2,1,4.939734e-01,2,1,0,2.100000e+00,1
10,725,5,8.223000e+01,65,2,2,1,5.279359e-01,3,1,0,2.100000e+00,1
10,726,5,8.920000e+00,12,1,1,1,4.024194e-01,1,1,0,1.200000e+00,1
10,727,5,1.072000e+01,50,1,2,0,4.600185e-01,1,1,0,1.200000e+00,1
10,728,5,1.150500e+02,36,3,1,0,4.062765e-01,1,1,0,3.100000e+00,1
10,729,5,1.190400e+02,51,3,1,0,3.520346e-01,1,1,0,3.100000e+00,1
10,730,5,7.737000e+01,44,2,2,1,3.299462e-01,1,1,0,2.100000e+00,1
10,731,5,3.876000e+01,15,1,4,0,4.278200e-01,2,1,0,1.200000e+00,1
10,732,5,90,1,2,2,1,4.291140e-01,2,1,0,2.300000e+00,1
10,733,5,1.190400e+02,51,3,3,1,4.551464e-01,2,1,0,3.100000e+00,1
10,734,5,5.810000e+01,69,2,2,1,3.603433e-01,1,1,0,2.300000e+00,1
10,735,5,2.091000e+01,62,1,1,1,4.028085e-01,2,1,0,1.200000e+00,1
10,736,5,2.780000e+01,33,1,1,1,3.484000e-01,2,1,0,1.200000e+00,1
10,737,5,1.161300e+02,56,3,3,1,1.206214e+00,2,1,0,3.100000e+00,1
10,738,5,8.921000e+01,40,2,2,1,3.834972e-01,1,1,0,2.300000e+00,1
10,739,5,1.061800e+02,46,3,3,1,6.177329e-01,1,1,0,3.100000e+00,1
10,740,5,8.921000e+01,40,2,2,1,3.075726e-01,2,1,0,2.300000e+00,1
10,741,5,1.061800e+02,46,3,3,1,3.656938e-01,2,1,0,3.100000e+00,1
10,742,5,1.161300e+02,56,3,3,1,3.672824e-01,3,1,0,3.100000e+00,1
10,743,5,4.844000e+01,68,1,1,1,4.411840e-01,2,1,0,1.300000e+00,1
10,744,5,4.037000e+01,37,1,3,0,6.504850e-01,1,1,0,1.300000e+00,1
10,745,5,8.526000e+01,64,2,2,1,3.807875e-01,1,1,0,2.300000e+00,1
10,746,5,8.920000e+00,12,1,1,1,3.745262e-01,2,1,0,1.200000e+00,1
10,747,5,1.251400e+02,66,3,1,0,3.282054e-01,2,1,0,3.100000e+00,1
10,748,5,8.197000e+01,20,2,3,0,3.540995e-01,1,1,0,2.300000e+00,1
10,749,5,1.634000e+01,48,1,1,1,3.637662e-01,2,1,0,1.300000e+00,1
10,750,5,3.876000e+01,15,1,1,1,5.014985e-01,3,1,0,1.200000e+00,1
10,751,5,8.197000e+01,20,2,1,0,1.247209e+00,2,1,0,2.300000e+00,1
10,752,5,1.245300e+02,19,3,3,1,4.167563e-01,2,1,0,3.200000e+00,1
10,753,5,7.737000e+01,44,2,2,1,3.386391e-01,2,1,0,2.100000e+00,1
10,754,5,1.190400e+02,51,3,1,0,5.483427e-01,3,1,0,3.100000e+00,1
10,755,5,6.525000e+01,61,2,2,1,6.537582e-01,1,1,0,2.100000e+00,1
10,756,5,1.245300e+02,19,3,1,0,7.119045e-01,3,1,0,3.200000e+00,1
10,757,5,7.533000e+01,18,2,1,0,3.936794e-01,2,1,0,2.100000e+00,1
10,758,5,1.016400e+02,3,3,3,1,6.752622e-01,1,1,0,3.200000e+00,1
10,759,5,1.061800e+02,46,3,1,0,3.812734e-01,3,1,0,3.100000e+00,1
10,760,5,3.485000e+01,2,1,1,1,3.350163e-01,3,1,0,1.200000e+00,1
10,761,5,7.846000e+01,63,2,3,0,4.409513e-01,1,1,0,2.100000e+00,1
10,762,5,2.279000e+01,60,1,1,1,5.229234e-01,1,1,0,1.200000e+00,1
10,763,5,9.035000e+01,35,2,2,1,3.484178e-01,1,1,0,2.100000e+00,1
10,764,5,5.132000e+01,42,2,2,1,7.100995e-01,1,1,0,2.100000e+00,1
10,765,5,2.780000e+01,33,1,3,0,1.704318e+00,3,1,0,1.200000e+00,1
10,766,5,4.187000e+01,34,1,1,1,4.983813e-01,2,1,0,1.200000e+00,1
10,767,5,1.042000e+01,39,1,1,1,4.364299e-01,2,1,0,1.300000e+00,1
10,768,5,4.939000e+01,67,1,1,1,1.069693e+00,2,1,0,1.300000e+00,1
10,769,5,5.529000e+01,21,2,2,1,3.838497e-01,2,1,0,2.300000e+00,1
10,770,5,5.529000e+01,21,2,2,1,3.776102e-01,3,1,0,2.300000e+00,1
10,771,5,9.607000e+01,4,2,1,0,4.992987e-01,1,1,0,2.300000e+00,1
10,772,5,3.093000e+01,9,1,2,0,6.373325e-01,1,1,0,1.200000e+00,1
10,773,5,1.026000e+02,24,3,3,1,9.031486e-01,1,1,0,3.200000e+00,1
10,774,5,1.332000e+01,7,1,1,1,6.246431e-01,1,1,0,1.300000e+00,1
10,775,5,5.718000e+01,26,2,2,1,7.221456e-01,2,1,0,2.300000e+00,1
10,776,5,2.279000e+01,60,1,1,1,4.120641e-01,2,1,0,1.200000e+00,1
10,777,5,7.846000e+01,63,2,3,0,4.059625e-01,2,1,0,2.100000e+00,1
10,778,5,4.037000e+01,37,1,2,0,4.154665e-01,2,1,0,1.300000e+00,1
10,779,5,1.205900e+02,13,3,1,0,4.173087e-01,1,1,0,3.200000e+00,1
10,780,5,4.939000e+01,67,1,3,0,7.388047e-01,3,1,0,1.300000e+00,1
10,781,5,1.274900e+02,59,3,1,0,7.010283e-01,1,1,0,3.200000e+00,1
10,782,5,1.150500e+02,36,3,3,1,6.229005e-01,2,1,0,3.100000e+00,1
10,783,5,2.091000e+01,62,1,1,1,5.362567e-01,3,1,0,1.200000e+00,1
10,784,5,1.146100e+02,23,3,3,1,3.622117e-01,1,1,0,3.200000e+00,1
10,785,5,9.607000e+01,4,2,2,1,4.118042e-01,2,1,0,2.300000e+00,1
10,786,5,5.718000e+01,26,2,2,1,3.824515e-01,3,1,0,2.300000e+00,1
10,787,5,9.035000e+01,35,2,2,1,3.589409e-01,2,1,0,2.100000e+00,1
10,788,5,9.035000e+01,35,2,2,1,3.689722e-01,3,1,0,2.100000e+00,1
10,789,5,5.042000e+01,38,2,2,1,4.672369e-01,1,1,0,2.100000e+00,1
10,790,5,1.406300e+02,53,3,3,1,4.529794e-01,3,1,0,3.200000e+00,1
10,791,5,1.332000e+01,7,1,1,1,4.466605e-01,2,1,0,1.300000e+00,1
10,792,5,8.197000e+01,20,2,1,0,1.568762e+00,3,1,0,2.300000e+00,1
10,793,5,1.026000e+02,24,3,2,0,9.467195e-01,2,1,0,3.200000e+00,1
10,794,5,9.607000e+01,4,2,1,0,4.766769e-01,3,1,0,2.300000e+00,1
10,795,5,1.251400e+02,66,3,1,0,9.746981e-01,3,1,0,3.100000e+00,1
10,796,5,1.251400e+02,66,3,3,1,3.925641e-01,4,1,0,3.100000e+00,1
10,797,5,8.921000e+01,40,2,2,1,3.061026e-01,3,1,0,2.300000e+00,1
10,798,5,1.332000e+01,7,1,1,1,4.198044e-01,3,1,0,1.300000e+00,1
10,799,5,1.205900e+02,13,3,0,0,2.500310e+00,2,1,0,3.200000e+00,1
10,800,5,5.810000e+01,69,2,2,1,7.919324e-01,2,1,0,2.300000e+00,1
10,801,5,7.203000e+01,71,2,3,0,4.337700e-01,2,1,0,2.300000e+00,1
10,802,5,1.026000e+02,24,3,3,1,4.360768e-01,3,1,0,3.200000e+00,1
10,803,5,1.150500e+02,36,3,1,0,3.496174e-01,3,1,0,3.100000e+00,1
10,804,5,4.187000e+01,34,1,2,0,3.835367e-01,3,1,0,1.200000e+00,1
10,805,5,3.238000e+01,6,1,3,0,6.976636e-01,2,1,0,1.300000e+00,1
10,806,5,1.042000e+01,39,1,1,1,3.635649e-01,3,1,0,1.300000e+00,1
10,807,5,1.274900e+02,59,3,0,0,2.500536e+00,2,1,0,3.200000e+00,1
10,808,5,1.072000e+01,50,1,2,0,6.074257e-01,2,1,0,1.200000e+00,1
10,809,5,2.410000e+00,72,1,1,1,9.127464e-01,1,1,0,1.300000e+00,1
10,810,5,7.737000e+01,44,2,3,0,5.383304e-01,3,1,0,2.100000e+00,1
10,811,5,2.410000e+00,72,1,1,1,4.359702e-01,2,1,0,1.300000e+00,1
10,812,5,1.146100e+02,23,3,3,1,3.100215e-01,2,1,0,3.200000e+00,1
10,813,5,6.729000e+01,10,2,1,0,4.080214e-01,1,1,0,2.100000e+00,1
10,814,5,1.170700e+02,16,3,1,0,4.097221e-01,2,1,0,3.100000e+00,1
10,815,5,1.245300e+02,19,3,3,1,6.117750e-01,4,1,0,3.200000e+00,1
10,816,5,8.920000e+00,12,1,1,1,4.533721e-01,3,1,0,1.200000e+00,1
10,817,5,5.810000e+01,69,2,2,1,8.950684e-01,3,1,0,2.300000e+00,1
10,818,5,1.150500e+02,36,3,3,1,6.887784e-01,4,1,0,3.100000e+00,1
10,819,5,8.526000e+01,64,2,2,1,3.942852e-01,2,1,0,2.300000e+00,1
10,820,5,9.802000e+01,8,3,2,0,1.140027e+00,1,1,0,3.100000e+00,1
10,821,5,1.170700e+02,16,3,1,0,6.135882e-01,3,1,0,3.100000e+00,1
10,822,5,1.170700e+02,16,3,3,1,4.395492e-01,4,1,0,3.100000e+00,1
10,823,5,2.410000e+00,72,1,1,1,3.690371e-01,3,1,0,1.300000e+00,1
10,824,5,1.016400e+02,3,3,3,1,3.394104e-01,2,1,0,3.200000e+00,1
10,825,5,1.274900e+02,59,3,2,0,5.490696e-01,3,1,0,3.200000e+00,1
10,826,5,6.729000e+01,10,2,2,1,4.227921e-01,2,1,0,2.100000e+00,1
10,827,5,9.607000e+01,4,2,2,1,4.641665e-01,4,1,0,2.300000e+00,1
10,828,5,4.136000e+01,52,1,1,1,4.336055e-01,1,1,0,1.300000e+00,1
10,829,5,3.093000e+01,9,1,1,1,3.080196e-01,2,1,0,1.200000e+00,1
10,830,5,8.197000e+01,20,2,3,0,3.335780e-01,4,1,0,2.300000e+00,1
10,831,5,8.920000e+00,12,1,1,1,3.358039e-01,4,1,0,1.200000e+00,1
10,832,5,9.802000e+01,8,3,0,0,2.500374e+00,2,1,0,3.100000e+00,1
10,833,5,6.729000e+01,10,2,2,1,4.278128e-01,3,1,0,2.100000e+00,1
10,834,5,1.315500e+02,22,3,3,1,3.741006e-01,2,1,0,3.200000e+00,1
10,835,5,1.315500e+02,22,3,3,1,5.677344e-01,3,1,0,3.200000e+00,1
10,836,5,4.844000e+01,68,1,1,1,4.337193e-01,3,1,0,1.300000e+00,1
10,837,5,1.634000e+01,48,1,1,1,4.434736e-01,3,1,0,1.300000e+00,1
10,838,5,7.533000e+01,18,2,2,1,3.733849e-01,3,1,0,2.100000e+00,1
10,839,5,6.525000e+01,61,2,2,1,4.072541e-01,2,1,0,2.100000e+00,1
10,840,5,5.132000e+01,42,2,2,1,4.409724e-01,2,1,0,2.100000e+00,1
10,841,5,5.810000e+01,69,2,2,1,4.183211e-01,4,1,0,2.300000e+00,1
10,842,5,2.279000e+01,60,1,3,0,3.567669e-01,3,1,0,1.200000e+00,1
10,843,5,5.042000e+01,38,2,2,1,4.944147e-01,2,1,0,2.100000e+00,1
10,844,5,8.223000e+01,65,2,2,1,3.524049e-01,4,1,0,2.100000e+00,1
10,845,5,9.802000e+01,8,3,3,1,4.903476e-01,3,1,0,3.100000e+00,1
10,846,5,8.921000e+01,40,2,2,1,5.720179e-01,4,1,0,2.300000e+00,1
10,847,5,4.136000e+01,52,1,1,1,4.616584e-01,2,1,0,1.300000e+00,1
10,848,5,5.132000e+01,42,2,2,1,3.830124e-01,3,1,0,2.100000e+00,1
10,849,5,4.136000e+01,52,1,1,1,3.607806e-01,3,1,0,1.300000e+00,1
10,850,5,1.974000e+01,58,1,1,1,3.707121e-01,3,1,0,1.200000e+00,1
10,851,5,5.042000e+01,38,2,1,0,6.041080e-01,3,1,0,2.100000e+00,1
10,852,5,1.332000e+01,7,1,1,1,3.498459e-01,4,1,0,1.300000e+00,1
10,853,5,1.315500e+02,22,3,3,1,3.439124e-01,4,1,0,3.200000e+00,1
10,854,5,1.634000e+01,48,1,1,1,4.182375e-01,4,1,0,1.300000e+00,1
10,855,5,2.780000e+01,33,1,1,1,3.802384e-01,4,1,0,1.200000e+00,1
10,856,5,5.529000e+01,21,2,2,1,3.818406e-01,4,1,0,2.300000e+00,1
10,857,5,1.406300e+02,53,3,3,1,4.554811e-01,4,1,0,3.200000e+00,1
10,858,5,3.485000e+01,2,1,1,1,3.933172e-01,4,1,0,1.200000e+00,1
10,859,5,4.844000e+01,68,1,1,1,3.390515e-01,4,1,0,1.300000e+00,1
10,860,5,1.072000e+01,50,1,2,0,3.248311e-01,3,1,0,1.200000e+00,1
10,861,5,1.146100e+02,23,3,3,1,3.028396e-01,3,1,0,3.200000e+00,1
10,862,5,7.846000e+01,63,2,3,0,3.206330e-01,3,1,0,2.100000e+00,1
10,863,5,8.526000e+01,64,2,2,1,3.859883e-01,3,1,0,2.300000e+00,1
10,864,5,5.132000e+01,42,2,2,1,4.120777e-01,4,1,0,2.100000e+00,1
10,865,5,9.921000e+01,25,3,3,1,3.735606e-01,3,1,0,3.100000e+00,1
10,866,5,1.026000e+02,24,3,3,1,3.916546e-01,4,1,0,3.200000e+00,1
10,867,5,4.939000e+01,67,1,1,1,4.572234e-01,4,1,0,1.300000e+00,1
10,868,5,1.016400e+02,3,3,3,1,3.470459e-01,3,1,0,3.200000e+00,1
10,869,5,7.203000e+01,71,2,3,0,3.722343e-01,3,1,0,2.300000e+00,1
10,870,5,1.974000e+01,58,1,1,1,6.379021e-01,4,1,0,1.200000e+00,1
10,871,5,4.037000e+01,37,1,3,0,4.640279e-01,3,1,0,1.300000e+00,1
10,872,5,6.525000e+01,61,2,2,1,1.033757e+00,3,1,0,2.100000e+00,1
10,873,5,1.190400e+02,51,3,1,0,3.712454e-01,4,1,0,3.100000e+00,1
10,874,5,2.410000e+00,72,1,1,1,4.933021e-01,4,1,0,1.300000e+00,1
10,875,5,1.061800e+02,46,3,3,1,5.430510e-01,4,1,0,3.100000e+00,1
10,876,5,3.093000e+01,9,1,1,1,3.370680e-01,3,1,0,1.200000e+00,1
10,877,5,1.274900e+02,59,3,2,0,4.199547e-01,4,1,0,3.200000e+00,1
10,878,5,6.729000e+01,10,2,1,0,6.363895e-01,4,1,0,2.100000e+00,1
10,879,5,90,1,2,2,1,4.061762e-01,3,1,0,2.300000e+00,1
10,880,5,6.525000e+01,61,2,2,1,3.039051e-01,4,1,0,2.100000e+00,1
10,881,5,7.533000e+01,18,2,2,1,3.776280e-01,4,1,0,2.100000e+00,1
10,882,5,4.136000e+01,52,1,1,1,4.517231e-01,4,1,0,1.300000e+00,1
10,883,5,7.737000e+01,44,2,2,1,4.295442e-01,4,1,0,2.100000e+00,1
10,884,5,1.161300e+02,56,3,3,1,3.590483e-01,4,1,0,3.100000e+00,1
10,885,5,3.876000e+01,15,1,3,0,1.105446e+00,4,1,0,1.200000e+00,1
10,886,5,7.846000e+01,63,2,1,0,1.178901e+00,4,1,0,2.100000e+00,1
10,887,5,5.718000e+01,26,2,2,1,1.636914e+00,4,1,0,2.300000e+00,1
10,888,5,1.042000e+01,39,1,1,1,4.392679e-01,4,1,0,1.300000e+00,1
10,889,5,1.072000e+01,50,1,1,1,3.298294e-01,4,1,0,1.200000e+00,1
10,890,5,9.921000e+01,25,3,2,0,4.581392e-01,4,1,0,3.100000e+00,1
10,891,5,8.526000e+01,64,2,2,1,3.563721e-01,4,1,0,2.300000e+00,1
10,892,5,2.091000e+01,62,1,1,1,4.534958e-01,4,1,0,1.200000e+00,1
10,893,5,3.238000e+01,6,1,1,1,6.393845e-01,3,1,0,1.300000e+00,1
10,894,5,2.279000e+01,60,1,3,0,3.129509e-01,4,1,0,1.200000e+00,1
10,895,5,9.035000e+01,35,2,1,0,4.029338e-01,4,1,0,2.100000e+00,1
10,896,5,4.037000e+01,37,1,2,0,6.849419e-01,4,1,0,1.300000e+00,1
10,897,5,90,1,2,2,1,3.665025e-01,4,1,0,2.300000e+00,1
10,898,5,1.016400e+02,3,3,3,1,3.447150e-01,4,1,0,3.200000e+00,1
10,899,5,3.093000e+01,9,1,1,1,3.781484e-01,4,1,0,1.200000e+00,1
10,900,5,3.238000e+01,6,1,1,1,5.958398e-01,4,1,0,1.300000e+00,1
10,901,5,1.205900e+02,13,3,1,0,1.141194e+00,3,1,0,3.200000e+00,1
10,902,5,5.042000e+01,38,2,2,1,4.152124e-01,4,1,0,2.100000e+00,1
10,903,5,7.408000e+01,57,2,2,1,9.367944e-01,4,1,0,2.300000e+00,1
10,904,5,1.205900e+02,13,3,3,1,4.345926e-01,4,1,0,3.200000e+00,1
10,905,5,4.187000e+01,34,1,1,1,3.806562e-01,4,1,0,1.200000e+00,1
10,906,5,1.146100e+02,23,3,3,1,4.300492e-01,4,1,0,3.200000e+00,1
10,907,5,9.802000e+01,8,3,1,0,6.079983e-01,4,1,0,3.100000e+00,1
10,908,5,7.203000e+01,71,2,3,0,1.209542e+00,4,1,0,2.300000e+00,1
10,909,6,121,40,1,1,1,1.241379e+00,NaN,2,0,3,1
10,910,6,108,57,2,2,1,1.486513e+00,NaN,2,0,3,1
10,911,6,141,72,1,1,1,8.739848e-01,NaN,2,0,3,1
10,912,6,17,11,1,2,0,1.757380e+00,NaN,2,1,1,1
10,913,6,74,58,1,1,1,9.739948e-01,NaN,2,0,2,1
10,914,6,87,34,1,1,1,8.053789e-01,NaN,2,0,2,1
10,915,6,68,45,1,1,1,6.672783e-01,NaN,2,1,2,1
10,916,6,103,71,2,2,1,1.407385e+00,NaN,2,0,3,1
10,917,6,14,66,1,1,1,1.773767e+00,NaN,2,0,1,1
10,918,6,6,27,1,1,1,3.437624e+00,NaN,2,1,1,1
10,919,6,60,24,1,1,1,2.026034e+00,NaN,2,0,2,1
10,920,6,126,64,1,1,1,1.559597e+00,NaN,2,0,3,1
10,921,6,58,43,2,2,1,1.119931e+00,NaN,2,1,2,1
10,922,6,92,12,2,2,1,1.649671e+00,NaN,2,0,2,1
10,923,6,143,17,2,2,1,2.270295e+00,NaN,2,1,3,1
10,924,6,134,48,2,2,1,2.530485e+00,NaN,2,0,3,1
10,925,6,18,46,1,1,1,1.371595e+00,NaN,2,0,1,1
10,926,6,144,68,1,1,1,1.571293e+00,NaN,2,0,3,1
10,927,6,76,15,2,2,1,8.905895e-01,NaN,2,0,2,1
10,928,6,79,60,1,1,1,1.061278e+00,NaN,2,0,2,1
10,929,6,16,14,1,1,1,1.826101e+00,NaN,2,1,1,1
10,930,6,133,30,1,2,0,1.359232e+00,NaN,2,1,3,1
10,931,6,107,4,1,1,1,1.944049e+00,NaN,2,0,3,1
10,932,6,7,16,1,1,1,1.456566e+00,NaN,2,0,1,1
10,933,6,80,33,2,2,1,8.769798e-01,NaN,2,0,2,1
10,934,6,5,36,2,2,1,2.168637e+00,NaN,2,0,1,1
10,935,6,93,9,2,2,1,9.129384e-01,NaN,2,0,2,1
10,936,6,33,18,2,2,1,1.242630e+00,NaN,2,0,1,1
10,937,6,129,21,1,1,1,1.271862e+00,NaN,2,0,3,1
10,938,6,55,22,2,2,1,2.027330e+00,NaN,2,0,2,1
10,939,6,97,20,2,2,1,2.584905e+00,NaN,2,0,3,1
10,940,6,100,1,2,2,1,9.602010e-01,NaN,2,0,3,1
10,941,6,137,37,1,1,1,1.376883e+00,NaN,2,0,3,1
10,942,6,132,7,2,2,1,2.584582e+00,NaN,2,0,3,1
10,943,6,64,3,2,2,1,2.447307e+00,NaN,2,0,2,1
10,944,6,130,54,2,0,0,3.499724e+00,NaN,2,1,3,1
10,945,6,110,69,2,2,1,2.046289e+00,NaN,2,0,3,1
10,946,6,4,51,2,2,1,1.434976e+00,NaN,2,0,1,1
10,947,6,142,39,2,2,1,2.127895e+00,NaN,2,0,3,1
10,948,6,32,42,2,2,1,1.233811e+00,NaN,2,0,1,1
10,949,6,112,31,1,1,1,1.119320e+00,NaN,2,1,3,1
10,950,6,23,65,1,1,1,1.265242e+00,NaN,2,0,1,1
10,951,6,35,35,1,2,0,1.637428e+00,NaN,2,0,1,1
10,952,6,139,67,1,1,1,1.074079e+00,NaN,2,0,3,1
10,953,6,24,70,2,2,1,1.021651e+00,NaN,2,1,1,1
10,954,6,61,23,1,1,1,7.550716e-01,NaN,2,0,2,1
10,955,6,25,61,2,2,1,1.187567e+00,NaN,2,0,1,1
10,956,6,123,49,1,1,1,2.426644e+00,NaN,2,1,3,1
10,957,6,52,55,2,1,0,7.760664e-01,NaN,2,1,2,1
10,958,6,53,19,2,2,1,7.993603e-01,NaN,2,0,2,1
10,959,6,11,47,2,2,1,1.934013e+00,NaN,2,1,1,1
10,960,6,72,50,1,1,1,9.677792e-01,NaN,2,0,2,1
10,961,6,59,13,1,2,0,7.997841e-01,NaN,2,0,2,1
10,962,6,37,44,2,1,0,1.846175e+00,NaN,2,0,1,1
10,963,6,136,52,1,1,1,1.667278e+00,NaN,2,0,3,1
10,964,6,21,25,2,2,1,1.519165e+00,NaN,2,0,1,1
10,965,6,29,10,1,1,1,1.745118e+00,NaN,2,0,1,1
10,966,6,42,38,1,1,1,2.281660e+00,NaN,2,0,1,1
10,967,6,85,2,1,1,1,7.644331e-01,NaN,2,0,2,1
10,968,6,96,28,2,2,1,6.925823e-01,NaN,2,1,2,1
10,969,6,28,41,2,2,1,1.343711e+00,NaN,2,1,1,1
10,970,6,63,53,1,1,1,2.048663e+00,NaN,2,0,2,1
10,971,6,91,62,1,1,1,1.005446e+00,NaN,2,0,2,1
10,972,6,13,56,2,2,1,9.878349e-01,NaN,2,0,1,1
10,973,6,118,26,1,1,1,1.003935e+00,NaN,2,0,3,1
10,974,6,138,6,1,1,1,1.209683e+00,NaN,2,0,3,1
10,975,6,62,5,1,1,1,7.198428e-01,NaN,2,1,2,1
10,976,6,83,32,2,2,1,8.176774e-01,NaN,2,1,2,1
10,977,6,49,59,2,2,1,7.277899e-01,NaN,2,0,2,1
10,978,6,2,8,2,1,0,1.441343e+00,NaN,2,0,1,1
10,979,6,36,29,2,1,0,1.582167e+00,NaN,2,1,1,1
10,980,6,46,63,1,2,0,1.557510e+00,NaN,2,0,1,1
10,981,6,39,37,1,1,1,2.997857e+00,NaN,1,0,1,1
10,982,6,125,66,1,1,1,2.100199e+00,NaN,1,0,3,1
10,983,6,77,44,1,1,1,1.230730e+00,NaN,1,0,2,1
10,984,6,15,48,1,2,0,2.227839e+00,NaN,1,0,1,1
10,985,6,119,51,1,1,1,2.880547e+00,NaN,1,0,3,1
10,986,6,95,4,2,1,0,1.436299e+00,NaN,1,0,2,1
10,987,6,19,58,1,1,1,1.129086e+00,NaN,1,0,1,1
10,988,6,45,30,2,1,0,2.466304e+00,NaN,1,1,1,1
10,989,6,106,46,1,1,1,1.438164e+00,NaN,1,0,3,1
10,990,6,27,33,2,2,1,1.275002e+00,NaN,1,0,1,1
10,991,6,70,70,1,1,1,8.628303e-01,NaN,1,1,2,1
10,992,6,109,11,1,1,1,1.066724e+00,NaN,1,1,3,1
10,993,6,40,52,1,1,1,1.454931e+00,NaN,1,0,1,1
10,994,6,86,31,1,1,1,2.586774e+00,NaN,1,1,2,1
10,995,6,90,35,1,2,0,1.106061e+00,NaN,1,0,2,1
10,996,6,41,34,1,1,1,1.915946e+00,NaN,1,0,1,1
10,997,6,84,64,1,1,1,7.738671e-01,NaN,1,0,2,1
10,998,6,116,56,2,1,0,1.909862e+00,NaN,1,0,3,1
10,999,6,115,36,1,2,0,2.072071e+00,NaN,1,0,3,1
10,1000,6,78,63,1,1,1,1.083772e+00,NaN,1,0,2,1
10,1001,6,50,38,1,1,1,1.135080e+00,NaN,1,0,2,1
10,1002,6,66,49,2,1,0,1.648056e+00,NaN,1,1,2,1
10,1003,6,140,53,2,2,1,2.340533e+00,NaN,1,0,3,1
10,1004,6,89,1,1,1,1,1.253476e+00,NaN,1,0,2,1
10,1005,6,122,14,2,2,1,1.706398e+00,NaN,1,1,3,1
10,1006,6,128,45,2,2,1,3.028207e+00,NaN,1,1,3,1
10,1007,6,102,24,2,2,1,9.225112e-01,NaN,1,0,3,1
10,1008,6,82,65,1,1,1,1.395935e+00,NaN,1,0,2,1
10,1009,6,65,61,2,1,0,2.090492e+00,NaN,1,0,2,1
10,1010,6,81,20,1,1,1,6.935340e-01,NaN,1,0,2,1
10,1011,6,105,55,2,2,1,1.257324e+00,NaN,1,1,3,1
10,1012,6,67,10,2,2,1,7.808262e-01,NaN,1,0,2,1
10,1013,6,48,67,1,0,0,3.499733e+00,NaN,1,0,1,1
10,1014,6,101,3,1,1,1,1.406628e+00,NaN,1,0,3,1
10,1015,6,12,7,1,2,0,2.740796e+00,NaN,1,0,1,1
10,1016,6,73,57,1,2,0,9.253390e-01,NaN,1,0,2,1
10,1017,6,135,27,2,2,1,8.551241e-01,NaN,1,1,3,1
10,1018,6,1,72,2,2,1,1.467257e+00,NaN,1,0,1,1
10,1019,6,120,13,1,1,1,1.448409e+00,NaN,1,0,3,1
10,1020,6,71,71,2,2,1,6.846201e-01,NaN,1,0,2,1
10,1021,6,20,62,1,1,1,1.023256e+00,NaN,1,0,1,1
10,1022,6,113,47,1,2,0,1.605149e+00,NaN,1,1,3,1
10,1023,6,47,68,2,2,1,1.395563e+00,NaN,1,0,1,1
10,1024,6,127,59,2,2,1,1.538486e+00,NaN,1,0,3,1
10,1025,6,44,28,1,1,1,1.323484e+00,NaN,1,1,1,1
10,1026,6,26,17,2,2,1,2.820658e+00,NaN,1,1,1,1
10,1027,6,34,2,2,2,1,1.426547e+00,NaN,1,0,1,1
10,1028,6,54,21,1,1,1,1.055859e+00,NaN,1,0,2,1
10,1029,6,111,43,2,2,1,8.206606e-01,NaN,1,1,3,1
10,1030,6,9,39,1,1,1,1.465902e+00,NaN,1,0,1,1
10,1031,6,31,6,1,1,1,1.350042e+00,NaN,1,0,1,1
10,1032,6,38,15,1,1,1,1.478616e+00,NaN,1,0,1,1
10,1033,6,51,42,2,2,1,1.282231e+00,NaN,1,0,2,1
10,1034,6,3,54,1,1,1,1.405550e+00,NaN,1,1,1,1
10,1035,6,99,25,1,1,1,2.820115e+00,NaN,1,0,3,1
10,1036,6,124,19,2,2,1,1.106630e+00,NaN,1,0,3,1
10,1037,6,43,32,1,1,1,3.476168e+00,NaN,1,1,1,1
10,1038,6,114,23,2,2,1,2.039971e+00,NaN,1,0,3,1
10,1039,6,131,22,2,2,1,8.127207e-01,NaN,1,0,3,1
10,1040,6,57,69,1,1,1,1.730425e+00,NaN,1,0,2,1
10,1041,6,22,60,1,1,1,2.251925e+00,NaN,1,0,1,1
10,1042,6,10,50,1,1,1,2.000151e+00,NaN,1,0,1,1
10,1043,6,104,5,2,1,0,1.934982e+00,NaN,1,1,3,1
10,1044,6,69,29,1,1,1,1.688113e+00,NaN,1,1,2,1
10,1045,6,88,40,2,2,1,8.512104e-01,NaN,1,0,2,1
10,1046,6,30,9,1,1,1,1.183389e+00,NaN,1,0,1,1
10,1047,6,94,41,2,2,1,1.638761e+00,NaN,1,1,2,1
10,1048,6,117,16,2,1,0,1.971943e+00,NaN,1,0,3,1
10,1049,6,98,8,2,1,0,2.179435e+00,NaN,1,0,3,1
10,1050,6,8,12,1,1,1,2.474830e+00,NaN,1,0,1,1
10,1051,6,75,18,1,1,1,1.110368e+00,NaN,1,0,2,1
10,1052,6,56,26,1,1,1,8.804028e-01,NaN,1,0,2,1
