Subject,Trial,Cond,ImageNum,CueNum,Correct,Resp,Accuracy,RT,CueRep,ImageType,Baseline,Category,Block
36,1,1,77,NaN,NaN,2,NaN,1.544852e-03,NaN,0,0,2,1
36,2,1,45,NaN,NaN,1,NaN,1.126291e+00,NaN,1,0,1,1
36,3,1,20,NaN,NaN,1,NaN,2.590123e-01,NaN,0,0,1,1
36,4,1,117,NaN,NaN,2,NaN,2.108071e-01,NaN,1,0,3,1
36,5,1,103,NaN,NaN,1,NaN,2.681051e-01,NaN,1,0,3,1
36,6,1,100,NaN,NaN,2,NaN,1.571327e+00,NaN,2,1,3,1
36,7,1,123,NaN,NaN,2,NaN,6.369046e-01,NaN,0,1,3,1
36,8,1,120,NaN,NaN,2,NaN,2.844933e-01,NaN,0,0,3,1
36,9,1,93,NaN,NaN,1,NaN,3.468853e-01,NaN,0,0,2,1
36,10,1,4,NaN,NaN,1,NaN,3.345084e-01,NaN,2,1,1,1
36,11,1,69,NaN,NaN,1,NaN,4.909432e-01,NaN,0,1,2,1
36,12,1,121,NaN,NaN,1,NaN,6.177385e-01,NaN,0,0,3,1
36,13,1,140,NaN,NaN,1,NaN,5.941923e-01,NaN,0,1,3,1
36,14,1,86,NaN,NaN,1,NaN,8.759244e-01,NaN,0,0,2,1
36,15,1,67,NaN,NaN,1,NaN,4.828761e-01,NaN,1,0,2,1
36,16,1,136,NaN,NaN,2,NaN,2.815376e-01,NaN,1,0,3,1
36,17,1,115,NaN,NaN,2,NaN,4.636330e-01,NaN,1,0,3,1
36,18,1,118,NaN,NaN,1,NaN,4.470016e-01,NaN,2,0,3,1
36,19,1,10,NaN,NaN,1,NaN,5.343745e-01,NaN,0,0,1,1
36,20,1,28,NaN,NaN,2,NaN,5.466847e-01,NaN,1,1,1,1
36,21,1,3,NaN,NaN,2,NaN,6.949582e-01,NaN,1,1,1,1
36,22,1,62,NaN,NaN,1,NaN,5.488290e-01,NaN,0,0,2,1
36,23,1,121,NaN,NaN,1,NaN,3.683548e-01,NaN,2,0,3,1
36,24,1,96,NaN,NaN,1,NaN,9.474705e-01,NaN,1,1,2,1
36,25,1,54,NaN,NaN,1,NaN,4.708399e-01,NaN,2,1,2,1
36,26,1,65,NaN,NaN,1,NaN,3.264817e-01,NaN,2,0,2,1
36,27,1,62,NaN,NaN,1,NaN,3.621509e-01,NaN,1,0,2,1
36,28,1,51,NaN,NaN,1,NaN,2.452599e-01,NaN,1,1,2,1
36,29,1,94,NaN,NaN,1,NaN,2.451962e-01,NaN,2,0,2,1
36,30,1,59,NaN,NaN,1,NaN,6.689414e-01,NaN,0,0,2,1
36,31,1,56,NaN,NaN,1,NaN,8.994962e-01,NaN,0,0,2,1
36,32,1,104,NaN,NaN,2,NaN,8.411555e-01,NaN,2,0,3,1
36,33,1,54,NaN,NaN,1,NaN,2.729178e-01,NaN,0,1,2,1
36,34,1,128,NaN,NaN,2,NaN,3.994988e-01,NaN,2,0,3,1
36,35,1,85,NaN,NaN,1,NaN,2.408505e-01,NaN,1,1,2,1
36,36,1,101,NaN,NaN,2,NaN,3.048266e-01,NaN,0,0,3,1
36,37,1,109,NaN,NaN,1,NaN,3.266951e-01,NaN,0,0,3,1
36,38,1,98,NaN,NaN,1,NaN,2.510110e-01,NaN,0,0,3,1
36,39,1,37,NaN,NaN,1,NaN,3.150034e-01,NaN,0,0,1,1
36,40,1,14,NaN,NaN,1,NaN,4.635823e-01,NaN,2,0,1,1
36,41,1,73,NaN,NaN,1,NaN,2.865042e-01,NaN,0,1,2,1
36,42,1,105,NaN,NaN,2,NaN,4.047814e-01,NaN,1,0,3,1
36,43,1,61,NaN,NaN,1,NaN,6.297650e-01,NaN,0,0,2,1
36,44,1,74,NaN,NaN,1,NaN,2.460957e-01,NaN,1,0,2,1
36,45,1,39,NaN,NaN,2,NaN,3.979904e-01,NaN,1,0,1,1
36,46,1,113,NaN,NaN,1,NaN,2.550602e-01,NaN,0,1,3,1
36,47,1,52,NaN,NaN,1,NaN,2.784111e-01,NaN,2,0,2,1
36,48,1,95,NaN,NaN,1,NaN,2.206147e-01,NaN,0,0,2,1
36,49,1,118,NaN,NaN,1,NaN,2.299780e-01,NaN,0,0,3,1
36,50,1,125,NaN,NaN,1,NaN,7.838659e-02,NaN,2,0,3,1
36,51,1,112,NaN,NaN,2,NaN,2.692307e-01,NaN,0,1,3,1
36,52,1,129,NaN,NaN,2,NaN,3.398931e-01,NaN,0,1,3,1
36,53,1,14,NaN,NaN,1,NaN,1.210412e-04,NaN,0,0,1,1
36,54,1,81,NaN,NaN,1,NaN,1.041617e+00,NaN,2,0,2,1
36,55,1,125,NaN,NaN,1,NaN,4.570775e-01,NaN,0,0,3,1
36,56,1,115,NaN,NaN,2,NaN,1.206916e-01,NaN,0,0,3,1
36,57,1,16,NaN,NaN,1,NaN,5.794855e-03,NaN,0,1,1,1
36,58,1,59,NaN,NaN,1,NaN,3.831809e-01,NaN,2,0,2,1
36,59,1,15,NaN,NaN,2,NaN,3.772967e-01,NaN,0,0,1,1
36,60,1,51,NaN,NaN,1,NaN,2.680016e-01,NaN,0,1,2,1
36,61,1,28,NaN,NaN,2,NaN,3.068179e-01,NaN,0,1,1,1
36,62,1,142,NaN,NaN,2,NaN,7.362828e-01,NaN,1,1,3,1
36,63,1,124,NaN,NaN,1,NaN,3.244041e-01,NaN,2,1,3,1
36,64,1,53,NaN,NaN,1,NaN,7.058325e-01,NaN,0,0,2,1
36,65,1,79,NaN,NaN,1,NaN,4.625389e-01,NaN,0,0,2,1
36,66,1,123,NaN,NaN,2,NaN,4.774027e-01,NaN,1,1,3,1
36,67,1,90,NaN,NaN,1,NaN,2.993137e-01,NaN,1,1,2,1
36,68,1,7,NaN,NaN,1,NaN,7.802742e-04,NaN,1,0,1,1
36,69,1,119,NaN,NaN,1,NaN,5.769288e-02,NaN,1,0,3,1
36,70,1,140,NaN,NaN,1,NaN,1.213420e-04,NaN,1,1,3,1
36,71,1,25,NaN,NaN,1,NaN,1.799008e-04,NaN,1,0,1,1
36,72,1,68,NaN,NaN,1,NaN,2.923923e-01,NaN,2,0,2,1
36,73,1,107,NaN,NaN,1,NaN,2.827266e-01,NaN,0,0,3,1
36,74,1,46,NaN,NaN,2,NaN,2.968431e-01,NaN,2,0,1,1
36,75,1,44,NaN,NaN,1,NaN,7.071365e-03,NaN,2,1,1,1
36,76,1,31,NaN,NaN,1,NaN,3.521462e-01,NaN,0,0,1,1
36,77,1,44,NaN,NaN,1,NaN,3.559426e-01,NaN,0,1,1,1
36,78,1,135,NaN,NaN,2,NaN,2.632309e-01,NaN,0,0,3,1
36,79,1,83,NaN,NaN,1,NaN,2.465705e-01,NaN,1,1,2,1
36,80,1,13,NaN,NaN,1,NaN,2.618310e-01,NaN,0,0,1,1
36,81,1,137,NaN,NaN,1,NaN,2.450791e-01,NaN,0,0,3,1
36,82,1,89,NaN,NaN,1,NaN,3.002376e-01,NaN,0,0,2,1
36,83,1,24,NaN,NaN,1,NaN,2.738731e-01,NaN,2,0,1,1
36,84,1,38,NaN,NaN,1,NaN,2.481573e-01,NaN,1,0,1,1
36,85,1,23,NaN,NaN,1,NaN,5.043935e-01,NaN,1,1,1,1
36,86,1,131,NaN,NaN,2,NaN,3.335187e-01,NaN,0,0,3,1
36,87,1,134,NaN,NaN,2,NaN,5.939841e-01,NaN,0,0,3,1
36,88,1,5,NaN,NaN,1,NaN,2.919287e-01,NaN,0,0,1,1
36,89,1,107,NaN,NaN,1,NaN,3.614941e-01,NaN,1,0,3,1
36,90,1,136,NaN,NaN,1,NaN,5.644562e-01,NaN,0,0,3,1
36,91,1,134,NaN,NaN,1,NaN,1.195315e-04,NaN,1,0,3,1
36,92,1,141,NaN,NaN,1,NaN,4.006144e-01,NaN,2,0,3,1
36,93,1,127,NaN,NaN,1,NaN,6.581006e-01,NaN,0,0,3,1
36,94,1,143,NaN,NaN,2,NaN,2.343925e-01,NaN,2,1,3,1
36,95,1,137,NaN,NaN,1,NaN,2.253217e-01,NaN,1,0,3,1
36,96,1,22,NaN,NaN,2,NaN,3.304102e-01,NaN,2,0,1,1
36,97,1,8,NaN,NaN,1,NaN,2.709398e-01,NaN,0,0,1,1
36,98,1,139,NaN,NaN,1,NaN,2.697795e-01,NaN,0,0,3,1
36,99,1,91,NaN,NaN,1,NaN,5.806503e-01,NaN,0,0,2,1
36,100,1,57,NaN,NaN,1,NaN,3.269197e-01,NaN,0,0,2,1
36,101,1,17,NaN,NaN,1,NaN,3.480369e-01,NaN,0,0,1,1
36,102,1,90,NaN,NaN,1,NaN,5.434616e-01,NaN,0,1,2,1
36,103,1,89,NaN,NaN,1,NaN,1.011457e+00,NaN,2,0,2,1
36,104,1,16,NaN,NaN,1,NaN,1.237569e-04,NaN,2,1,1,1
36,105,1,34,NaN,NaN,1,NaN,2.214740e-01,NaN,1,0,1,1
36,106,1,77,NaN,NaN,1,NaN,1.820341e-01,NaN,2,0,2,1
36,107,1,46,NaN,NaN,2,NaN,3.846790e-01,NaN,0,0,1,1
36,108,1,63,NaN,NaN,1,NaN,1.222482e-04,NaN,0,1,2,1
36,109,1,102,NaN,NaN,1,NaN,7.003341e-01,NaN,1,0,3,1
36,110,1,116,NaN,NaN,1,NaN,2.661591e-01,NaN,2,0,3,1
36,111,1,71,NaN,NaN,1,NaN,6.730181e-01,NaN,1,1,2,1
36,112,1,53,NaN,NaN,1,NaN,6.317315e-01,NaN,1,0,2,1
36,113,1,12,NaN,NaN,1,NaN,2.395779e-01,NaN,1,0,1,1
36,114,1,126,NaN,NaN,2,NaN,3.193210e-01,NaN,0,1,3,1
36,115,1,33,NaN,NaN,1,NaN,2.598786e-01,NaN,0,0,1,1
36,116,1,92,NaN,NaN,1,NaN,1.445850e-04,NaN,0,0,2,1
36,117,1,97,NaN,NaN,1,NaN,2.375960e-01,NaN,2,0,3,1
36,118,1,114,NaN,NaN,1,NaN,3.015347e-01,NaN,2,0,3,1
36,119,1,130,NaN,NaN,2,NaN,4.119617e-01,NaN,0,0,3,1
36,120,1,138,NaN,NaN,1,NaN,5.650563e-01,NaN,0,0,3,1
36,121,1,92,NaN,NaN,1,NaN,3.037013e-01,NaN,1,0,2,1
36,122,1,47,NaN,NaN,1,NaN,3.890150e-01,NaN,0,1,1,1
36,123,1,64,NaN,NaN,1,NaN,1.174759e+00,NaN,0,0,2,1
36,124,1,108,NaN,NaN,2,NaN,4.330720e-01,NaN,2,0,3,1
36,125,1,119,NaN,NaN,1,NaN,3.773465e-01,NaN,0,0,3,1
36,126,1,70,NaN,NaN,1,NaN,2.282055e-01,NaN,1,0,2,1
36,127,1,56,NaN,NaN,1,NaN,3.562827e-01,NaN,2,0,2,1
36,128,1,32,NaN,NaN,1,NaN,1.135425e+00,NaN,2,0,1,1
36,129,1,21,NaN,NaN,1,NaN,8.677172e-01,NaN,2,0,1,1
36,130,1,82,NaN,NaN,1,NaN,2.988525e-01,NaN,0,0,2,1
36,131,1,18,NaN,NaN,1,NaN,2.157987e-01,NaN,2,0,1,1
36,132,1,142,NaN,NaN,1,NaN,2.972002e-01,NaN,0,1,3,1
36,133,1,52,NaN,NaN,1,NaN,3.586272e-01,NaN,0,0,2,1
36,134,1,5,NaN,NaN,1,NaN,2.898743e-01,NaN,2,0,1,1
36,135,1,47,NaN,NaN,1,NaN,2.077931e-01,NaN,2,1,1,1
36,136,1,129,NaN,NaN,1,NaN,1.255684e-04,NaN,2,1,3,1
36,137,1,111,NaN,NaN,1,NaN,5.705212e-01,NaN,0,0,3,1
36,138,1,78,NaN,NaN,1,NaN,2.370958e-01,NaN,2,0,2,1
36,139,1,21,NaN,NaN,1,NaN,3.167973e-01,NaN,0,0,1,1
36,140,1,58,NaN,NaN,1,NaN,6.022498e-01,NaN,0,0,2,1
36,141,1,37,NaN,NaN,1,NaN,4.117094e-01,NaN,2,0,1,1
36,142,1,68,NaN,NaN,1,NaN,2.923658e-01,NaN,0,0,2,1
36,143,1,32,NaN,NaN,1,NaN,3.543147e-01,NaN,0,0,1,1
36,144,1,72,NaN,NaN,1,NaN,4.787166e-01,NaN,2,0,2,1
36,145,1,74,NaN,NaN,1,NaN,3.332057e-01,NaN,0,0,2,1
36,146,1,84,NaN,NaN,1,NaN,4.343216e-01,NaN,2,0,2,1
36,147,1,42,NaN,NaN,1,NaN,5.231853e-01,NaN,1,0,1,1
36,148,1,34,NaN,NaN,1,NaN,4.566070e-01,NaN,0,0,1,1
36,149,1,108,NaN,NaN,1,NaN,1.430754e-04,NaN,0,0,3,1
36,150,1,101,NaN,NaN,1,NaN,1.225499e-04,NaN,2,0,3,1
36,151,1,98,NaN,NaN,1,NaN,6.646214e-02,NaN,1,0,3,1
36,152,1,66,NaN,NaN,1,NaN,2.326686e-01,NaN,1,1,2,1
36,153,1,144,NaN,NaN,1,NaN,3.371849e-01,NaN,1,0,3,1
36,154,1,135,NaN,NaN,1,NaN,3.967453e-01,NaN,1,0,3,1
36,155,1,69,NaN,NaN,1,NaN,2.949792e-01,NaN,1,1,2,1
36,156,1,33,NaN,NaN,1,NaN,5.270667e-02,NaN,1,0,1,1
36,157,1,139,NaN,NaN,1,NaN,1.004178e-01,NaN,1,0,3,1
36,158,1,131,NaN,NaN,1,NaN,2.500049e-01,NaN,1,0,3,1
36,159,1,39,NaN,NaN,1,NaN,2.095873e-01,NaN,0,0,1,1
36,160,1,4,NaN,NaN,1,NaN,3.396021e-01,NaN,0,1,1,1
36,161,1,22,NaN,NaN,2,NaN,2.398028e-01,NaN,0,0,1,1
36,162,1,12,NaN,NaN,1,NaN,2.234034e-01,NaN,0,0,1,1
36,163,1,91,NaN,NaN,1,NaN,3.683614e-01,NaN,2,0,2,1
36,164,1,3,NaN,NaN,2,NaN,3.229033e-01,NaN,0,1,1,1
36,165,1,26,NaN,NaN,1,NaN,3.278186e-01,NaN,2,1,1,1
36,166,1,6,NaN,NaN,1,NaN,3.891059e-01,NaN,0,0,1,1
36,167,1,48,NaN,NaN,1,NaN,4.067286e-01,NaN,1,0,1,1
36,168,1,27,NaN,NaN,1,NaN,3.042948e-01,NaN,0,1,1,1
36,169,1,93,NaN,NaN,1,NaN,3.663542e-01,NaN,2,0,2,1
36,170,1,49,NaN,NaN,1,NaN,2.259547e-01,NaN,1,0,2,1
36,171,1,17,NaN,NaN,1,NaN,2.739332e-01,NaN,1,0,1,1
36,172,1,75,NaN,NaN,1,NaN,3.213410e-01,NaN,2,0,2,1
36,173,1,76,NaN,NaN,1,NaN,2.692932e-01,NaN,1,0,2,1
36,174,1,132,NaN,NaN,2,NaN,1.962173e-01,NaN,2,0,3,1
36,175,1,130,NaN,NaN,2,NaN,8.536686e-01,NaN,2,0,3,1
36,176,1,36,NaN,NaN,1,NaN,3.968980e-01,NaN,0,0,1,1
36,177,1,29,NaN,NaN,1,NaN,2.787875e-01,NaN,2,1,1,1
36,178,1,144,NaN,NaN,1,NaN,3.567518e-01,NaN,0,0,3,1
36,179,1,49,NaN,NaN,1,NaN,2.562063e-01,NaN,0,0,2,1
36,180,1,76,NaN,NaN,1,NaN,3.135916e-02,NaN,0,0,2,1
36,181,1,112,NaN,NaN,1,NaN,2.234258e-01,NaN,2,1,3,1
36,182,1,88,NaN,NaN,1,NaN,4.480107e-01,NaN,1,0,2,1
36,183,1,2,NaN,NaN,1,NaN,2.483185e-01,NaN,2,1,1,1
36,184,1,122,NaN,NaN,2,NaN,5.922750e-01,NaN,1,0,3,1
36,185,1,45,NaN,NaN,1,NaN,4.026745e-01,NaN,0,0,1,1
36,186,1,8,NaN,NaN,1,NaN,3.397343e-01,NaN,1,0,1,1
36,187,1,60,NaN,NaN,1,NaN,3.200602e-02,NaN,2,0,2,1
36,188,1,15,NaN,NaN,1,NaN,5.623949e-02,NaN,1,0,1,1
36,189,1,9,NaN,NaN,1,NaN,3.437999e-01,NaN,0,0,1,1
36,190,1,57,NaN,NaN,1,NaN,7.324258e-01,NaN,2,0,2,1
36,191,1,87,NaN,NaN,1,NaN,2.643372e-01,NaN,0,1,2,1
36,192,1,80,NaN,NaN,1,NaN,2.876476e-01,NaN,0,0,2,1
36,193,1,58,NaN,NaN,1,NaN,5.579747e-01,NaN,2,0,2,1
36,194,1,133,NaN,NaN,1,NaN,6.098033e-01,NaN,0,1,3,1
36,195,1,84,NaN,NaN,1,NaN,3.795234e-01,NaN,0,0,2,1
36,196,1,124,NaN,NaN,1,NaN,4.061222e-01,NaN,0,1,3,1
36,197,1,31,NaN,NaN,1,NaN,2.557324e-01,NaN,1,0,1,1
36,198,1,11,NaN,NaN,1,NaN,5.351707e-01,NaN,0,0,1,1
36,199,1,96,NaN,NaN,1,NaN,1.199569e-02,NaN,0,1,2,1
36,200,1,88,NaN,NaN,1,NaN,1.654634e-01,NaN,0,0,2,1
36,201,1,24,NaN,NaN,1,NaN,2.963909e-01,NaN,0,0,1,1
36,202,1,114,NaN,NaN,1,NaN,3.342829e-01,NaN,0,0,3,1
36,203,1,106,NaN,NaN,1,NaN,3.299113e-01,NaN,0,0,3,1
36,204,1,36,NaN,NaN,1,NaN,4.062885e-01,NaN,2,0,1,1
36,205,1,79,NaN,NaN,1,NaN,2.959716e-01,NaN,2,0,2,1
36,206,1,55,NaN,NaN,1,NaN,2.693222e-01,NaN,2,0,2,1
36,207,1,29,NaN,NaN,1,NaN,9.251966e-02,NaN,0,1,1,1
36,208,1,40,NaN,NaN,1,NaN,1.462870e-01,NaN,0,1,1,1
36,209,1,127,NaN,NaN,1,NaN,7.099340e-01,NaN,1,0,3,1
36,210,1,99,NaN,NaN,2,NaN,5.952669e-01,NaN,0,0,3,1
36,211,1,100,NaN,NaN,2,NaN,2.532815e-01,NaN,0,1,3,1
36,212,1,40,NaN,NaN,1,NaN,1.204368e-04,NaN,2,1,1,1
36,213,1,50,NaN,NaN,1,NaN,2.051810e-01,NaN,0,0,2,1
36,214,1,141,NaN,NaN,1,NaN,3.580664e-01,NaN,0,0,3,1
36,215,1,42,NaN,NaN,1,NaN,5.701192e-01,NaN,0,0,1,1
36,216,1,95,NaN,NaN,1,NaN,3.175440e-01,NaN,2,0,2,1
36,217,1,120,NaN,NaN,2,NaN,5.065865e-02,NaN,1,0,3,1
36,218,1,18,NaN,NaN,1,NaN,9.138080e-01,NaN,0,0,1,1
36,219,1,60,NaN,NaN,1,NaN,5.431999e-01,NaN,0,0,2,1
36,220,1,27,NaN,NaN,1,NaN,1.400569e-04,NaN,1,1,1,1
36,221,1,72,NaN,NaN,1,NaN,1.237922e-01,NaN,0,0,2,1
36,222,1,2,NaN,NaN,1,NaN,1.290594e-01,NaN,0,1,1,1
36,223,1,26,NaN,NaN,1,NaN,2.859549e-01,NaN,0,1,1,1
36,224,1,41,NaN,NaN,1,NaN,8.397136e-02,NaN,0,0,1,1
36,225,1,43,NaN,NaN,1,NaN,8.421918e-01,NaN,2,1,1,1
36,226,1,50,NaN,NaN,1,NaN,1.210558e+00,NaN,2,0,2,1
36,227,1,97,NaN,NaN,1,NaN,1.246631e-04,NaN,0,0,3,1
36,228,1,20,NaN,NaN,1,NaN,3.015727e-01,NaN,2,0,1,1
36,229,1,35,NaN,NaN,2,NaN,5.149325e-01,NaN,2,0,1,1
36,230,1,55,NaN,NaN,1,NaN,2.559760e-01,NaN,0,0,2,1
36,231,1,103,NaN,NaN,1,NaN,3.193080e-01,NaN,0,0,3,1
36,232,1,35,NaN,NaN,2,NaN,2.761451e-01,NaN,0,0,1,1
36,233,1,70,NaN,NaN,1,NaN,2.670958e-01,NaN,0,0,2,1
36,234,1,128,NaN,NaN,2,NaN,2.503810e-01,NaN,0,0,3,1
36,235,1,1,NaN,NaN,1,NaN,9.030441e-02,NaN,1,0,1,1
36,236,1,83,NaN,NaN,1,NaN,1.519866e+00,NaN,0,1,2,1
36,237,1,43,NaN,NaN,1,NaN,4.530859e-01,NaN,0,1,1,1
36,238,1,126,NaN,NaN,2,NaN,2.118125e-01,NaN,2,1,3,1
36,239,1,110,NaN,NaN,1,NaN,2.926577e-01,NaN,0,0,3,1
36,240,1,75,NaN,NaN,1,NaN,3.305995e-01,NaN,0,0,2,1
36,241,1,113,NaN,NaN,1,NaN,3.109918e-01,NaN,2,1,3,1
36,242,1,86,NaN,NaN,1,NaN,4.119065e-01,NaN,1,0,2,1
36,243,1,73,NaN,NaN,1,NaN,4.289403e-01,NaN,1,1,2,1
36,244,1,87,NaN,NaN,1,NaN,3.016723e-01,NaN,1,1,2,1
36,245,1,63,NaN,NaN,1,NaN,7.873055e-01,NaN,1,1,2,1
36,246,1,104,NaN,NaN,2,NaN,5.011807e-01,NaN,0,0,3,1
36,247,1,94,NaN,NaN,1,NaN,1.267754e-04,NaN,0,0,2,1
36,248,1,78,NaN,NaN,1,NaN,2.889760e-02,NaN,0,0,2,1
36,249,1,102,NaN,NaN,1,NaN,1.285868e-04,NaN,0,0,3,1
36,250,1,105,NaN,NaN,1,NaN,1.202775e-01,NaN,0,0,3,1
36,251,1,116,NaN,NaN,1,NaN,2.215350e-01,NaN,0,0,3,1
36,252,1,66,NaN,NaN,1,NaN,1.225499e-04,NaN,0,1,2,1
36,253,1,81,NaN,NaN,1,NaN,2.486282e-01,NaN,0,0,2,1
36,254,1,6,NaN,NaN,1,NaN,1.264736e-04,NaN,1,0,1,1
36,255,1,106,NaN,NaN,1,NaN,3.299327e-01,NaN,2,0,3,1
36,256,1,122,NaN,NaN,2,NaN,2.152089e-01,NaN,0,0,3,1
36,257,1,23,NaN,NaN,1,NaN,2.476583e-01,NaN,0,1,1,1
36,258,1,143,NaN,NaN,2,NaN,1.437268e-01,NaN,0,1,3,1
36,259,1,61,NaN,NaN,1,NaN,9.962121e-02,NaN,1,0,2,1
36,260,1,111,NaN,NaN,1,NaN,2.735810e-01,NaN,2,0,3,1
36,261,1,1,NaN,NaN,1,NaN,1.443954e-01,NaN,0,0,1,1
36,262,1,19,NaN,NaN,1,NaN,2.603908e-01,NaN,2,0,1,1
36,263,1,67,NaN,NaN,1,NaN,1.267754e-04,NaN,0,0,2,1
36,264,1,48,NaN,NaN,1,NaN,2.213829e-01,NaN,0,0,1,1
36,265,1,99,NaN,NaN,2,NaN,2.708670e-01,NaN,1,0,3,1
36,266,1,110,NaN,NaN,1,NaN,2.695691e-01,NaN,2,0,3,1
36,267,1,10,NaN,NaN,1,NaN,2.921171e-01,NaN,1,0,1,1
36,268,1,109,NaN,NaN,1,NaN,8.242138e-02,NaN,1,0,3,1
36,269,1,85,NaN,NaN,1,NaN,1.446395e-01,NaN,0,1,2,1
36,270,1,64,NaN,NaN,1,NaN,1.261719e-04,NaN,1,0,2,1
36,271,1,9,NaN,NaN,1,NaN,2.305904e-01,NaN,1,0,1,1
36,272,1,41,NaN,NaN,1,NaN,3.426299e-01,NaN,2,0,1,1
36,273,1,30,NaN,NaN,1,NaN,2.667493e-01,NaN,1,0,1,1
36,274,1,133,NaN,NaN,2,NaN,2.258828e-01,NaN,2,1,3,1
36,275,1,71,NaN,NaN,1,NaN,1.219464e-04,NaN,0,1,2,1
36,276,1,13,NaN,NaN,1,NaN,2.921515e-01,NaN,1,0,1,1
36,277,1,19,NaN,NaN,1,NaN,4.745397e-01,NaN,0,0,1,1
36,278,1,7,NaN,NaN,1,NaN,2.491887e-01,NaN,0,0,1,1
36,279,1,80,NaN,NaN,1,NaN,2.088372e-01,NaN,2,0,2,1
36,280,1,38,NaN,NaN,1,NaN,7.463705e-02,NaN,0,0,1,1
36,281,1,11,NaN,NaN,1,NaN,2.657070e-01,NaN,2,0,1,1
36,282,1,30,NaN,NaN,1,NaN,2.333297e-01,NaN,0,0,1,1
36,283,1,82,NaN,NaN,1,NaN,7.375174e-02,NaN,1,0,2,1
36,284,1,25,NaN,NaN,1,NaN,1.412649e-04,NaN,0,0,1,1
36,285,1,117,NaN,NaN,2,NaN,2.421297e-01,NaN,0,0,3,1
36,286,1,132,NaN,NaN,2,NaN,6.666371e-01,NaN,0,0,3,1
36,287,1,138,NaN,NaN,1,NaN,2.657121e-01,NaN,1,0,3,1
36,288,1,65,NaN,NaN,1,NaN,2.729661e-01,NaN,0,0,2,1
36,363,2,34,59,1,1,1,1.692161e+00,NaN,1,0,1,1
36,364,2,45,40,2,2,1,2.510522e+00,NaN,1,0,1,1
36,365,2,7,64,1,1,1,1.087338e+00,NaN,1,0,1,1
36,366,2,99,1,1,0,0,3.499843e+00,NaN,1,0,3,1
36,367,2,76,47,2,2,1,7.308809e-01,NaN,1,0,2,1
36,368,2,102,35,1,1,1,8.275658e-01,NaN,1,0,3,1
36,369,2,9,49,1,1,1,1.847862e+00,NaN,1,0,1,1
36,370,2,109,51,2,2,1,7.310409e-01,NaN,1,0,3,1
36,371,2,144,39,2,2,1,1.171457e+00,NaN,1,0,3,1
36,372,2,8,37,1,1,1,8.181491e-01,NaN,1,0,1,1
36,373,2,122,44,2,2,1,1.847040e+00,NaN,1,0,3,1
36,374,2,139,50,2,2,1,9.547185e-01,NaN,1,0,3,1
36,375,2,30,11,1,1,1,1.138038e+00,NaN,1,0,1,1
36,376,2,137,57,1,1,1,2.682078e+00,NaN,1,0,3,1
36,377,2,70,13,1,2,0,1.604275e+00,NaN,1,0,2,1
36,378,2,53,7,1,1,1,8.092458e-01,NaN,1,0,2,1
36,379,2,73,70,2,2,1,6.712502e-01,NaN,1,1,2,1
36,380,2,66,34,1,1,1,8.087849e-01,NaN,1,1,2,1
36,381,2,85,48,2,2,1,8.221111e-01,NaN,1,1,2,1
36,382,2,39,52,1,1,1,1.515007e+00,NaN,1,0,1,1
36,383,2,25,21,2,2,1,8.995481e-01,NaN,1,0,1,1
36,384,2,136,28,1,1,1,1.109346e+00,NaN,1,0,3,1
36,385,2,119,67,1,1,1,7.100734e-01,NaN,1,0,3,1
36,386,2,115,26,1,1,1,1.839703e+00,NaN,1,0,3,1
36,387,3,45,40,2,2,1,1.214881e+00,NaN,1,0,1,1
36,388,3,70,13,1,2,0,5.638012e-01,NaN,1,0,2,1
36,389,3,136,28,2,2,1,7.067721e-01,NaN,1,0,3,1
36,390,3,76,47,1,1,1,6.759032e-01,NaN,1,0,2,1
36,391,3,99,1,2,1,0,1.270658e+00,NaN,1,0,3,1
36,392,3,25,21,2,2,1,7.369610e-01,NaN,1,0,1,1
36,393,3,34,59,2,2,1,7.933143e-01,NaN,1,0,1,1
36,394,3,9,49,2,2,1,1.687052e+00,NaN,1,0,1,1
36,395,3,53,7,2,2,1,5.689042e-01,NaN,1,0,2,1
36,396,3,139,50,2,1,0,1.072141e+00,NaN,1,0,3,1
36,397,3,137,57,1,2,0,6.989344e-01,NaN,1,0,3,1
36,398,3,7,64,2,2,1,5.643756e-01,NaN,1,0,1,1
36,399,3,122,44,2,2,1,1.106936e+00,NaN,1,0,3,1
36,400,3,109,51,1,1,1,6.759608e-01,NaN,1,0,3,1
36,401,3,30,11,1,1,1,6.548412e-01,NaN,1,0,1,1
36,402,3,102,35,1,1,1,8.824319e-01,NaN,1,0,3,1
36,403,3,73,70,2,2,1,6.041153e-01,NaN,1,1,2,1
36,404,3,144,39,2,2,1,7.054935e-01,NaN,1,0,3,1
36,405,3,85,48,1,1,1,7.548633e-01,NaN,1,1,2,1
36,406,3,8,37,2,2,1,7.377609e-01,NaN,1,0,1,1
36,407,3,115,26,1,2,0,1.593741e+00,NaN,1,0,3,1
36,408,3,39,52,2,2,1,1.247073e+00,NaN,1,0,1,1
36,409,3,66,34,1,1,1,1.034603e+00,NaN,1,1,2,1
36,410,3,119,67,2,2,1,5.907673e-01,NaN,1,0,3,1
36,435,2,61,27,2,2,1,6.304327e-01,NaN,1,0,2,2
36,436,2,142,66,2,2,1,8.263973e-01,NaN,1,1,3,2
36,437,2,51,14,2,2,1,7.591797e-01,NaN,1,1,2,2
36,438,2,105,4,1,1,1,1.134312e+00,NaN,1,0,3,2
36,439,2,64,71,2,2,1,1.558670e+00,NaN,1,0,2,2
36,440,2,131,16,1,1,1,8.534516e-01,NaN,1,0,3,2
36,441,2,63,5,1,1,1,6.647907e-01,NaN,1,1,2,2
36,442,2,3,8,2,2,1,9.394284e-01,NaN,1,1,1,2
36,443,2,62,62,1,1,1,5.633717e-01,NaN,1,0,2,2
36,444,2,15,69,2,2,1,7.142383e-01,NaN,1,0,1,2
36,445,2,96,42,1,1,1,6.192538e-01,NaN,1,1,2,2
36,446,2,92,41,1,1,1,1.191950e+00,NaN,1,0,2,2
36,447,2,38,36,1,1,1,1.005533e+00,NaN,1,0,1,2
36,448,2,135,22,1,1,1,5.945567e-01,NaN,1,0,3,2
36,449,2,88,43,1,1,1,5.763610e-01,NaN,1,0,2,2
36,450,2,87,18,1,1,1,1.111175e+00,NaN,1,1,2,2
36,451,2,67,10,1,1,1,9.601955e-01,NaN,1,0,2,2
36,452,2,69,23,1,2,0,1.103244e+00,NaN,1,1,2,2
36,453,2,107,63,2,2,1,9.047073e-01,NaN,1,0,3,2
36,454,2,138,25,2,2,1,6.816220e-01,NaN,1,0,3,2
36,455,2,6,55,1,1,1,1.563984e+00,NaN,1,0,1,2
36,456,2,82,17,1,1,1,6.747302e-01,NaN,1,0,2,2
36,457,2,90,29,1,2,0,1.869318e+00,NaN,1,1,2,2
36,458,2,134,15,1,1,1,7.281453e-01,NaN,1,0,3,2
36,459,3,6,55,2,2,1,4.977562e-01,NaN,1,0,1,2
36,460,3,87,18,2,2,1,7.075500e-01,NaN,1,1,2,2
36,461,3,92,41,2,2,1,7.404404e-01,NaN,1,0,2,2
36,462,3,64,71,2,2,1,7.166247e-01,NaN,1,0,2,2
36,463,3,3,8,1,1,1,9.495777e-01,NaN,1,1,1,2
36,464,3,82,17,2,2,1,5.329211e-01,NaN,1,0,2,2
36,465,3,67,10,1,2,0,5.252831e-01,NaN,1,0,2,2
36,466,3,142,66,2,2,1,7.738854e-01,NaN,1,1,3,2
36,467,3,51,14,2,2,1,6.127387e-01,NaN,1,1,2,2
36,468,3,69,23,1,1,1,1.225839e+00,NaN,1,1,2,2
36,469,3,62,62,2,2,1,4.855812e-01,NaN,1,0,2,2
36,470,3,138,25,2,2,1,5.841273e-01,NaN,1,0,3,2
36,471,3,134,15,1,1,1,8.622860e-01,NaN,1,0,3,2
36,472,3,135,22,1,1,1,5.297580e-01,NaN,1,0,3,2
36,473,3,131,16,1,1,1,9.859255e-01,NaN,1,0,3,2
36,474,3,96,42,2,2,1,4.957414e-01,NaN,1,1,2,2
36,475,3,63,5,2,1,0,6.733091e-01,NaN,1,1,2,2
36,476,3,15,69,2,2,1,1.379686e+00,NaN,1,0,1,2
36,477,3,38,36,2,2,1,1.105715e+00,NaN,1,0,1,2
36,478,3,90,29,1,1,1,8.348198e-01,NaN,1,1,2,2
36,479,3,107,63,2,2,1,6.230386e-01,NaN,1,0,3,2
36,480,3,88,43,2,2,1,9.157908e-01,NaN,1,0,2,2
36,481,3,61,27,1,1,1,9.482707e-01,NaN,1,0,2,2
36,482,3,105,4,2,2,1,1.139907e+00,NaN,1,0,3,2
36,507,2,49,9,2,1,0,6.475432e-01,NaN,1,0,2,3
36,508,2,1,24,1,1,1,1.099029e+00,NaN,1,0,1,3
36,509,2,28,30,2,2,1,7.806301e-01,NaN,1,1,1,3
36,510,2,31,3,2,1,0,8.348648e-01,NaN,1,0,1,3
36,511,2,10,32,1,1,1,1.222758e+00,NaN,1,0,1,3
36,512,2,98,20,2,1,0,1.059777e+00,NaN,1,0,3,3
36,513,2,48,53,1,1,1,8.072898e-01,NaN,1,0,1,3
36,514,2,103,33,2,2,1,7.804252e-01,NaN,1,0,3,3
36,515,2,86,46,1,1,1,9.706330e-01,NaN,1,0,2,3
36,516,2,120,65,1,1,1,8.730466e-01,NaN,1,0,3,3
36,517,2,33,45,2,2,1,8.276277e-01,NaN,1,0,1,3
36,518,2,12,31,2,2,1,6.559626e-01,NaN,1,0,1,3
36,519,2,117,60,1,1,1,1.035043e+00,NaN,1,0,3,3
36,520,2,71,38,2,2,1,1.127118e+00,NaN,1,1,2,3
36,521,2,140,72,2,2,1,1.087928e+00,NaN,1,1,3,3
36,522,2,42,61,1,2,0,1.073524e+00,NaN,1,0,1,3
36,523,2,74,68,2,2,1,7.880833e-01,NaN,1,0,2,3
36,524,2,123,6,1,1,1,7.860102e-01,NaN,1,1,3,3
36,525,2,17,58,1,1,1,1.055728e+00,NaN,1,0,1,3
36,526,2,27,2,2,2,1,1.275127e+00,NaN,1,1,1,3
36,527,2,127,56,1,1,1,6.372191e-01,NaN,1,0,3,3
36,528,2,13,54,2,2,1,1.473203e+00,NaN,1,0,1,3
36,529,2,23,12,2,2,1,9.398923e-01,NaN,1,1,1,3
36,530,2,83,19,1,1,1,6.117052e-01,NaN,1,1,2,3
36,531,3,127,56,1,1,1,6.931996e-01,NaN,1,0,3,3
36,532,3,42,61,1,2,0,8.706128e-01,NaN,1,0,1,3
36,533,3,28,30,1,1,1,6.574649e-01,NaN,1,1,1,3
36,534,3,123,6,1,1,1,9.890261e-01,NaN,1,1,3,3
36,535,3,13,54,1,1,1,6.347590e-01,NaN,1,0,1,3
36,536,3,117,60,2,2,1,7.587752e-01,NaN,1,0,3,3
36,537,3,48,53,1,1,1,1.229804e+00,NaN,1,0,1,3
36,538,3,49,9,2,2,1,6.900613e-01,NaN,1,0,2,3
36,539,3,120,65,2,2,1,1.243827e+00,NaN,1,0,3,3
36,540,3,27,2,2,2,1,5.595726e-01,NaN,1,1,1,3
36,541,3,23,12,1,1,1,8.386064e-01,NaN,1,1,1,3
36,542,3,10,32,1,1,1,8.504793e-01,NaN,1,0,1,3
36,543,3,33,45,2,2,1,7.019154e-01,NaN,1,0,1,3
36,544,3,83,19,2,2,1,6.471508e-01,NaN,1,1,2,3
36,545,3,31,3,1,2,0,1.410769e+00,NaN,1,0,1,3
36,546,3,12,31,1,1,1,1.031923e+00,NaN,1,0,1,3
36,547,3,140,72,2,2,1,7.402648e-01,NaN,1,1,3,3
36,548,3,1,24,1,1,1,1.148768e+00,NaN,1,0,1,3
36,549,3,71,38,2,2,1,7.882312e-01,NaN,1,1,2,3
36,550,3,103,33,1,2,0,7.778003e-01,NaN,1,0,3,3
36,551,3,98,20,2,1,0,1.696674e+00,NaN,1,0,3,3
36,552,3,86,46,2,2,1,6.906221e-01,NaN,1,0,2,3
36,553,3,17,58,1,1,1,1.092101e+00,NaN,1,0,1,3
36,554,3,74,68,1,1,1,9.896524e-01,NaN,1,0,2,3
36,579,4,68,61,1,1,1,8.842010e-01,NaN,2,0,2,1
36,580,4,128,43,1,1,1,9.102093e-01,NaN,2,0,3,1
36,581,4,47,23,1,1,1,9.915087e-01,NaN,2,1,1,1
36,582,4,77,20,2,2,1,5.971619e-01,NaN,2,0,2,1
36,583,4,24,44,1,1,1,9.068265e-01,NaN,2,0,1,1
36,584,4,141,46,2,2,1,7.321584e-01,NaN,2,0,3,1
36,585,4,111,45,2,2,1,2.126257e-01,NaN,2,0,3,1
36,586,4,18,65,1,1,1,1.073753e+00,NaN,2,0,1,1
36,587,4,56,69,2,2,1,1.019893e+00,NaN,2,0,2,1
36,588,4,75,22,2,2,1,6.570646e-01,NaN,2,0,2,1
36,589,4,40,14,1,1,1,9.641973e-01,NaN,2,1,1,1
36,590,4,52,3,1,1,1,4.910045e-01,NaN,2,0,2,1
36,591,4,116,52,1,1,1,1.029076e+00,NaN,2,0,3,1
36,592,4,89,26,1,1,1,8.090541e-01,NaN,2,0,2,1
36,593,4,121,71,2,2,1,1.358198e+00,NaN,2,0,3,1
36,594,4,72,31,2,2,1,6.372034e-01,NaN,2,0,2,1
36,595,4,95,15,2,1,0,1.169287e+00,NaN,2,0,2,1
36,596,4,19,63,2,2,1,1.784104e+00,NaN,2,0,1,1
36,597,4,44,29,1,1,1,1.205677e+00,NaN,2,1,1,1
36,598,4,16,72,2,2,1,1.802751e+00,NaN,2,1,1,1
36,599,4,35,10,1,1,1,1.120365e+00,NaN,2,0,1,1
36,600,4,26,34,2,2,1,1.073065e+00,NaN,2,1,1,1
36,601,4,126,18,2,1,0,1.291986e+00,NaN,2,1,3,1
36,602,4,54,8,1,1,1,1.493426e+00,NaN,2,1,2,1
36,627,4,5,60,2,2,1,7.262180e-01,NaN,2,0,1,2
36,628,4,78,67,2,2,1,7.110297e-01,NaN,2,0,2,2
36,629,4,32,47,1,1,1,7.440194e-01,NaN,2,0,1,2
36,630,4,79,50,1,1,1,5.602506e-01,NaN,2,0,2,2
36,631,4,50,55,1,2,0,1.255135e+00,NaN,2,0,2,2
36,632,4,124,5,1,1,1,5.542227e-01,NaN,2,1,3,2
36,633,4,65,54,1,1,1,8.893303e-01,NaN,2,0,2,2
36,634,4,43,19,1,1,1,8.349420e-01,NaN,2,1,1,2
36,635,4,125,17,2,2,1,2.223284e+00,NaN,2,0,3,2
36,636,4,4,66,2,2,1,1.211532e+00,NaN,2,1,1,2
36,637,4,104,24,1,1,1,7.526492e-01,NaN,2,0,3,2
36,638,4,101,21,1,1,1,7.199526e-01,NaN,2,0,3,2
36,639,4,14,33,2,2,1,1.000725e+00,NaN,2,0,1,2
36,640,4,2,6,1,1,1,1.022251e+00,NaN,2,1,1,2
36,641,4,41,62,2,2,1,1.138421e+00,NaN,2,0,1,2
36,642,4,133,38,2,2,1,6.747462e-01,NaN,2,1,3,2
36,643,4,55,32,1,1,1,1.732959e+00,NaN,2,0,2,2
36,644,4,100,12,1,1,1,1.277478e+00,NaN,2,1,3,2
36,645,4,29,70,2,2,1,6.959277e-01,NaN,2,1,1,2
36,646,4,22,16,2,1,0,1.033534e+00,NaN,2,0,1,2
36,647,4,58,40,1,1,1,6.776074e-01,NaN,2,0,2,2
36,648,4,93,51,1,1,1,1.792231e+00,NaN,2,0,2,2
36,649,4,46,41,2,2,1,8.222113e-01,NaN,2,0,1,2
36,650,4,59,53,1,1,1,9.389458e-01,NaN,2,0,2,2
36,675,4,21,25,1,1,1,6.734573e-01,NaN,2,0,1,3
36,676,4,130,27,1,1,1,1.035983e+00,NaN,2,0,3,3
36,677,4,118,13,2,2,1,1.056562e+00,NaN,2,0,3,3
36,678,4,57,37,1,1,1,6.755367e-01,NaN,2,0,2,3
36,679,4,129,42,2,2,1,8.704591e-01,NaN,2,1,3,3
36,680,4,112,30,2,2,1,7.454306e-01,NaN,2,1,3,3
36,681,4,84,4,2,2,1,1.041207e+00,NaN,2,0,2,3
36,682,4,37,7,2,2,1,9.646649e-01,NaN,2,0,1,3
36,683,4,106,59,1,1,1,6.359181e-01,NaN,2,0,3,3
36,684,4,94,35,2,2,1,9.202213e-01,NaN,2,0,2,3
36,685,4,11,1,1,1,1,1.441155e+00,NaN,2,0,1,3
36,686,4,114,11,1,1,1,1.445000e+00,NaN,2,0,3,3
36,687,4,97,49,1,2,0,1.225038e+00,NaN,2,0,3,3
36,688,4,80,57,2,2,1,9.977953e-01,NaN,2,0,2,3
36,689,4,108,36,2,2,1,1.067360e+00,NaN,2,0,3,3
36,690,4,20,28,2,2,1,8.628460e-01,NaN,2,0,1,3
36,691,4,113,2,1,1,1,6.899765e-01,NaN,2,1,3,3
36,692,4,143,48,2,2,1,6.682336e-01,NaN,2,1,3,3
36,693,4,81,56,2,2,1,6.388451e-01,NaN,2,0,2,3
36,694,4,36,68,2,2,1,6.509072e-01,NaN,2,0,1,3
36,695,4,91,39,1,1,1,8.228467e-01,NaN,2,0,2,3
36,696,4,132,9,2,2,1,8.114493e-01,NaN,2,0,3,3
36,697,4,60,58,1,1,1,9.527930e-01,NaN,2,0,2,3
36,698,4,110,64,1,1,1,6.885765e-01,NaN,2,0,3,3
36,699,5,1.397900e+02,50,3,2,0,1.195574e+00,1,1,0,3.200000e+00,1
36,700,5,8.928000e+01,43,2,2,1,1.638412e+00,1,1,0,2.300000e+00,1
36,701,5,1.099300e+02,51,3,3,1,6.727350e-01,1,1,0,3.200000e+00,1
36,702,5,1.272000e+01,31,1,1,1,3.858115e-01,1,1,0,1.200000e+00,1
36,703,5,1.158900e+02,26,3,2,0,4.200868e-01,1,1,0,3.200000e+00,1
36,704,5,9.877000e+01,20,3,3,1,3.657185e-01,1,1,0,3.200000e+00,1
36,705,5,8.100000e+00,64,1,1,1,6.791317e-01,1,1,0,1.300000e+00,1
36,706,5,7.436000e+01,68,2,3,0,8.242597e-01,1,1,0,2.100000e+00,1
36,707,5,4.558000e+01,40,1,1,1,6.741413e-01,1,1,0,1.200000e+00,1
36,708,5,4.268000e+01,61,1,1,1,3.153475e-01,1,1,0,1.200000e+00,1
36,709,5,2.601000e+01,21,1,1,1,1.300858e+00,1,1,0,1.300000e+00,1
36,710,5,7.632000e+01,47,2,2,1,4.546788e-01,1,1,0,2.100000e+00,1
36,711,5,5.337000e+01,7,2,2,1,1.072183e+00,1,1,0,2.100000e+00,1
36,712,5,1.029400e+02,35,3,3,1,7.058563e-01,1,1,0,3.200000e+00,1
36,713,5,3.506000e+01,59,1,1,1,3.481066e-01,1,1,0,1.300000e+00,1
36,714,5,1.099300e+02,51,3,3,1,5.248002e-01,2,1,0,3.200000e+00,1
36,715,5,9.970000e+00,49,1,3,0,6.464595e-01,1,1,0,1.300000e+00,1
36,716,5,2.601000e+01,21,1,1,1,3.356138e-01,2,1,0,1.300000e+00,1
36,717,5,1.158900e+02,26,3,1,0,3.134395e-01,2,1,0,3.200000e+00,1
36,718,5,1.031400e+02,33,3,1,0,3.786490e-01,1,1,0,3.100000e+00,1
36,719,5,1.055000e+01,32,1,0,0,2.500421e+00,1,1,0,1.200000e+00,1
36,720,5,3.114000e+01,11,1,1,1,9.345343e-01,1,1,0,1.300000e+00,1
36,721,5,1.055000e+01,32,1,1,1,4.724593e-01,2,1,0,1.200000e+00,1
36,722,5,6.500000e+00,55,1,2,0,5.378068e-01,1,1,0,1.200000e+00,1
36,723,5,3.411000e+01,45,1,1,1,4.113031e-01,1,1,0,1.300000e+00,1
36,724,5,8.741000e+01,46,2,2,1,3.568267e-01,1,1,0,2.300000e+00,1
36,725,5,1.760000e+01,58,1,1,1,7.583692e-01,1,1,0,1.200000e+00,1
36,726,5,8.570000e+00,37,1,1,1,4.242019e-01,1,1,0,1.200000e+00,1
36,727,5,1.760000e+01,58,1,1,1,3.297568e-01,2,1,0,1.200000e+00,1
36,728,5,4.268000e+01,61,1,1,1,3.151676e-01,2,1,0,1.200000e+00,1
36,729,5,1.170500e+02,60,3,3,1,8.287982e-01,1,1,0,3.100000e+00,1
36,730,5,7.632000e+01,47,2,2,1,3.425116e-01,2,1,0,2.100000e+00,1
36,731,5,1.071900e+02,63,3,3,1,3.043651e-01,1,1,0,3.100000e+00,1
36,732,5,2.040000e+00,24,1,1,1,3.855405e-01,1,1,0,1.300000e+00,1
36,733,5,1.362000e+02,28,3,1,0,3.953855e-01,1,1,0,3.100000e+00,1
36,734,5,1.058400e+02,4,3,3,1,3.172712e-01,1,1,0,3.200000e+00,1
36,735,5,3.506000e+01,59,1,1,1,3.109125e-01,2,1,0,1.300000e+00,1
36,736,5,1.357500e+02,22,3,3,1,3.289176e-01,1,1,0,3.200000e+00,1
36,737,5,6.500000e+00,55,1,1,1,3.460094e-01,2,1,0,1.200000e+00,1
36,738,5,4.558000e+01,40,1,3,0,3.716428e-01,2,1,0,1.200000e+00,1
36,739,5,4.859000e+01,53,1,1,1,3.493505e-01,1,1,0,1.200000e+00,1
36,740,5,1.382100e+02,25,3,3,1,4.391219e-01,1,1,0,3.100000e+00,1
36,741,5,9.911000e+01,1,3,3,1,3.602173e-01,1,1,0,3.100000e+00,1
36,742,5,1.378000e+02,57,3,2,0,1.274062e+00,1,1,0,3.200000e+00,1
36,743,5,3.152000e+01,3,1,1,1,4.515577e-01,1,1,0,1.200000e+00,1
36,744,5,3.506000e+01,59,1,1,1,4.612264e-01,3,1,0,1.300000e+00,1
36,745,5,4.859000e+01,53,1,1,1,6.072409e-01,2,1,0,1.200000e+00,1
36,746,5,4.859000e+01,53,1,1,1,5.132464e-01,3,1,0,1.200000e+00,1
36,747,5,8.928000e+01,43,2,2,1,3.221454e-01,2,1,0,2.300000e+00,1
36,748,5,7.118000e+01,13,2,3,0,3.396594e-01,1,1,0,2.300000e+00,1
36,749,5,1.170500e+02,60,3,1,0,4.129092e-01,2,1,0,3.100000e+00,1
36,750,5,1.760000e+01,58,1,1,1,4.547431e-01,3,1,0,1.200000e+00,1
36,751,5,8.928000e+01,43,2,2,1,9.041036e-01,3,1,0,2.300000e+00,1
36,752,5,6.521000e+01,71,2,1,0,2.894807e-01,1,1,0,2.300000e+00,1
36,753,5,7.118000e+01,13,2,3,0,2.749685e-01,2,1,0,2.300000e+00,1
36,754,5,1.362000e+02,28,3,3,1,3.967284e-01,2,1,0,3.100000e+00,1
36,755,5,1.272000e+01,31,1,1,1,2.303387e-01,2,1,0,1.200000e+00,1
36,756,5,5.337000e+01,7,2,2,1,2.963797e-01,2,1,0,2.100000e+00,1
36,757,5,1.760000e+01,58,1,1,1,2.650013e-01,4,1,0,1.200000e+00,1
36,758,5,4.859000e+01,53,1,1,1,2.665217e-01,4,1,0,1.200000e+00,1
36,759,5,1.357500e+02,22,3,3,1,3.483267e-01,2,1,0,3.200000e+00,1
36,760,5,1.158900e+02,26,3,2,0,2.698860e-01,3,1,0,3.200000e+00,1
36,761,5,1.071900e+02,63,3,3,1,3.429538e-01,2,1,0,3.100000e+00,1
36,762,5,4.268000e+01,61,1,1,1,5.131670e-01,3,1,0,1.200000e+00,1
36,763,5,1.029400e+02,35,3,3,1,3.628446e-01,2,1,0,3.200000e+00,1
36,764,5,1.029400e+02,35,3,3,1,3.003635e-01,3,1,0,3.200000e+00,1
36,765,5,8.325000e+01,17,2,2,1,3.177294e-01,1,1,0,2.300000e+00,1
36,766,5,1.382100e+02,25,3,3,1,3.439411e-01,2,1,0,3.100000e+00,1
36,767,5,8.570000e+00,37,1,1,1,2.896612e-01,2,1,0,1.200000e+00,1
36,768,5,1.197800e+02,67,3,3,1,2.991564e-01,1,1,0,3.200000e+00,1
36,769,5,3.506000e+01,59,1,1,1,1.100407e+00,4,1,0,1.300000e+00,1
36,770,5,6.241000e+01,62,2,2,1,3.342872e-01,1,1,0,2.100000e+00,1
36,771,5,1.312200e+02,16,3,3,1,3.361879e-01,1,1,0,3.100000e+00,1
36,772,5,1.272000e+01,31,1,1,1,3.296635e-01,3,1,0,1.200000e+00,1
36,773,5,9.877000e+01,20,3,3,1,3.551713e-01,2,1,0,3.200000e+00,1
36,774,5,1.349500e+02,15,3,3,1,3.489910e-01,1,1,0,3.200000e+00,1
36,775,5,3.152000e+01,3,1,1,1,3.105502e-01,2,1,0,1.200000e+00,1
36,776,5,5.032000e+01,9,2,2,1,8.724163e-01,1,1,0,2.300000e+00,1
36,777,5,1.312200e+02,16,3,3,1,4.335703e-01,2,1,0,3.100000e+00,1
36,778,5,1.556000e+01,69,1,2,0,3.552211e-01,1,1,0,1.200000e+00,1
36,779,5,7.436000e+01,68,2,2,1,6.293807e-01,2,1,0,2.100000e+00,1
36,780,5,9.246000e+01,41,2,2,1,2.945358e-01,1,1,0,2.100000e+00,1
36,781,5,6.241000e+01,62,2,2,1,2.485382e-01,2,1,0,2.100000e+00,1
36,782,5,5.337000e+01,7,2,2,1,3.142032e-01,3,1,0,2.100000e+00,1
36,783,5,1.556000e+01,69,1,1,1,3.153584e-01,2,1,0,1.200000e+00,1
36,784,5,9.246000e+01,41,2,2,1,2.691015e-01,2,1,0,2.100000e+00,1
36,785,5,7.436000e+01,68,2,2,1,4.546365e-01,3,1,0,2.100000e+00,1
36,786,5,8.741000e+01,46,2,2,1,3.201520e-01,2,1,0,2.300000e+00,1
36,787,5,1.071900e+02,63,3,3,1,3.056760e-01,3,1,0,3.100000e+00,1
36,788,5,1.349500e+02,15,3,3,1,3.234584e-01,2,1,0,3.200000e+00,1
36,789,5,1.382100e+02,25,3,3,1,3.326001e-01,3,1,0,3.100000e+00,1
36,790,5,9.877000e+01,20,3,3,1,2.704315e-01,3,1,0,3.200000e+00,1
36,791,5,9.911000e+01,1,3,2,0,3.200596e-01,2,1,0,3.100000e+00,1
36,792,5,1.378000e+02,57,3,2,0,2.814302e-01,2,1,0,3.200000e+00,1
36,793,5,1.201800e+02,65,3,3,1,4.107682e-01,1,1,0,3.100000e+00,1
36,794,5,1.071900e+02,63,3,3,1,3.729338e-01,4,1,0,3.100000e+00,1
36,795,5,1.278100e+02,56,3,3,1,7.660799e-01,1,1,0,3.200000e+00,1
36,796,5,4.016000e+01,52,1,1,1,2.878574e-01,1,1,0,1.300000e+00,1
36,797,5,7.118000e+01,13,2,3,0,3.450872e-01,3,1,0,2.300000e+00,1
36,798,5,1.222400e+02,44,3,1,0,4.346784e-01,1,1,0,3.100000e+00,1
36,799,5,6.241000e+01,62,2,2,1,2.764802e-01,3,1,0,2.100000e+00,1
36,800,5,1.099300e+02,51,3,3,1,3.503856e-01,3,1,0,3.200000e+00,1
36,801,5,6.230000e+01,27,2,2,1,5.522830e-01,1,1,0,2.300000e+00,1
36,802,5,7.632000e+01,47,2,2,1,3.781346e-01,3,1,0,2.100000e+00,1
36,803,5,1.378000e+02,57,3,3,1,3.877699e-01,3,1,0,3.200000e+00,1
36,804,5,1.349500e+02,15,3,3,1,3.733510e-01,3,1,0,3.200000e+00,1
36,805,5,1.222400e+02,44,3,2,0,3.107941e-01,2,1,0,3.100000e+00,1
36,806,5,1.312200e+02,16,3,3,1,4.882088e-01,3,1,0,3.100000e+00,1
36,807,5,8.741000e+01,46,2,2,1,3.220298e-01,3,1,0,2.300000e+00,1
36,808,5,6.241000e+01,62,2,2,1,3.793263e-01,4,1,0,2.100000e+00,1
36,809,5,1.397900e+02,50,3,3,1,3.649068e-01,2,1,0,3.200000e+00,1
36,810,5,2.040000e+00,24,1,1,1,3.583917e-01,2,1,0,1.300000e+00,1
36,811,5,9.877000e+01,20,3,3,1,3.683943e-01,4,1,0,3.200000e+00,1
36,812,5,6.230000e+01,27,2,2,1,2.583175e-01,2,1,0,2.300000e+00,1
36,813,5,4.558000e+01,40,1,1,1,4.755463e-01,3,1,0,1.200000e+00,1
36,814,5,1.222400e+02,44,3,3,1,8.139012e-01,3,1,0,3.100000e+00,1
36,815,5,9.970000e+00,49,1,1,1,3.992485e-01,2,1,0,1.300000e+00,1
36,816,5,4.016000e+01,52,1,3,0,8.646504e-01,2,1,0,1.300000e+00,1
36,817,5,1.055000e+01,32,1,1,1,3.222767e-01,3,1,0,1.200000e+00,1
36,818,5,1.365000e+01,54,1,2,0,3.394300e-01,1,1,0,1.200000e+00,1
36,819,5,1.170500e+02,60,3,2,0,4.289632e-01,3,1,0,3.100000e+00,1
36,820,5,1.055000e+01,32,1,1,1,3.507762e-01,4,1,0,1.200000e+00,1
36,821,5,3.411000e+01,45,1,1,1,3.126487e-01,2,1,0,1.300000e+00,1
36,822,5,3.908000e+01,36,1,1,1,3.698511e-01,1,1,0,1.300000e+00,1
36,823,5,6.230000e+01,27,2,2,1,3.393908e-01,3,1,0,2.300000e+00,1
36,824,5,3.114000e+01,11,1,1,1,2.608678e-01,2,1,0,1.300000e+00,1
36,825,5,1.278100e+02,56,3,3,1,3.507448e-01,2,1,0,3.200000e+00,1
36,826,5,1.278100e+02,56,3,3,1,3.769647e-01,3,1,0,3.200000e+00,1
36,827,5,2.601000e+01,21,1,1,1,2.985186e-01,3,1,0,1.300000e+00,1
36,828,5,1.058400e+02,4,3,3,1,2.999491e-01,2,1,0,3.200000e+00,1
36,829,5,1.197800e+02,67,3,3,1,5.733305e-01,2,1,0,3.200000e+00,1
36,830,5,9.911000e+01,1,3,3,1,3.908617e-01,3,1,0,3.100000e+00,1
36,831,5,2.040000e+00,24,1,1,1,5.848743e-01,3,1,0,1.300000e+00,1
36,832,5,1.201800e+02,65,3,1,0,3.303152e-01,2,1,0,3.100000e+00,1
36,833,5,9.970000e+00,49,1,1,1,3.959110e-01,3,1,0,1.300000e+00,1
36,834,5,6.500000e+00,55,1,3,0,3.975500e-01,3,1,0,1.200000e+00,1
36,835,5,6.230000e+01,27,2,2,1,5.033036e-01,4,1,0,2.300000e+00,1
36,836,5,1.201800e+02,65,3,3,1,3.522250e-01,3,1,0,3.100000e+00,1
36,837,5,3.411000e+01,45,1,1,1,3.382142e-01,3,1,0,1.300000e+00,1
36,838,5,1.058400e+02,4,3,3,1,4.437471e-01,3,1,0,3.200000e+00,1
36,839,5,1.031400e+02,33,3,3,1,3.897748e-01,2,1,0,3.100000e+00,1
36,840,5,1.272000e+01,31,1,1,1,2.553829e-01,4,1,0,1.200000e+00,1
36,841,5,1.397900e+02,50,3,3,1,3.286037e-01,3,1,0,3.200000e+00,1
36,842,5,1.378000e+02,57,3,3,1,2.742465e-01,4,1,0,3.200000e+00,1
36,843,5,1.365000e+01,54,1,1,1,3.394575e-01,2,1,0,1.200000e+00,1
36,844,5,1.362000e+02,28,3,3,1,2.931648e-01,3,1,0,3.100000e+00,1
36,845,5,3.908000e+01,36,1,0,0,2.500613e+00,2,1,0,1.300000e+00,1
36,846,5,1.197800e+02,67,3,3,1,2.570216e-01,3,1,0,3.200000e+00,1
36,847,5,1.365000e+01,54,1,1,1,3.546072e-01,3,1,0,1.200000e+00,1
36,848,5,1.362000e+02,28,3,3,1,3.161758e-01,4,1,0,3.100000e+00,1
36,849,5,8.325000e+01,17,2,2,1,2.859032e-01,2,1,0,2.300000e+00,1
36,850,5,1.170500e+02,60,3,3,1,5.273927e-01,4,1,0,3.100000e+00,1
36,851,5,4.268000e+01,61,1,1,1,4.175782e-01,4,1,0,1.200000e+00,1
36,852,5,6.500000e+00,55,1,3,0,5.870965e-01,4,1,0,1.200000e+00,1
36,853,5,1.357500e+02,22,3,3,1,8.128121e-01,3,1,0,3.200000e+00,1
36,854,5,4.016000e+01,52,1,2,0,1.006320e+00,3,1,0,1.300000e+00,1
36,855,5,1.031400e+02,33,3,3,1,2.876090e-01,3,1,0,3.100000e+00,1
36,856,5,7.118000e+01,13,2,3,0,3.132759e-01,4,1,0,2.300000e+00,1
36,857,5,1.222400e+02,44,3,3,1,2.591331e-01,4,1,0,3.100000e+00,1
36,858,5,1.382100e+02,25,3,3,1,3.005694e-01,4,1,0,3.100000e+00,1
36,859,5,3.114000e+01,11,1,1,1,3.504299e-01,3,1,0,1.300000e+00,1
36,860,5,4.016000e+01,52,1,1,1,4.003666e-01,4,1,0,1.300000e+00,1
36,861,5,1.357500e+02,22,3,3,1,2.644208e-02,4,1,0,3.200000e+00,1
36,862,5,9.246000e+01,41,2,2,1,3.478452e-01,3,1,0,2.100000e+00,1
36,863,5,8.928000e+01,43,2,2,1,4.225363e-01,4,1,0,2.300000e+00,1
36,864,5,6.735000e+01,10,2,2,1,3.432562e-01,1,1,0,2.100000e+00,1
36,865,5,1.099300e+02,51,3,3,1,3.769768e-01,4,1,0,3.200000e+00,1
36,866,5,1.449100e+02,39,3,3,1,3.707780e-01,1,1,0,3.200000e+00,1
36,867,5,5.032000e+01,9,2,2,1,1.380073e+00,2,1,0,2.300000e+00,1
36,868,5,7.632000e+01,47,2,2,1,5.740909e-01,4,1,0,2.100000e+00,1
36,869,5,1.058400e+02,4,3,3,1,5.033829e-01,4,1,0,3.200000e+00,1
36,870,5,1.397900e+02,50,3,3,1,3.125925e-01,4,1,0,3.200000e+00,1
36,871,5,1.278100e+02,56,3,3,1,3.221055e-01,4,1,0,3.200000e+00,1
36,872,5,1.029400e+02,35,3,3,1,3.076109e-01,4,1,0,3.200000e+00,1
36,873,5,1.031400e+02,33,3,3,1,4.932587e-01,4,1,0,3.100000e+00,1
36,874,5,8.741000e+01,46,2,2,1,5.029471e-01,4,1,0,2.300000e+00,1
36,875,5,1.449100e+02,39,3,3,1,3.207358e-01,2,1,0,3.200000e+00,1
36,876,5,8.570000e+00,37,1,1,1,3.380959e-01,3,1,0,1.200000e+00,1
36,877,5,9.246000e+01,41,2,2,1,3.476949e-01,4,1,0,2.100000e+00,1
36,878,5,3.908000e+01,36,1,1,1,2.853913e-01,3,1,0,1.300000e+00,1
36,879,5,8.100000e+00,64,1,1,1,3.193222e-01,2,1,0,1.300000e+00,1
36,880,5,7.436000e+01,68,2,2,1,3.528254e-01,4,1,0,2.100000e+00,1
36,881,5,1.449100e+02,39,3,0,0,2.500340e+00,3,1,0,3.200000e+00,1
36,882,5,9.970000e+00,49,1,1,1,3.570727e-01,4,1,0,1.300000e+00,1
36,883,5,6.521000e+01,71,2,1,0,3.505148e-01,2,1,0,2.300000e+00,1
36,884,5,6.521000e+01,71,2,2,1,2.885151e-01,3,1,0,2.300000e+00,1
36,885,5,1.365000e+01,54,1,1,1,3.857185e-01,4,1,0,1.200000e+00,1
36,886,5,4.558000e+01,40,1,1,1,3.075653e-01,4,1,0,1.200000e+00,1
36,887,5,1.312200e+02,16,3,3,1,3.090624e-01,4,1,0,3.100000e+00,1
36,888,5,3.114000e+01,11,1,1,1,3.028239e-01,4,1,0,1.300000e+00,1
36,889,5,1.556000e+01,69,1,2,0,2.724019e-01,3,1,0,1.200000e+00,1
36,890,5,9.911000e+01,1,3,3,1,4.821652e-01,4,1,0,3.100000e+00,1
36,891,5,6.735000e+01,10,2,2,1,3.075360e-01,2,1,0,2.100000e+00,1
36,892,5,8.100000e+00,64,1,1,1,9.650652e-01,3,1,0,1.300000e+00,1
36,893,5,6.521000e+01,71,2,2,1,2.707584e-01,4,1,0,2.300000e+00,1
36,894,5,5.032000e+01,9,2,2,1,1.008088e+00,3,1,0,2.300000e+00,1
36,895,5,1.201800e+02,65,3,3,1,3.218016e-01,4,1,0,3.100000e+00,1
36,896,5,6.735000e+01,10,2,2,1,2.990417e-01,3,1,0,2.100000e+00,1
36,897,5,5.032000e+01,9,2,2,1,4.208414e-01,4,1,0,2.300000e+00,1
36,898,5,8.325000e+01,17,2,2,1,2.781551e-01,3,1,0,2.300000e+00,1
36,899,5,3.152000e+01,3,1,1,1,3.039661e-01,3,1,0,1.200000e+00,1
36,900,5,3.152000e+01,3,1,1,1,2.730038e-01,4,1,0,1.200000e+00,1
36,901,5,6.735000e+01,10,2,2,1,3.227572e-01,4,1,0,2.100000e+00,1
36,902,5,5.337000e+01,7,2,2,1,3.162751e-01,4,1,0,2.100000e+00,1
36,903,5,1.197800e+02,67,3,2,0,6.698213e-01,4,1,0,3.200000e+00,1
36,904,5,2.601000e+01,21,1,1,1,4.390896e-01,4,1,0,1.300000e+00,1
36,905,5,1.449100e+02,39,3,3,1,4.008779e-01,4,1,0,3.200000e+00,1
36,906,5,8.100000e+00,64,1,1,1,2.984525e-01,4,1,0,1.300000e+00,1
36,907,5,2.040000e+00,24,1,1,1,3.880959e-01,4,1,0,1.300000e+00,1
36,908,5,3.411000e+01,45,1,1,1,6.055050e-01,4,1,0,1.300000e+00,1
36,909,5,8.570000e+00,37,1,1,1,4.549227e-01,4,1,0,1.200000e+00,1
36,910,5,8.325000e+01,17,2,2,1,3.284507e-01,4,1,0,2.300000e+00,1
36,911,5,1.556000e+01,69,1,1,1,3.778485e-01,4,1,0,1.200000e+00,1
36,912,5,3.908000e+01,36,1,1,1,4.353901e-01,4,1,0,1.300000e+00,1
36,913,5,1.158900e+02,26,3,3,1,2.932822e-01,4,1,0,3.200000e+00,1
36,914,5,1.349500e+02,15,3,3,1,1.391517e-04,4,1,0,3.200000e+00,1
36,915,6,133,38,2,2,1,8.734649e-01,NaN,2,1,3,1
36,916,6,111,45,1,1,1,1.013651e+00,NaN,2,0,3,1
36,917,6,18,65,2,2,1,8.673435e-01,NaN,2,0,1,1
36,918,6,132,9,1,2,0,8.713915e-01,NaN,2,0,3,1
36,919,6,46,41,1,1,1,8.906690e-01,NaN,2,0,1,1
36,920,6,100,12,2,2,1,7.411392e-01,NaN,2,1,3,1
36,921,6,36,68,1,1,1,9.901580e-01,NaN,2,0,1,1
36,922,6,121,71,2,2,1,1.205621e+00,NaN,2,0,3,1
36,923,6,125,17,2,1,0,1.043520e+00,NaN,2,0,3,1
36,924,6,108,36,1,1,1,9.526508e-01,NaN,2,0,3,1
36,925,6,19,63,2,2,1,7.850317e-01,NaN,2,0,1,1
36,926,6,91,39,2,2,1,6.644463e-01,NaN,2,0,2,1
36,927,6,50,55,2,2,1,9.162439e-01,NaN,2,0,2,1
36,928,6,93,51,2,2,1,1.078209e+00,NaN,2,0,2,1
36,929,6,130,27,1,1,1,1.097395e+00,NaN,2,0,3,1
36,930,6,2,6,2,2,1,1.380295e+00,NaN,2,1,1,1
36,931,6,16,72,2,2,1,9.465336e-01,NaN,2,1,1,1
36,932,6,26,34,1,1,1,9.633274e-01,NaN,2,1,1,1
36,933,6,94,35,2,2,1,8.752452e-01,NaN,2,0,2,1
36,934,6,47,23,2,2,1,1.886753e+00,NaN,2,1,1,1
36,935,6,129,42,1,1,1,1.201987e+00,NaN,2,1,3,1
36,936,6,141,46,1,1,1,1.200160e+00,NaN,2,0,3,1
36,937,6,35,10,2,2,1,9.348412e-01,NaN,2,0,1,1
36,938,6,43,19,2,2,1,9.682204e-01,NaN,2,1,1,1
36,939,6,32,47,1,1,1,1.071830e+00,NaN,2,0,1,1
36,940,6,55,32,1,1,1,9.870269e-01,NaN,2,0,2,1
36,941,6,29,70,2,2,1,7.861672e-01,NaN,2,1,1,1
36,942,6,58,40,1,1,1,7.455531e-01,NaN,2,0,2,1
36,943,6,106,59,1,1,1,8.980105e-01,NaN,2,0,3,1
36,944,6,21,25,1,1,1,8.768251e-01,NaN,2,0,1,1
36,945,6,22,16,1,1,1,8.800337e-01,NaN,2,0,1,1
36,946,6,101,21,1,1,1,9.715189e-01,NaN,2,0,3,1
36,947,6,72,31,1,1,1,8.028427e-01,NaN,2,0,2,1
36,948,6,4,66,2,2,1,1.369255e+00,NaN,2,1,1,1
36,949,6,14,33,1,1,1,1.881459e+00,NaN,2,0,1,1
36,950,6,41,62,2,2,1,8.761121e-01,NaN,2,0,1,1
36,951,6,78,67,1,1,1,1.231561e+00,NaN,2,0,2,1
36,952,6,128,43,1,1,1,1.380903e+00,NaN,2,0,3,1
36,953,6,57,37,1,1,1,6.759989e-01,NaN,2,0,2,1
36,954,6,84,4,2,2,1,8.960723e-01,NaN,2,0,2,1
36,955,6,65,54,2,2,1,7.862010e-01,NaN,2,0,2,1
36,956,6,113,2,2,2,1,1.017826e+00,NaN,2,1,3,1
36,957,6,77,20,2,2,1,7.757680e-01,NaN,2,0,2,1
36,958,6,143,48,2,2,1,1.007450e+00,NaN,2,1,3,1
36,959,6,20,28,2,2,1,7.735893e-01,NaN,2,0,1,1
36,960,6,75,22,1,1,1,1.196945e+00,NaN,2,0,2,1
36,961,6,52,3,2,2,1,8.993745e-01,NaN,2,0,2,1
36,962,6,97,49,2,2,1,1.254382e+00,NaN,2,0,3,1
36,963,6,5,60,2,2,1,9.861627e-01,NaN,2,0,1,1
36,964,6,124,5,1,1,1,1.353546e+00,NaN,2,1,3,1
36,965,6,104,24,1,2,0,1.210129e+00,NaN,2,0,3,1
36,966,6,79,50,2,2,1,1.720209e+00,NaN,2,0,2,1
36,967,6,60,58,1,1,1,6.658227e-01,NaN,2,0,2,1
36,968,6,95,15,1,2,0,7.897447e-01,NaN,2,0,2,1
36,969,6,116,52,1,1,1,1.204422e+00,NaN,2,0,3,1
36,970,6,37,7,1,1,1,1.003190e+00,NaN,2,0,1,1
36,971,6,118,13,1,1,1,1.289646e+00,NaN,2,0,3,1
36,972,6,54,8,2,2,1,1.140268e+00,NaN,2,1,2,1
36,973,6,81,56,2,2,1,1.221457e+00,NaN,2,0,2,1
36,974,6,24,44,2,2,1,1.466774e+00,NaN,2,0,1,1
36,975,6,59,53,2,2,1,8.704664e-01,NaN,2,0,2,1
36,976,6,114,11,1,1,1,1.130253e+00,NaN,2,0,3,1
36,977,6,110,64,1,2,0,9.956579e-01,NaN,2,0,3,1
36,978,6,11,1,1,1,1,1.122672e+00,NaN,2,0,1,1
36,979,6,80,57,2,2,1,7.322773e-01,NaN,2,0,2,1
36,980,6,44,29,1,1,1,1.149587e+00,NaN,2,1,1,1
36,981,6,40,14,2,2,1,9.977247e-01,NaN,2,1,1,1
36,982,6,89,26,1,1,1,7.563463e-01,NaN,2,0,2,1
36,983,6,126,18,2,1,0,1.252690e+00,NaN,2,1,3,1
36,984,6,68,61,2,2,1,8.972402e-01,NaN,2,0,2,1
36,985,6,56,69,2,2,1,7.873257e-01,NaN,2,0,2,1
36,986,6,112,30,1,1,1,1.018737e+00,NaN,2,1,3,1
36,987,6,6,55,2,2,1,7.437683e-01,NaN,1,0,1,1
36,988,6,66,34,1,1,1,6.967599e-01,NaN,1,1,2,1
36,989,6,48,53,1,1,1,8.511983e-01,NaN,1,0,1,1
36,990,6,10,32,1,1,1,9.753768e-01,NaN,1,0,1,1
36,991,6,45,40,2,2,1,1.870764e+00,NaN,1,0,1,1
36,992,6,98,20,1,1,1,1.186759e+00,NaN,1,0,3,1
36,993,6,39,52,1,1,1,1.106061e+00,NaN,1,0,1,1
36,994,6,28,30,1,1,1,1.027957e+00,NaN,1,1,1,1
36,995,6,87,18,2,2,1,7.295223e-01,NaN,1,1,2,1
36,996,6,135,22,2,2,1,7.705137e-01,NaN,1,0,3,1
36,997,6,131,16,2,2,1,1.658257e+00,NaN,1,0,3,1
36,998,6,67,10,2,2,1,8.382817e-01,NaN,1,0,2,1
36,999,6,85,48,2,2,1,7.549683e-01,NaN,1,1,2,1
36,1000,6,82,17,2,2,1,8.111858e-01,NaN,1,0,2,1
36,1001,6,83,19,1,1,1,8.252724e-01,NaN,1,1,2,1
36,1002,6,73,70,1,2,0,6.787728e-01,NaN,1,1,2,1
36,1003,6,69,23,2,2,1,8.100611e-01,NaN,1,1,2,1
36,1004,6,23,12,2,2,1,1.599870e+00,NaN,1,1,1,1
36,1005,6,34,59,2,1,0,9.825638e-01,NaN,1,0,1,1
36,1006,6,109,51,2,2,1,1.661689e+00,NaN,1,0,3,1
36,1007,6,92,41,2,2,1,7.855200e-01,NaN,1,0,2,1
36,1008,6,71,38,1,1,1,1.096556e+00,NaN,1,1,2,1
36,1009,6,49,9,2,1,0,8.268347e-01,NaN,1,0,2,1
36,1010,6,8,37,1,1,1,8.642009e-01,NaN,1,0,1,1
36,1011,6,96,42,1,1,1,6.922916e-01,NaN,1,1,2,1
36,1012,6,102,35,2,2,1,1.135011e+00,NaN,1,0,3,1
36,1013,6,64,71,1,1,1,8.081909e-01,NaN,1,0,2,1
36,1014,6,31,3,1,1,1,9.740484e-01,NaN,1,0,1,1
36,1015,6,42,61,1,1,1,1.789210e+00,NaN,1,0,1,1
36,1016,6,51,14,1,1,1,1.116463e+00,NaN,1,1,2,1
36,1017,6,61,27,1,1,1,6.219363e-01,NaN,1,0,2,1
36,1018,6,33,45,2,2,1,6.991753e-01,NaN,1,0,1,1
36,1019,6,134,15,1,1,1,9.658995e-01,NaN,1,0,3,1
36,1020,6,76,47,2,2,1,8.375213e-01,NaN,1,0,2,1
36,1021,6,7,64,2,1,0,9.704417e-01,NaN,1,0,1,1
36,1022,6,119,67,2,2,1,9.625647e-01,NaN,1,0,3,1
36,1023,6,140,72,1,1,1,1.281805e+00,NaN,1,1,3,1
36,1024,6,30,11,1,1,1,7.972734e-01,NaN,1,0,1,1
36,1025,6,70,13,2,1,0,9.556620e-01,NaN,1,0,2,1
36,1026,6,105,4,1,1,1,2.547419e+00,NaN,1,0,3,1
36,1027,6,99,1,1,2,0,2.067983e+00,NaN,1,0,3,1
36,1028,6,1,24,1,1,1,9.436005e-01,NaN,1,0,1,1
36,1029,6,139,50,2,2,1,1.544281e+00,NaN,1,0,3,1
36,1030,6,12,31,2,0,0,3.500128e+00,NaN,1,0,1,1
36,1031,6,103,33,1,2,0,9.227764e-01,NaN,1,0,3,1
36,1032,6,13,54,1,1,1,9.486094e-01,NaN,1,0,1,1
36,1033,6,120,65,2,2,1,1.092811e+00,NaN,1,0,3,1
36,1034,6,27,2,2,2,1,1.031634e+00,NaN,1,1,1,1
36,1035,6,38,36,1,1,1,1.116742e+00,NaN,1,0,1,1
36,1036,6,17,58,2,2,1,1.238595e+00,NaN,1,0,1,1
36,1037,6,117,60,2,2,1,9.233424e-01,NaN,1,0,3,1
36,1038,6,136,28,1,1,1,9.247025e-01,NaN,1,0,3,1
36,1039,6,3,8,1,1,1,1.054406e+00,NaN,1,1,1,1
36,1040,6,88,43,2,2,1,8.020902e-01,NaN,1,0,2,1
36,1041,6,15,69,2,2,1,1.104524e+00,NaN,1,0,1,1
36,1042,6,74,68,2,2,1,6.909674e-01,NaN,1,0,2,1
36,1043,6,107,63,1,2,0,8.059955e-01,NaN,1,0,3,1
36,1044,6,9,49,1,2,0,9.717529e-01,NaN,1,0,1,1
36,1045,6,142,66,1,1,1,1.107343e+00,NaN,1,1,3,1
36,1046,6,86,46,1,1,1,9.974901e-01,NaN,1,0,2,1
36,1047,6,122,44,2,2,1,1.668488e+00,NaN,1,0,3,1
36,1048,6,90,29,2,1,0,7.191122e-01,NaN,1,1,2,1
36,1049,6,127,56,2,2,1,8.969094e-01,NaN,1,0,3,1
36,1050,6,137,57,1,2,0,7.318257e-01,NaN,1,0,3,1
36,1051,6,63,5,2,2,1,9.244330e-01,NaN,1,1,2,1
36,1052,6,25,21,1,1,1,9.579968e-01,NaN,1,0,1,1
36,1053,6,138,25,1,1,1,1.214278e+00,NaN,1,0,3,1
36,1054,6,123,6,1,1,1,1.332345e+00,NaN,1,1,3,1
36,1055,6,115,26,2,1,0,1.469611e+00,NaN,1,0,3,1
36,1056,6,53,7,1,1,1,8.892754e-01,NaN,1,0,2,1
36,1057,6,144,39,1,1,1,8.203269e-01,NaN,1,0,3,1
36,1058,6,62,62,1,1,1,6.982157e-01,NaN,1,0,2,1
