Subject,Trial,Cond,ImageNum,CueNum,Correct,Resp,Accuracy,RT,CueRep,ImageType,Baseline,Category,Block
17,1,1,12,NaN,NaN,2,NaN,2.636832e+00,NaN,0,0,1,1
17,2,1,60,NaN,NaN,1,NaN,1.129080e+00,NaN,0,0,2,1
17,3,1,103,NaN,NaN,1,NaN,7.742046e-01,NaN,1,0,3,1
17,4,1,119,NaN,NaN,2,NaN,4.328025e-01,NaN,1,0,3,1
17,5,1,89,NaN,NaN,1,NaN,6.738496e-01,NaN,0,1,2,1
17,6,1,71,NaN,NaN,1,NaN,2.433170e+00,NaN,2,1,2,1
17,7,1,102,NaN,NaN,2,NaN,5.299558e-01,NaN,0,0,3,1
17,8,1,7,NaN,NaN,1,NaN,1.438612e+00,NaN,0,0,1,1
17,9,1,25,NaN,NaN,1,NaN,5.913565e-01,NaN,2,0,1,1
17,10,1,11,NaN,NaN,1,NaN,2.450043e+00,NaN,0,1,1,1
17,11,1,1,NaN,NaN,1,NaN,1.049817e+00,NaN,0,0,1,1
17,12,1,27,NaN,NaN,1,NaN,6.420802e-01,NaN,1,0,1,1
17,13,1,29,NaN,NaN,1,NaN,2.946412e+00,NaN,0,0,1,1
17,14,1,44,NaN,NaN,1,NaN,8.546286e-01,NaN,2,0,1,1
17,15,1,32,NaN,NaN,1,NaN,2.466213e-01,NaN,0,0,1,1
17,16,1,131,NaN,NaN,2,NaN,1.118666e+00,NaN,0,1,3,1
17,17,1,81,NaN,NaN,1,NaN,6.605285e-01,NaN,1,0,2,1
17,18,1,19,NaN,NaN,1,NaN,8.999336e-01,NaN,0,0,1,1
17,19,1,118,NaN,NaN,1,NaN,5.863893e-01,NaN,2,0,3,1
17,20,1,47,NaN,NaN,1,NaN,4.450403e-01,NaN,0,1,1,1
17,21,1,112,NaN,NaN,1,NaN,2.211904e-01,NaN,2,1,3,1
17,22,1,94,NaN,NaN,1,NaN,1.110535e+00,NaN,0,0,2,1
17,23,1,15,NaN,NaN,1,NaN,5.006129e-01,NaN,0,1,1,1
17,24,1,82,NaN,NaN,1,NaN,1.114714e+00,NaN,2,0,2,1
17,25,1,106,NaN,NaN,1,NaN,7.039538e-01,NaN,0,0,3,1
17,26,1,112,NaN,NaN,1,NaN,8.459508e-01,NaN,0,1,3,1
17,27,1,126,NaN,NaN,2,NaN,5.265745e-01,NaN,2,0,3,1
17,28,1,13,NaN,NaN,1,NaN,8.916171e-01,NaN,2,0,1,1
17,29,1,74,NaN,NaN,1,NaN,1.481758e+00,NaN,1,1,2,1
17,30,1,140,NaN,NaN,1,NaN,1.296534e+00,NaN,1,0,3,1
17,31,1,67,NaN,NaN,1,NaN,1.078735e+00,NaN,0,0,2,1
17,32,1,59,NaN,NaN,1,NaN,9.339406e-01,NaN,0,0,2,1
17,33,1,39,NaN,NaN,2,NaN,7.230511e-01,NaN,1,0,1,1
17,34,1,85,NaN,NaN,1,NaN,1.032037e+00,NaN,2,0,2,1
17,35,1,100,NaN,NaN,2,NaN,9.208821e-01,NaN,0,0,3,1
17,36,1,127,NaN,NaN,1,NaN,6.859444e-01,NaN,0,0,3,1
17,37,1,79,NaN,NaN,1,NaN,1.820727e+00,NaN,0,0,2,1
17,38,1,64,NaN,NaN,1,NaN,7.495292e-01,NaN,0,0,2,1
17,39,1,38,NaN,NaN,1,NaN,1.897852e+00,NaN,1,0,1,1
17,40,1,120,NaN,NaN,1,NaN,1.456081e+00,NaN,0,1,3,1
17,41,1,124,NaN,NaN,2,NaN,4.797936e-01,NaN,0,0,3,1
17,42,1,91,NaN,NaN,1,NaN,7.744522e-01,NaN,1,0,2,1
17,43,1,119,NaN,NaN,1,NaN,1.713864e+00,NaN,0,0,3,1
17,44,1,98,NaN,NaN,1,NaN,1.127098e+00,NaN,0,0,3,1
17,45,1,19,NaN,NaN,1,NaN,5.885918e-01,NaN,2,0,1,1
17,46,1,39,NaN,NaN,1,NaN,1.718755e+00,NaN,0,0,1,1
17,47,1,142,NaN,NaN,2,NaN,4.636422e+00,NaN,0,0,3,1
17,48,1,122,NaN,NaN,2,NaN,1.164674e+00,NaN,0,0,3,1
17,49,1,117,NaN,NaN,2,NaN,2.447899e+00,NaN,0,0,3,1
17,50,1,30,NaN,NaN,1,NaN,4.798536e-01,NaN,1,0,1,1
17,51,1,96,NaN,NaN,1,NaN,1.237575e-04,NaN,1,0,2,1
17,52,1,61,NaN,NaN,1,NaN,8.253539e-01,NaN,0,0,2,1
17,53,1,23,NaN,NaN,1,NaN,1.867897e-01,NaN,1,0,1,1
17,54,1,8,NaN,NaN,1,NaN,1.297945e-04,NaN,0,1,1,1
17,55,1,47,NaN,NaN,1,NaN,6.715707e-01,NaN,1,1,1,1
17,56,1,14,NaN,NaN,1,NaN,1.486765e+00,NaN,0,0,1,1
17,57,1,22,NaN,NaN,1,NaN,1.332310e-01,NaN,0,1,1,1
17,58,1,144,NaN,NaN,1,NaN,2.262675e-01,NaN,1,0,3,1
17,59,1,17,NaN,NaN,1,NaN,2.034810e-01,NaN,2,0,1,1
17,60,1,108,NaN,NaN,2,NaN,3.574170e-01,NaN,0,1,3,1
17,61,1,86,NaN,NaN,1,NaN,4.496366e-01,NaN,0,1,2,1
17,62,1,117,NaN,NaN,2,NaN,1.825347e+00,NaN,1,0,3,1
17,63,1,24,NaN,NaN,1,NaN,8.187115e-01,NaN,0,0,1,1
17,64,1,129,NaN,NaN,2,NaN,1.052418e+00,NaN,2,0,3,1
17,65,1,114,NaN,NaN,1,NaN,2.204641e-01,NaN,1,0,3,1
17,66,1,8,NaN,NaN,1,NaN,4.216631e-01,NaN,1,1,1,1
17,67,1,135,NaN,NaN,2,NaN,6.073013e-01,NaN,0,1,3,1
17,68,1,37,NaN,NaN,1,NaN,8.571545e-01,NaN,2,0,1,1
17,69,1,68,NaN,NaN,1,NaN,1.640575e+00,NaN,2,0,2,1
17,70,1,110,NaN,NaN,1,NaN,4.012232e-01,NaN,0,1,3,1
17,71,1,14,NaN,NaN,1,NaN,2.837142e-01,NaN,2,0,1,1
17,72,1,23,NaN,NaN,1,NaN,1.385019e-01,NaN,0,0,1,1
17,73,1,121,NaN,NaN,2,NaN,2.239065e+00,NaN,0,0,3,1
17,74,1,141,NaN,NaN,1,NaN,3.276182e-01,NaN,1,0,3,1
17,75,1,6,NaN,NaN,1,NaN,6.859730e-02,NaN,0,0,1,1
17,76,1,56,NaN,NaN,1,NaN,2.845642e-01,NaN,0,0,2,1
17,77,1,141,NaN,NaN,1,NaN,4.353398e-02,NaN,0,0,3,1
17,78,1,46,NaN,NaN,2,NaN,1.179704e+00,NaN,0,0,1,1
17,79,1,106,NaN,NaN,1,NaN,1.318737e+00,NaN,1,0,3,1
17,80,1,78,NaN,NaN,1,NaN,3.804015e-01,NaN,1,0,2,1
17,81,1,3,NaN,NaN,2,NaN,2.311272e-01,NaN,0,1,1,1
17,82,1,73,NaN,NaN,1,NaN,7.684910e-01,NaN,0,0,2,1
17,83,1,133,NaN,NaN,2,NaN,1.819569e+00,NaN,2,0,3,1
17,84,1,55,NaN,NaN,1,NaN,7.248897e-01,NaN,1,0,2,1
17,85,1,143,NaN,NaN,1,NaN,1.049847e+00,NaN,2,0,3,1
17,86,1,43,NaN,NaN,1,NaN,3.781125e-01,NaN,0,0,1,1
17,87,1,79,NaN,NaN,1,NaN,4.211998e-01,NaN,2,0,2,1
17,88,1,103,NaN,NaN,1,NaN,2.783301e-01,NaN,0,0,3,1
17,89,1,88,NaN,NaN,1,NaN,2.455359e-01,NaN,0,1,2,1
17,90,1,66,NaN,NaN,1,NaN,1.077553e+00,NaN,1,1,2,1
17,91,1,129,NaN,NaN,1,NaN,6.687659e-01,NaN,0,0,3,1
17,92,1,40,NaN,NaN,1,NaN,1.236481e+00,NaN,1,1,1,1
17,93,1,21,NaN,NaN,1,NaN,7.650879e-01,NaN,0,1,1,1
17,94,1,40,NaN,NaN,1,NaN,1.976739e+00,NaN,0,1,1,1
17,95,1,38,NaN,NaN,1,NaN,3.315854e-01,NaN,0,0,1,1
17,96,1,107,NaN,NaN,1,NaN,1.448488e+00,NaN,2,0,3,1
17,97,1,126,NaN,NaN,2,NaN,2.784585e+00,NaN,0,0,3,1
17,98,1,73,NaN,NaN,1,NaN,6.674855e-01,NaN,2,0,2,1
17,99,1,63,NaN,NaN,1,NaN,4.288592e-02,NaN,0,0,2,1
17,100,1,56,NaN,NaN,1,NaN,2.836632e-01,NaN,1,0,2,1
17,101,1,51,NaN,NaN,1,NaN,1.354510e+00,NaN,2,0,2,1
17,102,1,75,NaN,NaN,1,NaN,3.341146e-01,NaN,2,0,2,1
17,103,1,41,NaN,NaN,1,NaN,4.110945e-01,NaN,0,0,1,1
17,104,1,27,NaN,NaN,1,NaN,4.128960e-01,NaN,0,0,1,1
17,105,1,48,NaN,NaN,1,NaN,1.986052e-01,NaN,0,0,1,1
17,106,1,115,NaN,NaN,2,NaN,7.767872e-01,NaN,0,0,3,1
17,107,1,31,NaN,NaN,1,NaN,2.440982e-01,NaN,2,1,1,1
17,108,1,138,NaN,NaN,1,NaN,2.287550e-01,NaN,0,0,3,1
17,109,1,101,NaN,NaN,2,NaN,1.405701e+00,NaN,0,0,3,1
17,110,1,114,NaN,NaN,1,NaN,2.235113e-01,NaN,0,0,3,1
17,111,1,88,NaN,NaN,1,NaN,2.648602e-01,NaN,2,1,2,1
17,112,1,144,NaN,NaN,1,NaN,8.321823e-01,NaN,0,0,3,1
17,113,1,80,NaN,NaN,1,NaN,7.692981e-01,NaN,2,1,2,1
17,114,1,122,NaN,NaN,1,NaN,2.268005e+00,NaN,1,0,3,1
17,115,1,105,NaN,NaN,2,NaN,8.276199e-01,NaN,0,1,3,1
17,116,1,95,NaN,NaN,1,NaN,5.726323e-01,NaN,2,0,2,1
17,117,1,134,NaN,NaN,2,NaN,1.440689e-01,NaN,1,0,3,1
17,118,1,125,NaN,NaN,1,NaN,4.371250e-01,NaN,0,0,3,1
17,119,1,132,NaN,NaN,1,NaN,5.817468e-01,NaN,2,1,3,1
17,120,1,72,NaN,NaN,1,NaN,2.645855e-01,NaN,0,0,2,1
17,121,1,138,NaN,NaN,1,NaN,4.799557e-01,NaN,1,0,3,1
17,122,1,109,NaN,NaN,1,NaN,7.104967e-01,NaN,2,0,3,1
17,123,1,35,NaN,NaN,2,NaN,6.684891e-01,NaN,1,1,1,1
17,124,1,128,NaN,NaN,1,NaN,1.323756e+00,NaN,0,1,3,1
17,125,1,102,NaN,NaN,1,NaN,7.292429e-01,NaN,2,0,3,1
17,126,1,53,NaN,NaN,1,NaN,8.060933e-01,NaN,0,1,2,1
17,127,1,33,NaN,NaN,1,NaN,1.151774e+00,NaN,1,0,1,1
17,128,1,110,NaN,NaN,1,NaN,7.159713e-01,NaN,1,1,3,1
17,129,1,50,NaN,NaN,1,NaN,2.169498e+00,NaN,0,0,2,1
17,130,1,37,NaN,NaN,1,NaN,3.645662e-01,NaN,0,0,1,1
17,131,1,42,NaN,NaN,1,NaN,7.842224e-01,NaN,0,0,1,1
17,132,1,71,NaN,NaN,1,NaN,2.591326e-01,NaN,0,1,2,1
17,133,1,139,NaN,NaN,1,NaN,5.793755e-01,NaN,2,0,3,1
17,134,1,123,NaN,NaN,1,NaN,8.220161e-01,NaN,0,0,3,1
17,135,1,98,NaN,NaN,1,NaN,3.910392e-01,NaN,2,0,3,1
17,136,1,65,NaN,NaN,1,NaN,2.898541e-01,NaN,0,0,2,1
17,137,1,57,NaN,NaN,1,NaN,5.443947e-01,NaN,0,0,2,1
17,138,1,99,NaN,NaN,2,NaN,5.811232e-01,NaN,1,0,3,1
17,139,1,67,NaN,NaN,1,NaN,6.009851e-01,NaN,2,0,2,1
17,140,1,42,NaN,NaN,1,NaN,3.461300e-01,NaN,1,0,1,1
17,141,1,59,NaN,NaN,1,NaN,7.343674e-01,NaN,1,0,2,1
17,142,1,36,NaN,NaN,1,NaN,6.035895e-01,NaN,2,0,1,1
17,143,1,5,NaN,NaN,1,NaN,5.574768e-01,NaN,0,1,1,1
17,144,1,12,NaN,NaN,1,NaN,4.254730e-01,NaN,1,0,1,1
17,145,1,46,NaN,NaN,1,NaN,3.383538e-01,NaN,1,0,1,1
17,146,1,45,NaN,NaN,1,NaN,1.191251e+00,NaN,2,1,1,1
17,147,1,137,NaN,NaN,1,NaN,5.778763e-01,NaN,2,0,3,1
17,148,1,120,NaN,NaN,1,NaN,3.006038e-01,NaN,2,1,3,1
17,149,1,2,NaN,NaN,1,NaN,4.353145e-01,NaN,0,0,1,1
17,150,1,26,NaN,NaN,2,NaN,7.159960e-01,NaN,0,0,1,1
17,151,1,9,NaN,NaN,1,NaN,2.018999e-01,NaN,0,0,1,1
17,152,1,76,NaN,NaN,1,NaN,4.678024e-01,NaN,0,0,2,1
17,153,1,57,NaN,NaN,1,NaN,4.034035e-01,NaN,2,0,2,1
17,154,1,115,NaN,NaN,2,NaN,1.885355e+00,NaN,2,0,3,1
17,155,1,101,NaN,NaN,1,NaN,3.160919e-01,NaN,2,0,3,1
17,156,1,34,NaN,NaN,1,NaN,4.901813e-01,NaN,2,1,1,1
17,157,1,90,NaN,NaN,1,NaN,1.286925e-01,NaN,0,0,2,1
17,158,1,118,NaN,NaN,1,NaN,7.172759e-01,NaN,0,0,3,1
17,159,1,93,NaN,NaN,1,NaN,3.631370e-01,NaN,0,0,2,1
17,160,1,54,NaN,NaN,1,NaN,6.706594e-01,NaN,0,0,2,1
17,161,1,35,NaN,NaN,1,NaN,2.618544e-01,NaN,0,1,1,1
17,162,1,49,NaN,NaN,1,NaN,6.056656e-01,NaN,0,0,2,1
17,163,1,11,NaN,NaN,1,NaN,7.753746e-01,NaN,1,1,1,1
17,164,1,87,NaN,NaN,1,NaN,1.378722e+00,NaN,2,1,2,1
17,165,1,123,NaN,NaN,1,NaN,6.934172e-01,NaN,2,0,3,1
17,166,1,104,NaN,NaN,1,NaN,2.852040e+00,NaN,1,0,3,1
17,167,1,3,NaN,NaN,2,NaN,1.275726e+00,NaN,2,1,1,1
17,168,1,58,NaN,NaN,1,NaN,5.953086e-01,NaN,2,0,2,1
17,169,1,96,NaN,NaN,1,NaN,5.890603e-01,NaN,0,0,2,1
17,170,1,69,NaN,NaN,1,NaN,9.287740e+00,NaN,1,0,2,1
17,171,1,70,NaN,NaN,0,NaN,9.995157e+00,NaN,0,1,2,1
17,172,1,55,NaN,NaN,1,NaN,6.786215e-01,NaN,0,0,2,1
17,173,1,111,NaN,NaN,1,NaN,2.621584e+00,NaN,0,0,3,1
17,174,1,87,NaN,NaN,1,NaN,1.494550e+00,NaN,0,1,2,1
17,175,1,140,NaN,NaN,1,NaN,7.664094e-02,NaN,0,0,3,1
17,176,1,65,NaN,NaN,1,NaN,3.799200e-01,NaN,1,0,2,1
17,177,1,18,NaN,NaN,1,NaN,5.987868e-01,NaN,0,0,1,1
17,178,1,85,NaN,NaN,1,NaN,1.234557e-04,NaN,0,0,2,1
17,179,1,21,NaN,NaN,1,NaN,1.683336e+00,NaN,2,1,1,1
17,180,1,80,NaN,NaN,1,NaN,5.544809e-01,NaN,0,1,2,1
17,181,1,16,NaN,NaN,1,NaN,8.061567e-01,NaN,0,0,1,1
17,182,1,124,NaN,NaN,1,NaN,6.080369e-01,NaN,1,0,3,1
17,183,1,136,NaN,NaN,1,NaN,2.179277e-01,NaN,1,0,3,1
17,184,1,90,NaN,NaN,1,NaN,2.597119e-01,NaN,2,0,2,1
17,185,1,134,NaN,NaN,1,NaN,1.179454e+00,NaN,0,0,3,1
17,186,1,137,NaN,NaN,1,NaN,6.140648e-01,NaN,0,0,3,1
17,187,1,10,NaN,NaN,1,NaN,8.636593e-01,NaN,0,0,1,1
17,188,1,125,NaN,NaN,1,NaN,1.246631e-04,NaN,1,0,3,1
17,189,1,128,NaN,NaN,1,NaN,3.217449e-01,NaN,1,1,3,1
17,190,1,7,NaN,NaN,1,NaN,8.711460e-01,NaN,2,0,1,1
17,191,1,82,NaN,NaN,1,NaN,2.462709e-01,NaN,0,0,2,1
17,192,1,97,NaN,NaN,1,NaN,9.022240e-01,NaN,1,0,3,1
17,193,1,52,NaN,NaN,1,NaN,1.418799e-01,NaN,2,0,2,1
17,194,1,113,NaN,NaN,1,NaN,4.495780e-01,NaN,0,1,3,1
17,195,1,31,NaN,NaN,1,NaN,1.025787e+00,NaN,0,1,1,1
17,196,1,132,NaN,NaN,1,NaN,5.386533e-01,NaN,0,1,3,1
17,197,1,45,NaN,NaN,1,NaN,2.085261e-01,NaN,0,1,1,1
17,198,1,34,NaN,NaN,1,NaN,3.372753e-01,NaN,0,1,1,1
17,199,1,143,NaN,NaN,1,NaN,2.469835e+00,NaN,0,0,3,1
17,200,1,121,NaN,NaN,1,NaN,1.972956e+00,NaN,2,0,3,1
17,201,1,4,NaN,NaN,1,NaN,4.800870e-01,NaN,2,0,1,1
17,202,1,41,NaN,NaN,1,NaN,2.309198e-01,NaN,2,0,1,1
17,203,1,13,NaN,NaN,1,NaN,4.161822e-01,NaN,0,0,1,1
17,204,1,17,NaN,NaN,1,NaN,3.617249e-01,NaN,0,0,1,1
17,205,1,91,NaN,NaN,1,NaN,6.209834e-01,NaN,0,0,2,1
17,206,1,100,NaN,NaN,1,NaN,1.110607e+00,NaN,1,0,3,1
17,207,1,116,NaN,NaN,1,NaN,2.923301e-01,NaN,1,0,3,1
17,208,1,74,NaN,NaN,1,NaN,2.586744e-01,NaN,0,1,2,1
17,209,1,50,NaN,NaN,1,NaN,6.270189e-01,NaN,2,0,2,1
17,210,1,108,NaN,NaN,1,NaN,4.918986e-01,NaN,2,1,3,1
17,211,1,130,NaN,NaN,2,NaN,5.628252e-01,NaN,0,0,3,1
17,212,1,2,NaN,NaN,1,NaN,1.243612e-04,NaN,2,0,1,1
17,213,1,83,NaN,NaN,1,NaN,2.964869e-01,NaN,0,0,2,1
17,214,1,127,NaN,NaN,1,NaN,3.029416e-01,NaN,2,0,3,1
17,215,1,58,NaN,NaN,1,NaN,7.728810e-02,NaN,0,0,2,1
17,216,1,111,NaN,NaN,1,NaN,1.082055e-01,NaN,2,0,3,1
17,217,1,43,NaN,NaN,1,NaN,6.905717e-01,NaN,1,0,1,1
17,218,1,54,NaN,NaN,1,NaN,4.331560e-01,NaN,1,0,2,1
17,219,1,109,NaN,NaN,1,NaN,6.657954e-01,NaN,0,0,3,1
17,220,1,133,NaN,NaN,1,NaN,2.816888e-01,NaN,0,0,3,1
17,221,1,93,NaN,NaN,1,NaN,5.842830e-01,NaN,1,0,2,1
17,222,1,52,NaN,NaN,1,NaN,4.431459e-01,NaN,0,0,2,1
17,223,1,107,NaN,NaN,1,NaN,5.398881e-01,NaN,0,0,3,1
17,224,1,30,NaN,NaN,1,NaN,2.803836e-01,NaN,0,0,1,1
17,225,1,70,NaN,NaN,1,NaN,4.314934e-01,NaN,1,1,2,1
17,226,1,63,NaN,NaN,1,NaN,2.883153e-01,NaN,1,0,2,1
17,227,1,69,NaN,NaN,1,NaN,5.108425e-01,NaN,0,0,2,1
17,228,1,78,NaN,NaN,1,NaN,2.292044e-01,NaN,0,0,2,1
17,229,1,72,NaN,NaN,1,NaN,7.737977e-01,NaN,2,0,2,1
17,230,1,142,NaN,NaN,1,NaN,4.092219e-01,NaN,2,0,3,1
17,231,1,75,NaN,NaN,1,NaN,6.591204e-01,NaN,0,0,2,1
17,232,1,77,NaN,NaN,1,NaN,1.154938e+00,NaN,2,0,2,1
17,233,1,28,NaN,NaN,1,NaN,4.385129e-01,NaN,1,1,1,1
17,234,1,83,NaN,NaN,1,NaN,2.392267e-01,NaN,1,0,2,1
17,235,1,44,NaN,NaN,1,NaN,7.841333e-01,NaN,0,0,1,1
17,236,1,92,NaN,NaN,1,NaN,1.099105e+00,NaN,0,0,2,1
17,237,1,18,NaN,NaN,1,NaN,1.129296e+00,NaN,2,0,1,1
17,238,1,76,NaN,NaN,1,NaN,2.941180e-01,NaN,2,0,2,1
17,239,1,60,NaN,NaN,1,NaN,2.284984e-01,NaN,1,0,2,1
17,240,1,33,NaN,NaN,1,NaN,1.897264e-01,NaN,0,0,1,1
17,241,1,99,NaN,NaN,2,NaN,4.642067e-01,NaN,0,0,3,1
17,242,1,66,NaN,NaN,1,NaN,3.198520e-01,NaN,0,1,2,1
17,243,1,94,NaN,NaN,1,NaN,5.970916e-01,NaN,1,0,2,1
17,244,1,95,NaN,NaN,1,NaN,2.473575e-01,NaN,0,0,2,1
17,245,1,104,NaN,NaN,1,NaN,6.076535e-01,NaN,0,0,3,1
17,246,1,116,NaN,NaN,1,NaN,9.734619e-02,NaN,0,0,3,1
17,247,1,86,NaN,NaN,1,NaN,7.686250e-03,NaN,1,1,2,1
17,248,1,130,NaN,NaN,2,NaN,1.537866e+00,NaN,1,0,3,1
17,249,1,6,NaN,NaN,1,NaN,1.276816e-04,NaN,1,0,1,1
17,250,1,16,NaN,NaN,1,NaN,5.654241e-02,NaN,1,0,1,1
17,251,1,84,NaN,NaN,1,NaN,3.128482e-01,NaN,0,1,2,1
17,252,1,64,NaN,NaN,1,NaN,8.862221e-01,NaN,2,0,2,1
17,253,1,26,NaN,NaN,1,NaN,4.769426e-01,NaN,2,0,1,1
17,254,1,131,NaN,NaN,2,NaN,2.202136e-01,NaN,2,1,3,1
17,255,1,1,NaN,NaN,1,NaN,3.018281e-01,NaN,2,0,1,1
17,256,1,97,NaN,NaN,1,NaN,4.441903e-01,NaN,0,0,3,1
17,257,1,84,NaN,NaN,1,NaN,5.005960e-01,NaN,1,1,2,1
17,258,1,15,NaN,NaN,1,NaN,5.868245e-01,NaN,2,1,1,1
17,259,1,61,NaN,NaN,1,NaN,9.975113e-01,NaN,1,0,2,1
17,260,1,113,NaN,NaN,1,NaN,8.396769e-01,NaN,2,1,3,1
17,261,1,51,NaN,NaN,1,NaN,6.960059e-01,NaN,0,0,2,1
17,262,1,5,NaN,NaN,1,NaN,4.460980e-01,NaN,1,1,1,1
17,263,1,28,NaN,NaN,1,NaN,3.187113e-01,NaN,0,1,1,1
17,264,1,89,NaN,NaN,1,NaN,3.243529e-01,NaN,2,1,2,1
17,265,1,20,NaN,NaN,1,NaN,1.289658e+00,NaN,1,1,1,1
17,266,1,24,NaN,NaN,1,NaN,3.681869e-01,NaN,1,0,1,1
17,267,1,77,NaN,NaN,1,NaN,3.075134e-01,NaN,0,0,2,1
17,268,1,92,NaN,NaN,1,NaN,3.134000e-01,NaN,1,0,2,1
17,269,1,81,NaN,NaN,1,NaN,2.072580e-01,NaN,0,0,2,1
17,270,1,136,NaN,NaN,1,NaN,5.612463e-01,NaN,0,0,3,1
17,271,1,9,NaN,NaN,1,NaN,7.088374e-01,NaN,1,0,1,1
17,272,1,105,NaN,NaN,2,NaN,1.850821e+00,NaN,1,1,3,1
17,273,1,29,NaN,NaN,1,NaN,5.227613e-01,NaN,2,0,1,1
17,274,1,62,NaN,NaN,1,NaN,5.524097e-01,NaN,0,0,2,1
17,275,1,4,NaN,NaN,1,NaN,6.606411e-01,NaN,0,0,1,1
17,276,1,20,NaN,NaN,1,NaN,8.282873e-01,NaN,0,1,1,1
17,277,1,49,NaN,NaN,1,NaN,1.029113e+00,NaN,1,0,2,1
17,278,1,48,NaN,NaN,1,NaN,7.901380e-01,NaN,2,0,1,1
17,279,1,22,NaN,NaN,1,NaN,1.316057e-04,NaN,2,1,1,1
17,280,1,25,NaN,NaN,1,NaN,3.227187e-01,NaN,0,0,1,1
17,281,1,32,NaN,NaN,1,NaN,8.562508e-01,NaN,1,0,1,1
17,282,1,68,NaN,NaN,1,NaN,3.678699e-01,NaN,0,0,2,1
17,283,1,53,NaN,NaN,1,NaN,4.994143e-01,NaN,1,1,2,1
17,284,1,10,NaN,NaN,1,NaN,7.781954e-01,NaN,1,0,1,1
17,285,1,135,NaN,NaN,1,NaN,5.171786e-01,NaN,1,1,3,1
17,286,1,139,NaN,NaN,1,NaN,6.986706e-01,NaN,0,0,3,1
17,287,1,36,NaN,NaN,1,NaN,2.965334e-01,NaN,0,0,1,1
17,288,1,62,NaN,NaN,1,NaN,1.246631e-04,NaN,2,0,2,1
17,347,2,61,59,2,2,1,1.239484e+00,NaN,1,0,2,1
17,348,2,116,39,1,1,1,2.788377e+00,NaN,1,0,3,1
17,349,2,136,19,2,2,1,1.258304e+00,NaN,1,0,3,1
17,350,2,63,27,1,1,1,1.141430e+00,NaN,1,0,2,1
17,351,2,38,52,1,1,1,1.717196e+00,NaN,1,0,1,1
17,352,2,86,17,2,2,1,1.853835e+00,NaN,1,1,2,1
17,353,2,23,26,2,2,1,1.848607e+00,NaN,1,0,1,1
17,354,2,106,55,1,1,1,1.356043e+00,NaN,1,0,3,1
17,355,2,49,71,2,2,1,1.099235e+00,NaN,1,0,2,1
17,356,2,97,50,1,1,1,1.092698e+00,NaN,1,0,3,1
17,357,2,119,60,2,2,1,1.430392e+00,NaN,1,0,3,1
17,358,2,93,13,2,1,0,1.274320e+00,NaN,1,0,2,1
17,359,2,134,18,2,2,1,2.052734e+00,NaN,1,0,3,1
17,360,2,24,63,2,2,1,1.911938e+00,NaN,1,0,1,1
17,361,2,96,23,1,1,1,1.592771e+00,NaN,1,0,2,1
17,362,2,103,56,1,2,0,3.086552e+00,NaN,1,0,3,1
17,363,2,9,72,2,2,1,2.768386e+00,NaN,1,0,1,1
17,364,2,110,41,1,1,1,1.183330e+00,NaN,1,1,3,1
17,365,2,6,12,1,1,1,1.533417e+00,NaN,1,0,1,1
17,366,2,138,24,1,1,1,1.269331e+00,NaN,1,0,3,1
17,367,2,84,1,2,2,1,1.448689e+00,NaN,1,1,2,1
17,368,2,140,5,1,1,1,1.420370e+00,NaN,1,0,3,1
17,369,2,28,40,1,1,1,2.256517e+00,NaN,1,1,1,1
17,370,2,43,48,2,1,0,2.299312e+00,NaN,1,0,1,1
17,371,3,116,39,2,2,1,3.044231e+00,NaN,1,0,3,1
17,372,3,106,55,1,1,1,2.080410e+00,NaN,1,0,3,1
17,373,3,28,40,1,1,1,1.554034e+00,NaN,1,1,1,1
17,374,3,134,18,1,2,0,1.137496e+00,NaN,1,0,3,1
17,375,3,103,56,1,1,1,1.968698e+00,NaN,1,0,3,1
17,376,3,43,48,1,1,1,1.231598e+00,NaN,1,0,1,1
17,377,3,93,13,2,2,1,1.571418e+00,NaN,1,0,2,1
17,378,3,119,60,1,1,1,2.393517e+00,NaN,1,0,3,1
17,379,3,84,1,1,1,1,8.719109e-01,NaN,1,1,2,1
17,380,3,138,24,1,1,1,2.050314e+00,NaN,1,0,3,1
17,381,3,86,17,2,2,1,1.045515e+00,NaN,1,1,2,1
17,382,3,9,72,1,1,1,1.529187e+00,NaN,1,0,1,1
17,383,3,110,41,2,2,1,1.169578e+00,NaN,1,1,3,1
17,384,3,49,71,2,2,1,1.087584e+00,NaN,1,0,2,1
17,385,3,6,12,1,2,0,2.801452e+00,NaN,1,0,1,1
17,386,3,61,59,1,1,1,9.344348e-01,NaN,1,0,2,1
17,387,3,63,27,1,1,1,8.307507e-01,NaN,1,0,2,1
17,388,3,96,23,1,1,1,5.787966e-01,NaN,1,0,2,1
17,389,3,97,50,1,1,1,1.417045e+00,NaN,1,0,3,1
17,390,3,23,26,2,2,1,3.109638e+00,NaN,1,0,1,1
17,391,3,140,5,2,1,0,2.166278e+00,NaN,1,0,3,1
17,392,3,38,52,2,2,1,1.389240e+00,NaN,1,0,1,1
17,393,3,24,63,2,1,0,1.955075e+00,NaN,1,0,1,1
17,394,3,136,19,2,2,1,1.042269e+00,NaN,1,0,3,1
17,419,2,83,22,2,2,1,1.235451e+00,NaN,1,0,2,2
17,420,2,39,29,2,2,1,1.543676e+00,NaN,1,0,1,2
17,421,2,99,46,1,1,1,2.335423e+00,NaN,1,0,3,2
17,422,2,114,31,1,1,1,1.399910e+00,NaN,1,0,3,2
17,423,2,92,66,2,2,1,1.341437e+00,NaN,1,0,2,2
17,424,2,81,11,1,1,1,7.416449e-01,NaN,1,0,2,2
17,425,2,42,2,2,2,1,1.117421e+00,NaN,1,0,1,2
17,426,2,46,47,2,2,1,1.509915e+00,NaN,1,0,1,2
17,427,2,16,8,1,1,1,1.495260e+00,NaN,1,0,1,2
17,428,2,32,32,1,1,1,1.216020e+00,NaN,1,0,1,2
17,429,2,55,67,2,1,0,2.644937e+00,NaN,1,0,2,2
17,430,2,35,54,1,0,0,3.499622e+00,NaN,1,1,1,2
17,431,2,141,38,1,1,1,1.601297e+00,NaN,1,0,3,2
17,432,2,12,36,1,2,0,1.775117e+00,NaN,1,0,1,2
17,433,2,66,21,1,1,1,1.189013e+00,NaN,1,1,2,2
17,434,2,69,69,2,2,1,9.629298e-01,NaN,1,0,2,2
17,435,2,5,62,2,2,1,1.521781e+00,NaN,1,1,1,2
17,436,2,70,64,2,2,1,9.301105e-01,NaN,1,1,2,2
17,437,2,135,42,2,2,1,8.901136e-01,NaN,1,1,3,2
17,438,2,10,37,2,2,1,1.091837e+00,NaN,1,0,1,2
17,439,2,104,58,1,1,1,1.125262e+00,NaN,1,0,3,2
17,440,2,91,7,2,2,1,8.936382e-01,NaN,1,0,2,2
17,441,2,144,20,2,1,0,2.503288e+00,NaN,1,0,3,2
17,442,2,33,44,1,1,1,2.008197e+00,NaN,1,0,1,2
17,443,3,135,42,1,1,1,7.990307e-01,NaN,1,1,3,2
17,444,3,81,11,2,2,1,4.847393e-01,NaN,1,0,2,2
17,445,3,114,31,2,2,1,1.054721e+00,NaN,1,0,3,2
17,446,3,33,44,1,1,1,9.862880e-01,NaN,1,0,1,2
17,447,3,46,47,1,1,1,1.712467e+00,NaN,1,0,1,2
17,448,3,141,38,1,1,1,1.329396e+00,NaN,1,0,3,2
17,449,3,92,66,1,1,1,1.025762e+00,NaN,1,0,2,2
17,450,3,39,29,2,2,1,8.777991e-01,NaN,1,0,1,2
17,451,3,55,67,2,2,1,1.424546e+00,NaN,1,0,2,2
17,452,3,91,7,2,2,1,7.247584e-01,NaN,1,0,2,2
17,453,3,70,64,1,1,1,7.570301e-01,NaN,1,1,2,2
17,454,3,16,8,2,1,0,1.092175e+00,NaN,1,0,1,2
17,455,3,32,32,2,2,1,1.253882e+00,NaN,1,0,1,2
17,456,3,42,2,1,1,1,7.291502e-01,NaN,1,0,1,2
17,457,3,104,58,2,2,1,1.929293e+00,NaN,1,0,3,2
17,458,3,144,20,1,1,1,1.625472e+00,NaN,1,0,3,2
17,459,3,12,36,1,2,0,2.445576e+00,NaN,1,0,1,2
17,460,3,69,69,2,2,1,7.930831e-01,NaN,1,0,2,2
17,461,3,83,22,1,1,1,1.182605e+00,NaN,1,0,2,2
17,462,3,10,37,1,1,1,1.364534e+00,NaN,1,0,1,2
17,463,3,99,46,2,2,1,1.811400e+00,NaN,1,0,3,2
17,464,3,5,62,1,1,1,1.504364e+00,NaN,1,1,1,2
17,465,3,66,21,2,2,1,1.049283e+00,NaN,1,1,2,2
17,466,3,35,54,1,1,1,1.540699e+00,NaN,1,1,1,2
17,491,2,47,49,2,2,1,1.317447e+00,NaN,1,1,1,3
17,492,2,74,68,2,2,1,2.046475e+00,NaN,1,1,2,3
17,493,2,8,4,1,2,0,1.234006e+00,NaN,1,1,1,3
17,494,2,128,16,2,2,1,2.605932e+00,NaN,1,1,3,3
17,495,2,53,34,2,2,1,1.250818e+00,NaN,1,1,2,3
17,496,2,94,45,2,2,1,2.390457e+00,NaN,1,0,2,3
17,497,2,40,30,1,1,1,1.364443e+00,NaN,1,1,1,3
17,498,2,65,9,2,2,1,1.738618e+00,NaN,1,0,2,3
17,499,2,100,6,1,1,1,2.210240e+00,NaN,1,0,3,3
17,500,2,105,51,2,2,1,2.342896e+00,NaN,1,1,3,3
17,501,2,125,61,2,2,1,2.310705e+00,NaN,1,0,3,3
17,502,2,54,28,2,2,1,1.976960e+00,NaN,1,0,2,3
17,503,2,124,65,2,2,1,2.270044e+00,NaN,1,0,3,3
17,504,2,122,33,1,1,1,1.304653e+00,NaN,1,0,3,3
17,505,2,56,43,1,1,1,7.455089e-01,NaN,1,0,2,3
17,506,2,60,57,1,1,1,1.402005e+00,NaN,1,0,2,3
17,507,2,30,10,2,2,1,2.318052e+00,NaN,1,0,1,3
17,508,2,130,53,2,2,1,2.478636e+00,NaN,1,0,3,3
17,509,2,20,35,2,2,1,1.520874e+00,NaN,1,1,1,3
17,510,2,27,3,2,1,0,1.801196e+00,NaN,1,0,1,3
17,511,2,117,70,1,1,1,2.078407e+00,NaN,1,0,3,3
17,512,2,78,25,2,2,1,1.272275e+00,NaN,1,0,2,3
17,513,2,11,15,1,1,1,1.578878e+00,NaN,1,1,1,3
17,514,2,59,14,2,2,1,1.017049e+00,NaN,1,0,2,3
17,515,3,60,57,2,2,1,5.367915e-01,NaN,1,0,2,3
17,516,3,40,30,1,1,1,1.016784e+00,NaN,1,1,1,3
17,517,3,128,16,1,1,1,2.108782e+00,NaN,1,1,3,3
17,518,3,130,53,2,2,1,1.966280e+00,NaN,1,0,3,3
17,519,3,122,33,1,1,1,1.317131e+00,NaN,1,0,3,3
17,520,3,117,70,2,2,1,1.758221e+00,NaN,1,0,3,3
17,521,3,65,9,2,2,1,8.211948e-01,NaN,1,0,2,3
17,522,3,124,65,2,2,1,1.266218e+00,NaN,1,0,3,3
17,523,3,59,14,1,1,1,7.727594e-01,NaN,1,0,2,3
17,524,3,54,28,2,2,1,7.873103e-01,NaN,1,0,2,3
17,525,3,30,10,2,2,1,2.305031e+00,NaN,1,0,1,3
17,526,3,78,25,1,1,1,7.621564e-01,NaN,1,0,2,3
17,527,3,105,51,1,1,1,9.528595e-01,NaN,1,1,3,3
17,528,3,11,15,2,2,1,2.104294e+00,NaN,1,1,1,3
17,529,3,47,49,2,2,1,8.656397e-01,NaN,1,1,1,3
17,530,3,74,68,1,1,1,1.068379e+00,NaN,1,1,2,3
17,531,3,27,3,1,1,1,9.828155e-01,NaN,1,0,1,3
17,532,3,100,6,2,2,1,1.132832e+00,NaN,1,0,3,3
17,533,3,94,45,2,2,1,8.852423e-01,NaN,1,0,2,3
17,534,3,20,35,2,2,1,7.511706e-01,NaN,1,1,1,3
17,535,3,125,61,1,1,1,1.310392e+00,NaN,1,0,3,3
17,536,3,53,34,1,1,1,1.663644e+00,NaN,1,1,2,3
17,537,3,8,4,1,2,0,2.025930e+00,NaN,1,1,1,3
17,538,3,56,43,2,2,1,6.470380e-01,NaN,1,0,2,3
17,563,4,21,42,1,1,1,1.436322e+00,NaN,2,1,1,1
17,564,4,75,3,2,2,1,1.024139e+00,NaN,2,0,2,1
17,565,4,98,26,2,2,1,2.724326e+00,NaN,2,0,3,1
17,566,4,123,23,2,2,1,1.300952e+00,NaN,2,0,3,1
17,567,4,68,60,2,2,1,1.190090e+00,NaN,2,0,2,1
17,568,4,67,58,2,2,1,1.028167e+00,NaN,2,0,2,1
17,569,4,143,28,1,1,1,1.904976e+00,NaN,2,0,3,1
17,570,4,111,2,2,2,1,1.561702e+00,NaN,2,0,3,1
17,571,4,139,9,1,1,1,3.120214e+00,NaN,2,0,3,1
17,572,4,48,27,2,2,1,2.864670e+00,NaN,2,0,1,1
17,573,4,126,71,2,2,1,9.871205e-01,NaN,2,0,3,1
17,574,4,120,49,2,2,1,1.401296e+00,NaN,2,1,3,1
17,575,4,79,32,1,1,1,1.774192e+00,NaN,2,0,2,1
17,576,4,17,5,2,2,1,1.436728e+00,NaN,2,0,1,1
17,577,4,18,24,1,1,1,1.408520e+00,NaN,2,0,1,1
17,578,4,36,14,1,1,1,1.293397e+00,NaN,2,0,1,1
17,579,4,73,70,1,1,1,1.927177e+00,NaN,2,0,2,1
17,580,4,77,37,2,2,1,1.295550e+00,NaN,2,0,2,1
17,581,4,131,21,1,1,1,1.112808e+00,NaN,2,1,3,1
17,582,4,26,7,2,2,1,2.241389e+00,NaN,2,0,1,1
17,583,4,129,59,2,2,1,1.701033e+00,NaN,2,0,3,1
17,584,4,37,13,2,2,1,1.670470e+00,NaN,2,0,1,1
17,585,4,85,47,1,1,1,1.336587e+00,NaN,2,0,2,1
17,586,4,118,52,1,1,1,1.576637e+00,NaN,2,0,3,1
17,611,4,112,30,2,2,1,1.212963e+00,NaN,2,1,3,2
17,612,4,71,16,1,1,1,1.073900e+00,NaN,2,1,2,2
17,613,4,13,19,1,1,1,1.636612e+00,NaN,2,0,1,2
17,614,4,1,38,1,1,1,1.896401e+00,NaN,2,0,1,2
17,615,4,50,39,1,1,1,7.783004e-01,NaN,2,0,2,2
17,616,4,142,66,2,2,1,1.056752e+00,NaN,2,0,3,2
17,617,4,72,46,2,2,1,1.172365e+00,NaN,2,0,2,2
17,618,4,107,8,2,2,1,1.018913e+00,NaN,2,0,3,2
17,619,4,102,12,1,1,1,1.383469e+00,NaN,2,0,3,2
17,620,4,80,4,2,2,1,5.994677e-01,NaN,2,1,2,2
17,621,4,64,18,1,1,1,1.211799e+00,NaN,2,0,2,2
17,622,4,82,72,2,2,1,1.104418e+00,NaN,2,0,2,2
17,623,4,34,17,1,1,1,2.521209e+00,NaN,2,1,1,2
17,624,4,15,51,1,1,1,3.065190e+00,NaN,2,1,1,2
17,625,4,101,63,1,1,1,1.563893e+00,NaN,2,0,3,2
17,626,4,52,61,1,1,1,1.138552e+00,NaN,2,0,2,2
17,627,4,62,20,1,1,1,1.770030e+00,NaN,2,0,2,2
17,628,4,2,6,2,2,1,1.408302e+00,NaN,2,0,1,2
17,629,4,31,68,1,1,1,1.325694e+00,NaN,2,1,1,2
17,630,4,133,25,1,1,1,1.357980e+00,NaN,2,0,3,2
17,631,4,88,35,2,2,1,1.309075e+00,NaN,2,1,2,2
17,632,4,22,1,1,1,1,2.542242e+00,NaN,2,1,1,2
17,633,4,14,33,2,2,1,2.325548e+00,NaN,2,0,1,2
17,634,4,108,54,2,2,1,1.126415e+00,NaN,2,1,3,2
17,659,4,4,53,1,1,1,1.123300e+00,NaN,2,0,1,3
17,660,4,7,31,1,1,1,8.683585e-01,NaN,2,0,1,3
17,661,4,137,43,2,2,1,2.238634e+00,NaN,2,0,3,3
17,662,4,127,57,2,2,1,2.042259e+00,NaN,2,0,3,3
17,663,4,44,45,2,2,1,1.221856e+00,NaN,2,0,1,3
17,664,4,51,56,2,2,1,1.050313e+00,NaN,2,0,2,3
17,665,4,57,50,1,1,1,1.341872e+00,NaN,2,0,2,3
17,666,4,19,65,1,1,1,2.740994e+00,NaN,2,0,1,3
17,667,4,58,55,2,2,1,1.308957e+00,NaN,2,0,2,3
17,668,4,29,22,2,2,1,1.101577e+00,NaN,2,0,1,3
17,669,4,3,41,1,1,1,1.486810e+00,NaN,2,1,1,3
17,670,4,87,40,2,2,1,1.728833e+00,NaN,2,1,2,3
17,671,4,76,36,2,2,1,1.224526e+00,NaN,2,0,2,3
17,672,4,41,11,2,2,1,1.828880e+00,NaN,2,0,1,3
17,673,4,89,62,1,2,0,2.144770e+00,NaN,2,1,2,3
17,674,4,90,44,1,1,1,1.743967e+00,NaN,2,0,2,3
17,675,4,95,48,1,1,1,1.272145e+00,NaN,2,0,2,3
17,676,4,25,69,1,1,1,1.738076e+00,NaN,2,0,1,3
17,677,4,45,34,1,2,0,1.881779e+00,NaN,2,1,1,3
17,678,4,115,10,2,2,1,1.924163e+00,NaN,2,0,3,3
17,679,4,113,15,1,1,1,1.708543e+00,NaN,2,1,3,3
17,680,4,132,64,2,2,1,1.669764e+00,NaN,2,1,3,3
17,681,4,121,67,1,1,1,1.384819e+00,NaN,2,0,3,3
17,682,4,109,29,1,1,1,1.654553e+00,NaN,2,0,3,3
17,683,5,6.229000e+01,59,2,0,0,2.500513e+00,1,1,0,2.300000e+00,1
17,684,5,2.398000e+01,26,1,1,1,4.103961e-01,1,1,0,1.300000e+00,1
17,685,5,9.342000e+01,66,2,2,1,4.214123e-01,1,1,0,2.300000e+00,1
17,686,5,2.501000e+01,63,1,1,1,3.178704e-01,1,1,0,1.300000e+00,1
17,687,5,1.276000e+01,36,1,1,1,2.875114e-01,1,1,0,1.200000e+00,1
17,688,5,1.300400e+02,53,3,4,0,2.808560e-01,1,1,0,3.100000e+00,1
17,689,5,1.000200e+02,6,3,4,0,5.624032e-01,1,1,0,3.100000e+00,1
17,690,5,9.337000e+01,13,2,3,0,1.443402e+00,1,1,0,2.100000e+00,1
17,691,5,6.925000e+01,69,2,1,0,1.037764e+00,1,1,0,2.100000e+00,1
17,692,5,5.737000e+01,43,2,2,1,2.947172e-01,1,1,0,2.300000e+00,1
17,693,5,8.141000e+01,11,2,1,0,2.802206e-01,1,1,0,2.100000e+00,1
17,694,5,1.196800e+02,60,3,3,1,1.706045e+00,1,1,0,3.200000e+00,1
17,695,5,9.337000e+01,13,2,2,1,1.020123e+00,2,1,0,2.100000e+00,1
17,696,5,1.035100e+02,56,3,2,0,6.453791e-01,1,1,0,3.200000e+00,1
17,697,5,5.026000e+01,71,2,1,0,8.627695e-01,1,1,0,2.300000e+00,1
17,698,5,4.685000e+01,47,1,1,1,2.481113e-01,1,1,0,1.200000e+00,1
17,699,5,1.241900e+02,65,3,2,0,4.738816e-01,1,1,0,3.100000e+00,1
17,700,5,1.255200e+02,61,3,3,1,3.154499e-01,1,1,0,3.200000e+00,1
17,701,5,1.221400e+02,33,3,2,0,7.089989e-01,1,1,0,3.100000e+00,1
17,702,5,9.444000e+01,45,2,1,0,2.702433e-01,1,1,0,2.100000e+00,1
17,703,5,3.279000e+01,32,1,1,1,3.039775e-01,1,1,0,1.200000e+00,1
17,704,5,9.444000e+01,45,2,2,1,2.814193e-01,2,1,0,2.100000e+00,1
17,705,5,1.410100e+02,38,3,3,1,4.111570e-01,1,1,0,3.100000e+00,1
17,706,5,6.348000e+01,27,2,2,1,6.602583e-01,1,1,0,2.100000e+00,1
17,707,5,1.255200e+02,61,3,3,1,3.259083e-01,2,1,0,3.200000e+00,1
17,708,5,1.381800e+02,24,3,3,1,7.922923e-01,1,1,0,3.100000e+00,1
17,709,5,5.737000e+01,43,2,2,1,3.057104e-01,2,1,0,2.300000e+00,1
17,710,5,3.390000e+01,44,1,2,0,4.992495e-01,1,1,0,1.200000e+00,1
17,711,5,5.026000e+01,71,2,2,1,7.488271e-01,2,1,0,2.300000e+00,1
17,712,5,7.020000e+00,12,1,3,0,2.457300e-01,1,1,0,1.300000e+00,1
17,713,5,9.342000e+01,66,2,2,1,2.955080e-01,2,1,0,2.300000e+00,1
17,714,5,1.276000e+01,36,1,2,0,4.250867e-01,2,1,0,1.200000e+00,1
17,715,5,6.925000e+01,69,2,2,1,1.322460e+00,2,1,0,2.100000e+00,1
17,716,5,1.196800e+02,60,3,3,1,4.200404e-01,2,1,0,3.200000e+00,1
17,717,5,1.065800e+02,55,3,2,0,7.257397e-01,1,1,0,3.200000e+00,1
17,718,5,1.077000e+01,37,1,1,1,2.475797e-01,1,1,0,1.200000e+00,1
17,719,5,9.972000e+01,46,3,3,1,3.048396e-01,1,1,0,3.200000e+00,1
17,720,5,9.126000e+01,7,2,2,1,1.385925e-01,1,1,0,2.100000e+00,1
17,721,5,9.337000e+01,13,2,3,0,4.118144e-01,3,1,0,2.100000e+00,1
17,722,5,1.381800e+02,24,3,3,1,2.131316e-01,2,1,0,3.100000e+00,1
17,723,5,1.346400e+02,18,3,3,1,1.345598e-01,1,1,0,3.200000e+00,1
17,724,5,1.707000e+01,8,1,1,1,3.274595e-02,1,1,0,1.300000e+00,1
17,725,5,6.127000e+01,57,2,2,1,4.262663e-01,1,1,0,2.300000e+00,1
17,726,5,1.410100e+02,38,3,3,1,3.316334e-01,2,1,0,3.100000e+00,1
17,727,5,4.395000e+01,48,1,1,1,4.052453e-01,1,1,0,1.200000e+00,1
17,728,5,1.446200e+02,20,3,3,1,4.146038e-01,1,1,0,3.200000e+00,1
17,729,5,1.255200e+02,61,3,3,1,5.038303e-01,3,1,0,3.200000e+00,1
17,730,5,1.410100e+02,38,3,3,1,4.497102e-01,3,1,0,3.100000e+00,1
17,731,5,5.026000e+01,71,2,2,1,3.469371e-01,3,1,0,2.300000e+00,1
17,732,5,6.229000e+01,59,2,1,0,3.883980e-01,2,1,0,2.300000e+00,1
17,733,5,1.177300e+02,70,3,3,1,9.899267e-01,1,1,0,3.200000e+00,1
17,734,5,1.361300e+02,19,3,3,1,3.750494e-01,1,1,0,3.100000e+00,1
17,735,5,9.757000e+01,50,3,3,1,2.011084e-01,1,1,0,3.200000e+00,1
17,736,5,7.933000e+01,25,2,2,1,2.828346e-01,1,1,0,2.300000e+00,1
17,737,5,1.077000e+01,37,1,1,1,5.242932e-01,2,1,0,1.200000e+00,1
17,738,5,9.820000e+00,72,1,0,0,2.500247e+00,1,1,0,1.200000e+00,1
17,739,5,1.221400e+02,33,3,2,0,8.160278e-01,2,1,0,3.100000e+00,1
17,740,5,1.361300e+02,19,3,3,1,8.258970e-01,2,1,0,3.100000e+00,1
17,741,5,1.401700e+02,5,3,3,1,4.670867e-01,1,1,0,3.100000e+00,1
17,742,5,4.395000e+01,48,1,0,0,2.500027e+00,2,1,0,1.200000e+00,1
17,743,5,1.401700e+02,5,3,3,1,2.871924e-01,2,1,0,3.100000e+00,1
17,744,5,8.329000e+01,22,2,3,0,3.125331e-01,1,1,0,2.100000e+00,1
17,745,5,6.127000e+01,57,2,2,1,1.459956e-01,2,1,0,2.300000e+00,1
17,746,5,3.115000e+01,10,1,1,1,7.796331e-01,1,1,0,1.300000e+00,1
17,747,5,5.621000e+01,67,2,3,0,8.050311e-01,1,1,0,2.300000e+00,1
17,748,5,1.177300e+02,70,3,1,0,1.104551e-01,2,1,0,3.200000e+00,1
17,749,5,9.342000e+01,66,2,1,0,7.923707e-01,3,1,0,2.300000e+00,1
17,750,5,1.707000e+01,8,1,1,1,2.978926e-01,2,1,0,1.300000e+00,1
17,751,5,1.300400e+02,53,3,3,1,3.153427e-01,2,1,0,3.100000e+00,1
17,752,5,3.918000e+01,52,1,2,0,1.300797e+00,1,1,0,1.300000e+00,1
17,753,5,8.141000e+01,11,2,0,0,2.500175e+00,2,1,0,2.100000e+00,1
17,754,5,9.820000e+00,72,1,3,0,1.320615e+00,2,1,0,1.200000e+00,1
17,755,5,2.501000e+01,63,1,0,0,2.500592e+00,2,1,0,1.300000e+00,1
17,756,5,4.685000e+01,47,1,0,0,2.500140e+00,2,1,0,1.200000e+00,1
17,757,5,9.972000e+01,46,3,3,1,1.086221e+00,2,1,0,3.200000e+00,1
17,758,5,8.329000e+01,22,2,2,1,8.561349e-01,2,1,0,2.100000e+00,1
17,759,5,1.241900e+02,65,3,1,0,5.537185e-01,2,1,0,3.100000e+00,1
17,760,5,1.276000e+01,36,1,2,0,6.827170e-01,3,1,0,1.200000e+00,1
17,761,5,2.398000e+01,26,1,1,1,3.724529e-01,2,1,0,1.300000e+00,1
17,762,5,5.936000e+01,14,2,2,1,2.938394e-01,1,1,0,2.100000e+00,1
17,763,5,5.543000e+01,28,2,2,1,3.674631e-01,1,1,0,2.300000e+00,1
17,764,5,6.639000e+01,9,2,1,0,9.451899e-01,1,1,0,2.300000e+00,1
17,765,5,1.255200e+02,61,3,3,1,2.029654e-01,4,1,0,3.200000e+00,1
17,766,5,1.446200e+02,20,3,3,1,3.002950e-01,2,1,0,3.200000e+00,1
17,767,5,1.221400e+02,33,3,3,1,7.023226e-01,3,1,0,3.100000e+00,1
17,768,5,5.936000e+01,14,2,2,1,1.280679e-01,2,1,0,2.100000e+00,1
17,769,5,6.127000e+01,57,2,2,1,8.189279e-02,3,1,0,2.300000e+00,1
17,770,5,9.126000e+01,7,2,2,1,1.910122e-02,2,1,0,2.100000e+00,1
17,771,5,5.737000e+01,43,2,2,1,1.006587e-01,3,1,0,2.300000e+00,1
17,772,5,1.381800e+02,24,3,3,1,1.286300e+00,3,1,0,3.100000e+00,1
17,773,5,1.046700e+02,58,3,2,0,1.847920e+00,1,1,0,3.200000e+00,1
17,774,5,1.177300e+02,70,3,3,1,2.338025e-01,3,1,0,3.200000e+00,1
17,775,5,1.196800e+02,60,3,3,1,2.199863e-01,3,1,0,3.200000e+00,1
17,776,5,5.737000e+01,43,2,2,1,1.091741e-01,4,1,0,2.300000e+00,1
17,777,5,1.046700e+02,58,3,3,1,7.911066e-02,2,1,0,3.200000e+00,1
17,778,5,1.165000e+02,39,3,3,1,1.647455e-02,1,1,0,3.200000e+00,1
17,779,5,1.241900e+02,65,3,1,0,1.129934e+00,3,1,0,3.100000e+00,1
17,780,5,6.925000e+01,69,2,2,1,8.675275e-01,3,1,0,2.100000e+00,1
17,781,5,1.165000e+02,39,3,3,1,2.693287e-01,2,1,0,3.200000e+00,1
17,782,5,3.918000e+01,52,1,2,0,2.391313e-01,2,1,0,1.300000e+00,1
17,783,5,3.918000e+01,52,1,1,1,2.566548e-01,3,1,0,1.300000e+00,1
17,784,5,3.115000e+01,10,1,1,1,1.060798e-01,2,1,0,1.300000e+00,1
17,785,5,8.141000e+01,11,2,2,1,1.454906e-04,3,1,0,2.100000e+00,1
17,786,5,3.279000e+01,32,1,1,1,2.610964e-01,2,1,0,1.200000e+00,1
17,787,5,1.077000e+01,37,1,1,1,3.104609e-01,3,1,0,1.200000e+00,1
17,788,5,1.000200e+02,6,3,2,0,3.124942e-01,2,1,0,3.100000e+00,1
17,789,5,6.229000e+01,59,2,2,1,3.136020e-01,3,1,0,2.300000e+00,1
17,790,5,6.229000e+01,59,2,2,1,3.070051e-01,4,1,0,2.300000e+00,1
17,791,5,3.279000e+01,32,1,1,1,3.009880e-01,3,1,0,1.200000e+00,1
17,792,5,3.115000e+01,10,1,1,1,1.030192e+00,3,1,0,1.300000e+00,1
17,793,5,5.621000e+01,67,2,3,0,2.876938e-01,2,1,0,2.300000e+00,1
17,794,5,7.020000e+00,12,1,1,1,6.653514e-01,2,1,0,1.300000e+00,1
17,795,5,5.936000e+01,14,2,2,1,1.442833e-04,3,1,0,2.100000e+00,1
17,796,5,1.000200e+02,6,3,3,1,5.218977e-02,3,1,0,3.100000e+00,1
17,797,5,7.020000e+00,12,1,1,1,3.098521e-01,3,1,0,1.300000e+00,1
17,798,5,1.140700e+02,31,3,3,1,7.440950e-01,1,1,0,3.100000e+00,1
17,799,5,9.972000e+01,46,3,3,1,4.416802e-01,3,1,0,3.200000e+00,1
17,800,5,1.035100e+02,56,3,2,0,2.191535e-01,2,1,0,3.200000e+00,1
17,801,5,9.723000e+01,23,2,2,1,1.439813e-04,1,1,0,2.300000e+00,1
17,802,5,2.775000e+01,3,1,1,1,1.503201e-04,1,1,0,1.200000e+00,1
17,803,5,4.009000e+01,29,1,1,1,1.391518e-04,1,1,0,1.300000e+00,1
17,804,5,1.000200e+02,6,3,3,1,2.124404e-03,4,1,0,3.100000e+00,1
17,805,5,1.361300e+02,19,3,3,1,1.518294e-04,3,1,0,3.100000e+00,1
17,806,5,9.757000e+01,50,3,3,1,6.977934e-02,2,1,0,3.200000e+00,1
17,807,5,5.026000e+01,71,2,2,1,1.988174e-01,4,1,0,2.300000e+00,1
17,808,5,7.933000e+01,25,2,2,1,1.479054e-04,2,1,0,2.300000e+00,1
17,809,5,6.639000e+01,9,2,2,1,1.427740e-04,2,1,0,2.300000e+00,1
17,810,5,5.543000e+01,28,2,2,1,4.407007e-02,2,1,0,2.300000e+00,1
17,811,5,7.933000e+01,25,2,2,1,1.575491e-01,3,1,0,2.300000e+00,1
17,812,5,1.077000e+01,37,1,1,1,1.424721e-04,4,1,0,1.200000e+00,1
17,813,5,9.723000e+01,23,2,2,1,3.609905e-01,2,1,0,2.300000e+00,1
17,814,5,5.621000e+01,67,2,2,1,1.026649e+00,3,1,0,2.300000e+00,1
17,815,5,3.390000e+01,44,1,3,0,5.964824e-01,2,1,0,1.200000e+00,1
17,816,5,4.311000e+01,2,1,1,1,4.608943e-02,1,1,0,1.300000e+00,1
17,817,5,5.543000e+01,28,2,2,1,1.503201e-04,3,1,0,2.300000e+00,1
17,818,5,1.046700e+02,58,3,3,1,1.715431e-02,3,1,0,3.200000e+00,1
17,819,5,6.639000e+01,9,2,2,1,1.548479e-04,3,1,0,2.300000e+00,1
17,820,5,1.707000e+01,8,1,1,1,2.900605e-02,3,1,0,1.300000e+00,1
17,821,5,7.020000e+00,12,1,1,1,1.485090e-04,4,1,0,1.300000e+00,1
17,822,5,9.126000e+01,7,2,2,1,1.515276e-04,3,1,0,2.100000e+00,1
17,823,5,3.390000e+01,44,1,2,0,1.436794e-04,3,1,0,1.200000e+00,1
17,824,5,1.140700e+02,31,3,3,1,4.451408e-02,2,1,0,3.100000e+00,1
17,825,5,4.311000e+01,2,1,1,1,5.297970e-02,2,1,0,1.300000e+00,1
17,826,5,1.241900e+02,65,3,2,0,3.346598e-01,4,1,0,3.100000e+00,1
17,827,5,2.775000e+01,3,1,1,1,1.445850e-04,2,1,0,1.200000e+00,1
17,828,5,7.933000e+01,25,2,2,1,1.476036e-04,4,1,0,2.300000e+00,1
17,829,5,9.126000e+01,7,2,2,1,4.409753e-02,4,1,0,2.100000e+00,1
17,830,5,3.390000e+01,44,1,2,0,6.060652e-01,4,1,0,1.200000e+00,1
17,831,5,1.401700e+02,5,3,3,1,1.681291e-04,3,1,0,3.100000e+00,1
17,832,5,5.936000e+01,14,2,2,1,4.899743e-02,4,1,0,2.100000e+00,1
17,833,5,4.009000e+01,29,1,1,1,1.512257e-04,2,1,0,1.300000e+00,1
17,834,5,4.311000e+01,2,1,1,1,1.418684e-04,3,1,0,1.300000e+00,1
17,835,5,2.501000e+01,63,1,1,1,1.302124e+00,3,1,0,1.300000e+00,1
17,836,5,1.300400e+02,53,3,3,1,2.479612e-01,3,1,0,3.100000e+00,1
17,837,5,6.127000e+01,57,2,2,1,1.134778e-01,4,1,0,2.300000e+00,1
17,838,5,9.337000e+01,13,2,3,0,1.330600e+00,4,1,0,2.100000e+00,1
17,839,5,8.329000e+01,22,2,2,1,1.539424e-04,3,1,0,2.100000e+00,1
17,840,5,4.395000e+01,48,1,1,1,8.609753e-02,3,1,0,1.200000e+00,1
17,841,5,5.543000e+01,28,2,2,1,1.524723e-02,4,1,0,2.300000e+00,1
17,842,5,1.346400e+02,18,3,3,1,1.469998e-04,2,1,0,3.200000e+00,1
17,843,5,6.348000e+01,27,2,2,1,5.082029e-02,2,1,0,2.100000e+00,1
17,844,5,2.501000e+01,63,1,1,1,1.406375e-01,4,1,0,1.300000e+00,1
17,845,5,6.639000e+01,9,2,2,1,4.610241e-02,4,1,0,2.300000e+00,1
17,846,5,1.446200e+02,20,3,3,1,1.356042e-01,3,1,0,3.200000e+00,1
17,847,5,1.046700e+02,58,3,3,1,1.430758e-04,4,1,0,3.200000e+00,1
17,848,5,1.401700e+02,5,3,3,1,5.548447e-01,4,1,0,3.100000e+00,1
17,849,5,4.311000e+01,2,1,1,1,2.124603e-01,4,1,0,1.300000e+00,1
17,850,5,2.775000e+01,3,1,1,1,1.404890e-02,3,1,0,1.200000e+00,1
17,851,5,1.035100e+02,56,3,3,1,4.551752e-01,3,1,0,3.200000e+00,1
17,852,5,9.444000e+01,45,2,2,1,8.901609e-02,3,1,0,2.100000e+00,1
17,853,5,6.925000e+01,69,2,2,1,5.862127e-01,4,1,0,2.100000e+00,1
17,854,5,1.446200e+02,20,3,3,1,8.194984e-01,4,1,0,3.200000e+00,1
17,855,5,9.757000e+01,50,3,3,1,5.225286e-03,3,1,0,3.200000e+00,1
17,856,5,1.065800e+02,55,3,3,1,6.225908e-01,2,1,0,3.200000e+00,1
17,857,5,9.723000e+01,23,2,2,1,1.418684e-04,3,1,0,2.300000e+00,1
17,858,5,5.621000e+01,67,2,2,1,1.491128e-04,4,1,0,2.300000e+00,1
17,859,5,1.065800e+02,55,3,3,1,7.549362e-02,3,1,0,3.200000e+00,1
17,860,5,1.346400e+02,18,3,3,1,6.169465e-02,3,1,0,3.200000e+00,1
17,861,5,4.009000e+01,29,1,2,0,1.142709e+00,3,1,0,1.300000e+00,1
17,862,5,2.775000e+01,3,1,1,1,1.463961e-04,4,1,0,1.200000e+00,1
17,863,5,2.398000e+01,26,1,1,1,1.418684e-04,3,1,0,1.300000e+00,1
17,864,5,1.300400e+02,53,3,3,1,1.690347e-04,4,1,0,3.100000e+00,1
17,865,5,9.342000e+01,66,2,2,1,1.521313e-04,4,1,0,2.300000e+00,1
17,866,5,1.410100e+02,38,3,3,1,1.120706e-01,4,1,0,3.100000e+00,1
17,867,5,1.035100e+02,56,3,3,1,7.356723e-02,4,1,0,3.200000e+00,1
17,868,5,6.348000e+01,27,2,2,1,3.474448e-02,3,1,0,2.100000e+00,1
17,869,5,9.723000e+01,23,2,1,0,5.485170e-01,4,1,0,2.300000e+00,1
17,870,5,1.361300e+02,19,3,3,1,5.421607e-02,4,1,0,3.100000e+00,1
17,871,5,3.918000e+01,52,1,2,0,5.035918e-01,4,1,0,1.300000e+00,1
17,872,5,1.177300e+02,70,3,3,1,4.918759e-02,4,1,0,3.200000e+00,1
17,873,5,1.221400e+02,33,3,3,1,1.466980e-04,4,1,0,3.100000e+00,1
17,874,5,1.165000e+02,39,3,3,1,1.382462e-04,3,1,0,3.200000e+00,1
17,875,5,8.141000e+01,11,2,2,1,6.163126e-02,4,1,0,2.100000e+00,1
17,876,5,4.685000e+01,47,1,1,1,2.552859e-01,3,1,0,1.200000e+00,1
17,877,5,1.707000e+01,8,1,1,1,5.667643e-02,4,1,0,1.300000e+00,1
17,878,5,1.065800e+02,55,3,3,1,1.024894e-02,4,1,0,3.200000e+00,1
17,879,5,9.444000e+01,45,2,2,1,5.326012e-02,4,1,0,2.100000e+00,1
17,880,5,1.196800e+02,60,3,3,1,1.657144e-04,4,1,0,3.200000e+00,1
17,881,5,9.972000e+01,46,3,3,1,1.427740e-04,4,1,0,3.200000e+00,1
17,882,5,1.165000e+02,39,3,3,1,1.454906e-04,4,1,0,3.200000e+00,1
17,883,5,9.757000e+01,50,3,3,1,3.481240e-02,4,1,0,3.200000e+00,1
17,884,5,3.279000e+01,32,1,1,1,4.463150e-02,4,1,0,1.200000e+00,1
17,885,5,4.009000e+01,29,1,1,1,1.494146e-04,4,1,0,1.300000e+00,1
17,886,5,1.140700e+02,31,3,3,1,1.654126e-04,3,1,0,3.100000e+00,1
17,887,5,8.329000e+01,22,2,2,1,5.776324e-01,4,1,0,2.100000e+00,1
17,888,5,6.348000e+01,27,2,2,1,3.534184e-02,4,1,0,2.100000e+00,1
17,889,5,3.115000e+01,10,1,1,1,7.678009e-02,4,1,0,1.300000e+00,1
17,890,5,9.820000e+00,72,1,1,1,3.091434e-02,3,1,0,1.200000e+00,1
17,891,5,4.395000e+01,48,1,1,1,1.494146e-04,4,1,0,1.200000e+00,1
17,892,5,2.398000e+01,26,1,1,1,8.238601e-02,4,1,0,1.300000e+00,1
17,893,5,1.346400e+02,18,3,3,1,1.482072e-04,4,1,0,3.200000e+00,1
17,894,5,1.140700e+02,31,3,3,1,6.928612e-02,4,1,0,3.100000e+00,1
17,895,5,9.820000e+00,72,1,1,1,6.292891e-02,4,1,0,1.200000e+00,1
17,896,5,1.276000e+01,36,1,2,0,1.042926e-01,4,1,0,1.200000e+00,1
17,897,5,1.381800e+02,24,3,3,1,4.975648e-01,4,1,0,3.100000e+00,1
17,898,5,4.685000e+01,47,1,1,1,1.451888e-04,4,1,0,1.200000e+00,1
17,899,6,131,21,2,1,0,8.641857e-01,NaN,2,1,3,1
17,900,6,75,3,2,2,1,5.812648e-01,NaN,2,0,2,1
17,901,6,126,71,1,1,1,9.805043e-01,NaN,2,0,3,1
17,902,6,71,16,1,1,1,5.635213e-01,NaN,2,1,2,1
17,903,6,87,40,1,1,1,7.874868e-01,NaN,2,1,2,1
17,904,6,137,43,2,2,1,8.021059e-01,NaN,2,0,3,1
17,905,6,120,49,2,2,1,6.970243e-01,NaN,2,1,3,1
17,906,6,73,70,1,1,1,6.916538e-01,NaN,2,0,2,1
17,907,6,1,38,1,1,1,8.221779e-01,NaN,2,0,1,1
17,908,6,3,41,1,1,1,7.958806e-01,NaN,2,1,1,1
17,909,6,64,18,2,2,1,8.341157e-01,NaN,2,0,2,1
17,910,6,139,9,2,1,0,7.513605e-01,NaN,2,0,3,1
17,911,6,80,4,1,1,1,6.241332e-01,NaN,2,1,2,1
17,912,6,31,68,1,1,1,1.029908e+00,NaN,2,1,1,1
17,913,6,62,20,1,1,1,6.588451e-01,NaN,2,0,2,1
17,914,6,18,24,2,1,0,7.672461e-01,NaN,2,0,1,1
17,915,6,143,28,1,1,1,8.231625e-01,NaN,2,0,3,1
17,916,6,132,64,1,2,0,9.487665e-01,NaN,2,1,3,1
17,917,6,90,44,2,1,0,7.571282e-01,NaN,2,0,2,1
17,918,6,112,30,1,1,1,1.565947e+00,NaN,2,1,3,1
17,919,6,41,11,1,1,1,1.085561e+00,NaN,2,0,1,1
17,920,6,51,56,2,2,1,6.486046e-01,NaN,2,0,2,1
17,921,6,113,15,1,1,1,8.543371e-01,NaN,2,1,3,1
17,922,6,111,2,1,2,0,7.612019e-01,NaN,2,0,3,1
17,923,6,2,6,1,1,1,1.193576e+00,NaN,2,0,1,1
17,924,6,36,14,1,1,1,1.112719e+00,NaN,2,0,1,1
17,925,6,57,50,1,1,1,6.502572e-01,NaN,2,0,2,1
17,926,6,58,55,1,1,1,7.348328e-01,NaN,2,0,2,1
17,927,6,108,54,1,1,1,1.247731e+00,NaN,2,1,3,1
17,928,6,17,5,1,1,1,9.162587e-01,NaN,2,0,1,1
17,929,6,4,53,1,1,1,1.014266e+00,NaN,2,0,1,1
17,930,6,50,39,2,2,1,9.237017e-01,NaN,2,0,2,1
17,931,6,98,26,1,1,1,1.149381e+00,NaN,2,0,3,1
17,932,6,79,32,1,1,1,7.176296e-01,NaN,2,0,2,1
17,933,6,52,61,2,2,1,8.554433e-01,NaN,2,0,2,1
17,934,6,76,36,2,2,1,9.078960e-01,NaN,2,0,2,1
17,935,6,129,59,1,1,1,1.061980e+00,NaN,2,0,3,1
17,936,6,142,66,2,2,1,9.623240e-01,NaN,2,0,3,1
17,937,6,107,8,2,2,1,1.274107e+00,NaN,2,0,3,1
17,938,6,21,42,1,1,1,8.536199e-01,NaN,2,1,1,1
17,939,6,29,22,2,2,1,8.179049e-01,NaN,2,0,1,1
17,940,6,77,37,1,1,1,6.958718e-01,NaN,2,0,2,1
17,941,6,67,58,1,1,1,7.544472e-01,NaN,2,0,2,1
17,942,6,25,69,1,1,1,8.822628e-01,NaN,2,0,1,1
17,943,6,44,45,1,1,1,1.277518e+00,NaN,2,0,1,1
17,944,6,22,1,2,1,0,8.406772e-01,NaN,2,1,1,1
17,945,6,133,25,2,2,1,1.022133e+00,NaN,2,0,3,1
17,946,6,85,47,1,1,1,5.554894e-01,NaN,2,0,2,1
17,947,6,26,7,2,2,1,9.231577e-01,NaN,2,0,1,1
17,948,6,95,48,2,1,0,9.007956e-01,NaN,2,0,2,1
17,949,6,102,12,2,1,0,1.255474e+00,NaN,2,0,3,1
17,950,6,127,57,2,2,1,9.475473e-01,NaN,2,0,3,1
17,951,6,68,60,1,1,1,6.761814e-01,NaN,2,0,2,1
17,952,6,13,19,1,1,1,8.957617e-01,NaN,2,0,1,1
17,953,6,123,23,2,2,1,1.258036e+00,NaN,2,0,3,1
17,954,6,89,62,2,2,1,1.150191e+00,NaN,2,1,2,1
17,955,6,121,67,2,2,1,1.175270e+00,NaN,2,0,3,1
17,956,6,118,52,2,2,1,1.294712e+00,NaN,2,0,3,1
17,957,6,14,33,2,2,1,7.774326e-01,NaN,2,0,1,1
17,958,6,101,63,2,2,1,1.185213e+00,NaN,2,0,3,1
17,959,6,109,29,2,2,1,1.064077e+00,NaN,2,0,3,1
17,960,6,115,10,2,2,1,1.188297e+00,NaN,2,0,3,1
17,961,6,48,27,1,1,1,1.163277e+00,NaN,2,0,1,1
17,962,6,15,51,2,2,1,1.163249e+00,NaN,2,1,1,1
17,963,6,37,13,1,1,1,1.210815e+00,NaN,2,0,1,1
17,964,6,7,31,1,1,1,1.144300e+00,NaN,2,0,1,1
17,965,6,82,72,1,1,1,8.892717e-01,NaN,2,0,2,1
17,966,6,45,34,2,2,1,9.001675e-01,NaN,2,1,1,1
17,967,6,88,35,1,1,1,1.238724e+00,NaN,2,1,2,1
17,968,6,72,46,2,2,1,6.831535e-01,NaN,2,0,2,1
17,969,6,34,17,1,1,1,1.118557e+00,NaN,2,1,1,1
17,970,6,19,65,2,1,0,1.088029e+00,NaN,2,0,1,1
17,971,6,47,49,1,1,1,9.319001e-01,NaN,1,1,1,1
17,972,6,69,69,2,2,1,9.397080e-01,NaN,1,0,2,1
17,973,6,130,53,2,2,1,1.093037e+00,NaN,1,0,3,1
17,974,6,134,18,2,2,1,1.119775e+00,NaN,1,0,3,1
17,975,6,84,1,1,1,1,6.732287e-01,NaN,1,1,2,1
17,976,6,86,17,2,2,1,7.167920e-01,NaN,1,1,2,1
17,977,6,97,50,2,2,1,9.908643e-01,NaN,1,0,3,1
17,978,6,38,52,2,1,0,1.341741e+00,NaN,1,0,1,1
17,979,6,59,14,2,2,1,9.021144e-01,NaN,1,0,2,1
17,980,6,100,6,2,2,1,8.889689e-01,NaN,1,0,3,1
17,981,6,56,43,2,2,1,7.154421e-01,NaN,1,0,2,1
17,982,6,39,29,1,1,1,8.613278e-01,NaN,1,0,1,1
17,983,6,141,38,1,1,1,9.530612e-01,NaN,1,0,3,1
17,984,6,61,59,2,2,1,6.898382e-01,NaN,1,0,2,1
17,985,6,117,70,2,2,1,1.060517e+00,NaN,1,0,3,1
17,986,6,91,7,2,2,1,7.372690e-01,NaN,1,0,2,1
17,987,6,20,35,1,1,1,7.305644e-01,NaN,1,1,1,1
17,988,6,23,26,1,1,1,1.091134e+00,NaN,1,0,1,1
17,989,6,9,72,1,1,1,1.069985e+00,NaN,1,0,1,1
17,990,6,65,9,1,1,1,8.976377e-01,NaN,1,0,2,1
17,991,6,32,32,1,1,1,8.043396e-01,NaN,1,0,1,1
17,992,6,114,31,1,1,1,7.949929e-01,NaN,1,0,3,1
17,993,6,122,33,2,2,1,1.057543e+00,NaN,1,0,3,1
17,994,6,128,16,1,1,1,8.859073e-01,NaN,1,1,3,1
17,995,6,40,30,1,1,1,9.286574e-01,NaN,1,1,1,1
17,996,6,104,58,1,1,1,1.034708e+00,NaN,1,0,3,1
17,997,6,105,51,2,2,1,9.431473e-01,NaN,1,1,3,1
17,998,6,96,23,2,2,1,5.999114e-01,NaN,1,0,2,1
17,999,6,138,24,2,2,1,9.190357e-01,NaN,1,0,3,1
17,1000,6,55,67,2,2,1,6.885424e-01,NaN,1,0,2,1
17,1001,6,78,25,2,2,1,8.433694e-01,NaN,1,0,2,1
17,1002,6,103,56,2,2,1,1.160057e+00,NaN,1,0,3,1
17,1003,6,53,34,2,2,1,7.600513e-01,NaN,1,1,2,1
17,1004,6,28,40,1,1,1,9.933059e-01,NaN,1,1,1,1
17,1005,6,66,21,2,2,1,9.110551e-01,NaN,1,1,2,1
17,1006,6,54,28,1,1,1,9.050505e-01,NaN,1,0,2,1
17,1007,6,119,60,1,2,0,1.283280e+00,NaN,1,0,3,1
17,1008,6,60,57,1,1,1,7.503143e-01,NaN,1,0,2,1
17,1009,6,74,68,1,1,1,7.031313e-01,NaN,1,1,2,1
17,1010,6,140,5,2,2,1,1.281225e+00,NaN,1,0,3,1
17,1011,6,83,22,2,2,1,8.521804e-01,NaN,1,0,2,1
17,1012,6,136,19,1,1,1,1.304359e+00,NaN,1,0,3,1
17,1013,6,94,45,1,1,1,9.709997e-01,NaN,1,0,2,1
17,1014,6,49,71,1,1,1,8.103252e-01,NaN,1,0,2,1
17,1015,6,93,13,2,2,1,1.304369e+00,NaN,1,0,2,1
17,1016,6,16,8,2,2,1,1.194374e+00,NaN,1,0,1,1
17,1017,6,46,47,1,2,0,1.113684e+00,NaN,1,0,1,1
17,1018,6,6,12,1,1,1,1.371548e+00,NaN,1,0,1,1
17,1019,6,42,2,1,1,1,1.066803e+00,NaN,1,0,1,1
17,1020,6,144,20,1,1,1,1.126185e+00,NaN,1,0,3,1
17,1021,6,5,62,2,2,1,8.396347e-01,NaN,1,1,1,1
17,1022,6,70,64,1,1,1,6.926297e-01,NaN,1,1,2,1
17,1023,6,8,4,2,2,1,1.055317e+00,NaN,1,1,1,1
17,1024,6,63,27,2,2,1,7.714829e-01,NaN,1,0,2,1
17,1025,6,92,66,1,1,1,6.345783e-01,NaN,1,0,2,1
17,1026,6,81,11,2,2,1,6.963789e-01,NaN,1,0,2,1
17,1027,6,11,15,2,1,0,9.464700e-01,NaN,1,1,1,1
17,1028,6,106,55,1,2,0,1.474777e+00,NaN,1,0,3,1
17,1029,6,12,36,2,1,0,9.584187e-01,NaN,1,0,1,1
17,1030,6,27,3,2,2,1,1.094293e+00,NaN,1,0,1,1
17,1031,6,30,10,2,2,1,8.729318e-01,NaN,1,0,1,1
17,1032,6,24,63,2,1,0,9.086672e-01,NaN,1,0,1,1
17,1033,6,125,61,2,2,1,1.046467e+00,NaN,1,0,3,1
17,1034,6,35,54,2,2,1,9.390684e-01,NaN,1,1,1,1
17,1035,6,135,42,2,2,1,9.640213e-01,NaN,1,1,3,1
17,1036,6,33,44,1,1,1,1.075872e+00,NaN,1,0,1,1
17,1037,6,99,46,1,2,0,1.175348e+00,NaN,1,0,3,1
17,1038,6,116,39,1,1,1,1.151361e+00,NaN,1,0,3,1
17,1039,6,43,48,2,1,0,1.295386e+00,NaN,1,0,1,1
17,1040,6,110,41,1,1,1,1.097860e+00,NaN,1,1,3,1
17,1041,6,10,37,1,2,0,1.076520e+00,NaN,1,0,1,1
17,1042,6,124,65,1,2,0,1.096233e+00,NaN,1,0,3,1
