Subject,Trial,Cond,ImageNum,CueNum,Correct,Resp,Accuracy,RT,CueRep,ImageType,Baseline,Category,Block
41,1,1,113,NaN,NaN,1,NaN,1.538680e+00,NaN,2,1,3,1
41,2,1,84,NaN,NaN,1,NaN,9.043491e-04,NaN,1,0,2,1
41,3,1,48,NaN,NaN,1,NaN,1.062580e+00,NaN,1,0,1,1
41,4,1,6,NaN,NaN,1,NaN,1.693324e+00,NaN,1,0,1,1
41,5,1,114,NaN,NaN,1,NaN,6.832575e-01,NaN,1,0,3,1
41,6,1,104,NaN,NaN,2,NaN,1.209704e+00,NaN,2,0,3,1
41,7,1,91,NaN,NaN,1,NaN,1.389884e-01,NaN,2,0,2,1
41,8,1,46,NaN,NaN,1,NaN,3.914473e-01,NaN,0,0,1,1
41,9,1,33,NaN,NaN,1,NaN,1.185138e+00,NaN,2,0,1,1
41,10,1,35,NaN,NaN,2,NaN,4.029717e-01,NaN,1,0,1,1
41,11,1,46,NaN,NaN,1,NaN,8.683529e-01,NaN,1,0,1,1
41,12,1,140,NaN,NaN,1,NaN,9.789968e-01,NaN,0,1,3,1
41,13,1,99,NaN,NaN,2,NaN,1.117474e+00,NaN,2,0,3,1
41,14,1,13,NaN,NaN,1,NaN,9.057135e-01,NaN,1,0,1,1
41,15,1,98,NaN,NaN,1,NaN,9.675850e-01,NaN,1,0,3,1
41,16,1,18,NaN,NaN,1,NaN,7.378224e-01,NaN,2,0,1,1
41,17,1,44,NaN,NaN,1,NaN,7.496743e-01,NaN,0,0,1,1
41,18,1,32,NaN,NaN,1,NaN,7.691691e-01,NaN,2,0,1,1
41,19,1,21,NaN,NaN,1,NaN,5.479824e-01,NaN,0,1,1,1
41,20,1,63,NaN,NaN,1,NaN,6.234144e-01,NaN,0,1,2,1
41,21,1,136,NaN,NaN,1,NaN,6.245025e-01,NaN,2,0,3,1
41,22,1,92,NaN,NaN,1,NaN,6.649163e-01,NaN,1,1,2,1
41,23,1,99,NaN,NaN,2,NaN,1.311716e+00,NaN,0,0,3,1
41,24,1,138,NaN,NaN,1,NaN,1.012020e+00,NaN,0,1,3,1
41,25,1,95,NaN,NaN,1,NaN,7.571349e-01,NaN,0,0,2,1
41,26,1,86,NaN,NaN,1,NaN,1.000260e+00,NaN,0,0,2,1
41,27,1,19,NaN,NaN,1,NaN,5.695117e-01,NaN,1,0,1,1
41,28,1,102,NaN,NaN,1,NaN,1.164398e+00,NaN,0,0,3,1
41,29,1,118,NaN,NaN,1,NaN,1.278887e+00,NaN,0,1,3,1
41,30,1,122,NaN,NaN,2,NaN,3.700587e-02,NaN,1,0,3,1
41,31,1,115,NaN,NaN,1,NaN,9.175765e-01,NaN,1,0,3,1
41,32,1,3,NaN,NaN,1,NaN,1.522195e+00,NaN,0,0,1,1
41,33,1,50,NaN,NaN,1,NaN,1.358924e+00,NaN,2,0,2,1
41,34,1,22,NaN,NaN,1,NaN,6.663214e-01,NaN,0,0,1,1
41,35,1,9,NaN,NaN,1,NaN,4.408264e-01,NaN,0,0,1,1
41,36,1,135,NaN,NaN,1,NaN,5.127101e-01,NaN,0,0,3,1
41,37,1,52,NaN,NaN,1,NaN,4.137002e-01,NaN,0,0,2,1
41,38,1,4,NaN,NaN,1,NaN,7.582901e-01,NaN,1,0,1,1
41,39,1,51,NaN,NaN,1,NaN,5.615311e-01,NaN,2,0,2,1
41,40,1,132,NaN,NaN,1,NaN,6.362585e-01,NaN,1,0,3,1
41,41,1,100,NaN,NaN,1,NaN,9.162354e-01,NaN,0,1,3,1
41,42,1,38,NaN,NaN,1,NaN,5.449238e-01,NaN,1,0,1,1
41,43,1,144,NaN,NaN,1,NaN,6.925138e-01,NaN,0,1,3,1
41,44,1,71,NaN,NaN,1,NaN,6.023104e-01,NaN,1,1,2,1
41,45,1,57,NaN,NaN,1,NaN,1.403908e+00,NaN,1,1,2,1
41,46,1,63,NaN,NaN,1,NaN,6.211671e-01,NaN,2,1,2,1
41,47,1,96,NaN,NaN,1,NaN,4.937994e-01,NaN,1,0,2,1
41,48,1,3,NaN,NaN,1,NaN,7.559918e-01,NaN,1,0,1,1
41,49,1,82,NaN,NaN,1,NaN,7.514860e-01,NaN,2,0,2,1
41,50,1,137,NaN,NaN,1,NaN,1.154882e+00,NaN,2,0,3,1
41,51,1,94,NaN,NaN,1,NaN,6.303093e-01,NaN,0,1,2,1
41,52,1,128,NaN,NaN,1,NaN,7.020284e-01,NaN,0,1,3,1
41,53,1,130,NaN,NaN,2,NaN,7.957563e-01,NaN,2,0,3,1
41,54,1,55,NaN,NaN,1,NaN,6.532039e-01,NaN,0,0,2,1
41,55,1,97,NaN,NaN,1,NaN,2.300252e+00,NaN,1,1,3,1
41,56,1,123,NaN,NaN,1,NaN,8.658696e-01,NaN,2,0,3,1
41,57,1,135,NaN,NaN,1,NaN,6.484292e-01,NaN,2,0,3,1
41,58,1,21,NaN,NaN,1,NaN,3.916662e-01,NaN,2,1,1,1
41,59,1,26,NaN,NaN,1,NaN,1.017503e+00,NaN,0,1,1,1
41,60,1,120,NaN,NaN,2,NaN,9.864809e-01,NaN,1,0,3,1
41,61,1,124,NaN,NaN,1,NaN,1.083954e-01,NaN,2,0,3,1
41,62,1,54,NaN,NaN,1,NaN,1.489937e+00,NaN,1,0,2,1
41,63,1,54,NaN,NaN,1,NaN,2.183861e+00,NaN,0,0,2,1
41,64,1,112,NaN,NaN,1,NaN,1.922026e+00,NaN,0,0,3,1
41,65,1,65,NaN,NaN,1,NaN,9.907123e-01,NaN,0,0,2,1
41,66,1,33,NaN,NaN,1,NaN,4.646951e-01,NaN,0,0,1,1
41,67,1,76,NaN,NaN,1,NaN,6.313739e-01,NaN,0,0,2,1
41,68,1,24,NaN,NaN,1,NaN,7.198507e-01,NaN,0,0,1,1
41,69,1,25,NaN,NaN,1,NaN,8.683502e-01,NaN,2,1,1,1
41,70,1,36,NaN,NaN,1,NaN,6.912484e-01,NaN,2,1,1,1
41,71,1,144,NaN,NaN,1,NaN,1.288909e-04,NaN,1,1,3,1
41,72,1,59,NaN,NaN,1,NaN,6.263360e-01,NaN,0,0,2,1
41,73,1,88,NaN,NaN,1,NaN,1.203220e+00,NaN,2,1,2,1
41,74,1,60,NaN,NaN,1,NaN,7.003924e-01,NaN,1,0,2,1
41,75,1,32,NaN,NaN,1,NaN,5.296208e-01,NaN,0,0,1,1
41,76,1,143,NaN,NaN,1,NaN,4.058608e-01,NaN,0,1,3,1
41,77,1,56,NaN,NaN,1,NaN,7.116044e-02,NaN,2,0,2,1
41,78,1,12,NaN,NaN,2,NaN,1.214103e+00,NaN,2,0,1,1
41,79,1,29,NaN,NaN,1,NaN,7.344694e-01,NaN,0,0,1,1
41,80,1,56,NaN,NaN,1,NaN,1.328150e-04,NaN,0,0,2,1
41,81,1,71,NaN,NaN,1,NaN,3.075837e+00,NaN,0,1,2,1
41,82,1,27,NaN,NaN,1,NaN,1.178759e+00,NaN,0,0,1,1
41,83,1,131,NaN,NaN,1,NaN,2.100808e+00,NaN,0,0,3,1
41,84,1,28,NaN,NaN,2,NaN,6.420679e-01,NaN,1,0,1,1
41,85,1,100,NaN,NaN,1,NaN,4.984074e-01,NaN,2,1,3,1
41,86,1,109,NaN,NaN,1,NaN,8.718251e-01,NaN,0,0,3,1
41,87,1,104,NaN,NaN,1,NaN,1.240612e-04,NaN,0,0,3,1
41,88,1,73,NaN,NaN,1,NaN,1.300983e-04,NaN,1,0,2,1
41,89,1,119,NaN,NaN,1,NaN,5.929451e-01,NaN,0,0,3,1
41,90,1,5,NaN,NaN,1,NaN,7.384059e-01,NaN,2,0,1,1
41,91,1,53,NaN,NaN,1,NaN,6.865558e-01,NaN,0,0,2,1
41,92,1,41,NaN,NaN,1,NaN,1.588536e+00,NaN,1,0,1,1
41,93,1,103,NaN,NaN,1,NaN,1.334790e+00,NaN,2,1,3,1
41,94,1,89,NaN,NaN,1,NaN,9.146112e-01,NaN,0,0,2,1
41,95,1,106,NaN,NaN,1,NaN,6.872329e-01,NaN,2,1,3,1
41,96,1,116,NaN,NaN,1,NaN,6.947429e-02,NaN,0,1,3,1
41,97,1,74,NaN,NaN,1,NaN,4.438769e-01,NaN,2,0,2,1
41,98,1,38,NaN,NaN,1,NaN,6.120022e-01,NaN,0,0,1,1
41,99,1,72,NaN,NaN,1,NaN,6.367339e-01,NaN,0,0,2,1
41,100,1,13,NaN,NaN,1,NaN,2.773021e+00,NaN,0,0,1,1
41,101,1,79,NaN,NaN,1,NaN,1.231462e+00,NaN,2,0,2,1
41,102,1,70,NaN,NaN,1,NaN,3.995481e-01,NaN,0,1,2,1
41,103,1,89,NaN,NaN,1,NaN,4.329734e-01,NaN,1,0,2,1
41,104,1,40,NaN,NaN,1,NaN,6.008603e-01,NaN,2,1,1,1
41,105,1,20,NaN,NaN,1,NaN,7.784209e-01,NaN,2,0,1,1
41,106,1,125,NaN,NaN,1,NaN,8.202833e-01,NaN,1,0,3,1
41,107,1,18,NaN,NaN,1,NaN,6.371429e-01,NaN,0,0,1,1
41,108,1,134,NaN,NaN,2,NaN,9.091540e-01,NaN,1,1,3,1
41,109,1,57,NaN,NaN,1,NaN,5.706056e-01,NaN,0,1,2,1
41,110,1,143,NaN,NaN,1,NaN,7.896745e-01,NaN,1,1,3,1
41,111,1,129,NaN,NaN,2,NaN,1.055562e+00,NaN,0,1,3,1
41,112,1,137,NaN,NaN,1,NaN,1.094514e+00,NaN,0,0,3,1
41,113,1,61,NaN,NaN,1,NaN,1.212423e+00,NaN,0,0,2,1
41,114,1,1,NaN,NaN,1,NaN,1.229124e+00,NaN,2,0,1,1
41,115,1,5,NaN,NaN,1,NaN,1.844932e+00,NaN,0,0,1,1
41,116,1,64,NaN,NaN,1,NaN,3.721596e-01,NaN,1,0,2,1
41,117,1,126,NaN,NaN,2,NaN,2.470376e-01,NaN,0,0,3,1
41,118,1,36,NaN,NaN,1,NaN,6.623162e-01,NaN,0,1,1,1
41,119,1,49,NaN,NaN,1,NaN,5.573241e-01,NaN,1,1,2,1
41,120,1,52,NaN,NaN,1,NaN,1.240453e+00,NaN,1,0,2,1
41,121,1,45,NaN,NaN,1,NaN,4.646459e-01,NaN,0,0,1,1
41,122,1,139,NaN,NaN,1,NaN,8.949165e-01,NaN,0,0,3,1
41,123,1,109,NaN,NaN,1,NaN,1.124385e+00,NaN,1,0,3,1
41,124,1,91,NaN,NaN,1,NaN,7.610801e-01,NaN,0,0,2,1
41,125,1,126,NaN,NaN,2,NaN,7.628317e-02,NaN,1,0,3,1
41,126,1,113,NaN,NaN,1,NaN,1.304001e-04,NaN,0,1,3,1
41,127,1,69,NaN,NaN,1,NaN,4.042196e-01,NaN,2,0,2,1
41,128,1,20,NaN,NaN,1,NaN,6.292751e-01,NaN,0,0,1,1
41,129,1,51,NaN,NaN,1,NaN,6.213458e-01,NaN,0,0,2,1
41,130,1,101,NaN,NaN,2,NaN,3.422285e-01,NaN,0,0,3,1
41,131,1,62,NaN,NaN,1,NaN,7.621438e-01,NaN,0,1,2,1
41,132,1,86,NaN,NaN,1,NaN,9.489683e-01,NaN,2,0,2,1
41,133,1,121,NaN,NaN,1,NaN,2.960371e+00,NaN,2,0,3,1
41,134,1,123,NaN,NaN,1,NaN,7.236501e-01,NaN,0,0,3,1
41,135,1,98,NaN,NaN,1,NaN,7.362467e-01,NaN,0,0,3,1
41,136,1,77,NaN,NaN,1,NaN,6.766644e-01,NaN,0,1,2,1
41,137,1,12,NaN,NaN,1,NaN,2.353297e-01,NaN,0,0,1,1
41,138,1,142,NaN,NaN,1,NaN,1.131089e+00,NaN,1,0,3,1
41,139,1,7,NaN,NaN,1,NaN,1.367100e+00,NaN,0,0,1,1
41,140,1,125,NaN,NaN,1,NaN,1.474040e+00,NaN,0,0,3,1
41,141,1,31,NaN,NaN,1,NaN,1.552969e+00,NaN,0,0,1,1
41,142,1,72,NaN,NaN,1,NaN,8.199539e-01,NaN,2,0,2,1
41,143,1,67,NaN,NaN,1,NaN,1.489299e-01,NaN,2,0,2,1
41,144,1,96,NaN,NaN,1,NaN,4.963020e-01,NaN,0,0,2,1
41,145,1,69,NaN,NaN,1,NaN,1.333579e+00,NaN,0,0,2,1
41,146,1,61,NaN,NaN,1,NaN,1.169631e+00,NaN,2,0,2,1
41,147,1,10,NaN,NaN,1,NaN,5.801215e-01,NaN,0,0,1,1
41,148,1,53,NaN,NaN,1,NaN,5.504606e-01,NaN,1,0,2,1
41,149,1,141,NaN,NaN,1,NaN,9.377086e-01,NaN,1,0,3,1
41,150,1,1,NaN,NaN,1,NaN,7.336290e-01,NaN,0,0,1,1
41,151,1,27,NaN,NaN,1,NaN,5.936889e-01,NaN,2,0,1,1
41,152,1,23,NaN,NaN,1,NaN,6.116352e-01,NaN,1,0,1,1
41,153,1,79,NaN,NaN,1,NaN,9.244805e-01,NaN,0,0,2,1
41,154,1,74,NaN,NaN,1,NaN,7.052927e-01,NaN,0,0,2,1
41,155,1,119,NaN,NaN,1,NaN,7.905131e-01,NaN,2,0,3,1
41,156,1,142,NaN,NaN,1,NaN,9.285709e-01,NaN,0,0,3,1
41,157,1,17,NaN,NaN,1,NaN,5.005131e-01,NaN,1,0,1,1
41,158,1,49,NaN,NaN,1,NaN,3.541179e-01,NaN,0,1,2,1
41,159,1,132,NaN,NaN,1,NaN,2.789396e+00,NaN,0,0,3,1
41,160,1,103,NaN,NaN,1,NaN,1.631737e+00,NaN,0,1,3,1
41,161,1,39,NaN,NaN,2,NaN,2.077875e-01,NaN,0,1,1,1
41,162,1,2,NaN,NaN,1,NaN,6.570652e-01,NaN,2,0,1,1
41,163,1,87,NaN,NaN,1,NaN,3.686874e-01,NaN,1,0,2,1
41,164,1,80,NaN,NaN,1,NaN,9.630418e-01,NaN,0,0,2,1
41,165,1,105,NaN,NaN,2,NaN,1.245792e+00,NaN,0,0,3,1
41,166,1,70,NaN,NaN,1,NaN,1.279853e-04,NaN,1,1,2,1
41,167,1,28,NaN,NaN,1,NaN,1.367390e-04,NaN,0,0,1,1
41,168,1,34,NaN,NaN,1,NaN,7.596689e-01,NaN,2,0,1,1
41,169,1,41,NaN,NaN,1,NaN,6.593118e-01,NaN,0,0,1,1
41,170,1,15,NaN,NaN,1,NaN,6.429240e-01,NaN,1,0,1,1
41,171,1,120,NaN,NaN,1,NaN,9.469492e-01,NaN,0,0,3,1
41,172,1,90,NaN,NaN,1,NaN,3.462040e+00,NaN,0,0,2,1
41,173,1,85,NaN,NaN,1,NaN,1.316757e+00,NaN,0,1,2,1
41,174,1,140,NaN,NaN,1,NaN,1.137253e+00,NaN,2,1,3,1
41,175,1,68,NaN,NaN,1,NaN,6.773904e-01,NaN,0,0,2,1
41,176,1,133,NaN,NaN,2,NaN,7.881502e-01,NaN,0,0,3,1
41,177,1,111,NaN,NaN,1,NaN,1.766348e+00,NaN,1,0,3,1
41,178,1,112,NaN,NaN,1,NaN,6.728858e-01,NaN,1,0,3,1
41,179,1,127,NaN,NaN,1,NaN,1.838627e-01,NaN,0,0,3,1
41,180,1,105,NaN,NaN,2,NaN,7.777339e-01,NaN,1,0,3,1
41,181,1,128,NaN,NaN,1,NaN,8.997652e-01,NaN,1,1,3,1
41,182,1,47,NaN,NaN,1,NaN,4.889302e-01,NaN,0,0,1,1
41,183,1,107,NaN,NaN,1,NaN,8.230120e-01,NaN,1,0,3,1
41,184,1,78,NaN,NaN,1,NaN,1.016062e+00,NaN,1,0,2,1
41,185,1,67,NaN,NaN,1,NaN,4.968046e-01,NaN,0,0,2,1
41,186,1,4,NaN,NaN,1,NaN,7.502913e-01,NaN,0,0,1,1
41,187,1,115,NaN,NaN,1,NaN,1.769553e+00,NaN,0,0,3,1
41,188,1,11,NaN,NaN,1,NaN,7.322831e-01,NaN,0,0,1,1
41,189,1,34,NaN,NaN,1,NaN,1.584580e+00,NaN,0,0,1,1
41,190,1,80,NaN,NaN,1,NaN,7.620741e-01,NaN,2,0,2,1
41,191,1,30,NaN,NaN,1,NaN,1.628738e+00,NaN,0,1,1,1
41,192,1,48,NaN,NaN,1,NaN,1.220816e+00,NaN,0,0,1,1
41,193,1,88,NaN,NaN,1,NaN,5.179569e-01,NaN,0,1,2,1
41,194,1,118,NaN,NaN,1,NaN,1.370316e+00,NaN,2,1,3,1
41,195,1,122,NaN,NaN,2,NaN,1.693089e+00,NaN,0,0,3,1
41,196,1,110,NaN,NaN,1,NaN,9.953901e-01,NaN,2,0,3,1
41,197,1,129,NaN,NaN,2,NaN,8.605156e-01,NaN,1,1,3,1
41,198,1,107,NaN,NaN,1,NaN,5.399366e-01,NaN,0,0,3,1
41,199,1,110,NaN,NaN,1,NaN,5.202431e-01,NaN,0,0,3,1
41,200,1,82,NaN,NaN,1,NaN,3.965287e-01,NaN,0,0,2,1
41,201,1,47,NaN,NaN,1,NaN,1.061748e+00,NaN,2,0,1,1
41,202,1,2,NaN,NaN,1,NaN,6.286056e-01,NaN,0,0,1,1
41,203,1,26,NaN,NaN,1,NaN,1.036804e+00,NaN,2,1,1,1
41,204,1,117,NaN,NaN,2,NaN,1.316678e+00,NaN,0,1,3,1
41,205,1,58,NaN,NaN,1,NaN,7.377859e-01,NaN,1,0,2,1
41,206,1,65,NaN,NaN,1,NaN,5.576344e-01,NaN,2,0,2,1
41,207,1,9,NaN,NaN,1,NaN,6.968152e-01,NaN,2,0,1,1
41,208,1,133,NaN,NaN,2,NaN,2.385677e-01,NaN,2,0,3,1
41,209,1,77,NaN,NaN,1,NaN,4.865187e-01,NaN,1,1,2,1
41,210,1,95,NaN,NaN,1,NaN,5.326830e-01,NaN,1,0,2,1
41,211,1,108,NaN,NaN,1,NaN,1.304761e+00,NaN,0,0,3,1
41,212,1,29,NaN,NaN,1,NaN,7.418808e-01,NaN,1,0,1,1
41,213,1,85,NaN,NaN,1,NaN,6.737488e-01,NaN,2,1,2,1
41,214,1,141,NaN,NaN,1,NaN,5.288755e-01,NaN,0,0,3,1
41,215,1,25,NaN,NaN,1,NaN,1.124592e+00,NaN,0,1,1,1
41,216,1,42,NaN,NaN,1,NaN,1.233535e+00,NaN,0,1,1,1
41,217,1,22,NaN,NaN,1,NaN,4.138876e-02,NaN,2,0,1,1
41,218,1,131,NaN,NaN,1,NaN,9.376093e-01,NaN,2,0,3,1
41,219,1,134,NaN,NaN,2,NaN,2.037447e+00,NaN,0,1,3,1
41,220,1,106,NaN,NaN,1,NaN,4.537976e-01,NaN,0,1,3,1
41,221,1,66,NaN,NaN,1,NaN,6.847387e-01,NaN,0,0,2,1
41,222,1,94,NaN,NaN,1,NaN,4.428476e-01,NaN,1,1,2,1
41,223,1,37,NaN,NaN,1,NaN,5.551596e-01,NaN,1,0,1,1
41,224,1,78,NaN,NaN,1,NaN,6.622404e-01,NaN,0,0,2,1
41,225,1,43,NaN,NaN,1,NaN,5.252614e-01,NaN,2,0,1,1
41,226,1,30,NaN,NaN,1,NaN,9.700282e-01,NaN,2,1,1,1
41,227,1,60,NaN,NaN,1,NaN,1.836696e+00,NaN,0,0,2,1
41,228,1,84,NaN,NaN,1,NaN,8.124405e-01,NaN,0,0,2,1
41,229,1,66,NaN,NaN,1,NaN,8.453041e-01,NaN,1,0,2,1
41,230,1,81,NaN,NaN,1,NaN,5.405505e-01,NaN,1,1,2,1
41,231,1,93,NaN,NaN,1,NaN,7.526726e-01,NaN,2,0,2,1
41,232,1,24,NaN,NaN,1,NaN,1.107805e+00,NaN,2,0,1,1
41,233,1,92,NaN,NaN,1,NaN,5.457101e-01,NaN,0,1,2,1
41,234,1,136,NaN,NaN,1,NaN,1.061263e+00,NaN,0,0,3,1
41,235,1,138,NaN,NaN,1,NaN,5.076130e-01,NaN,1,1,3,1
41,236,1,14,NaN,NaN,1,NaN,5.534496e-01,NaN,1,1,1,1
41,237,1,68,NaN,NaN,1,NaN,7.801167e-01,NaN,2,0,2,1
41,238,1,35,NaN,NaN,2,NaN,1.126389e+00,NaN,0,0,1,1
41,239,1,116,NaN,NaN,1,NaN,5.309263e-01,NaN,2,1,3,1
41,240,1,75,NaN,NaN,1,NaN,7.512572e-01,NaN,0,0,2,1
41,241,1,31,NaN,NaN,1,NaN,5.702745e-01,NaN,1,0,1,1
41,242,1,44,NaN,NaN,1,NaN,7.171690e-01,NaN,1,0,1,1
41,243,1,15,NaN,NaN,1,NaN,1.297730e+00,NaN,0,0,1,1
41,244,1,10,NaN,NaN,1,NaN,8.151047e-01,NaN,1,0,1,1
41,245,1,17,NaN,NaN,1,NaN,1.111879e+00,NaN,0,0,1,1
41,246,1,97,NaN,NaN,1,NaN,1.484910e+00,NaN,0,1,3,1
41,247,1,50,NaN,NaN,1,NaN,6.906133e-01,NaN,0,0,2,1
41,248,1,108,NaN,NaN,1,NaN,1.176625e+00,NaN,2,0,3,1
41,249,1,117,NaN,NaN,2,NaN,1.923261e+00,NaN,2,1,3,1
41,250,1,45,NaN,NaN,1,NaN,9.603511e-01,NaN,2,0,1,1
41,251,1,87,NaN,NaN,1,NaN,1.659569e+00,NaN,0,0,2,1
41,252,1,93,NaN,NaN,1,NaN,4.349859e-01,NaN,0,0,2,1
41,253,1,75,NaN,NaN,1,NaN,1.554802e+00,NaN,1,0,2,1
41,254,1,19,NaN,NaN,1,NaN,1.430615e+00,NaN,0,0,1,1
41,255,1,8,NaN,NaN,1,NaN,6.306950e-01,NaN,1,0,1,1
41,256,1,7,NaN,NaN,1,NaN,2.382442e+00,NaN,2,0,1,1
41,257,1,16,NaN,NaN,1,NaN,8.804433e-01,NaN,0,0,1,1
41,258,1,11,NaN,NaN,1,NaN,6.866141e-01,NaN,2,0,1,1
41,259,1,37,NaN,NaN,1,NaN,1.300598e+00,NaN,0,0,1,1
41,260,1,81,NaN,NaN,1,NaN,1.025847e+00,NaN,0,1,2,1
41,261,1,83,NaN,NaN,1,NaN,1.106902e+00,NaN,0,0,2,1
41,262,1,114,NaN,NaN,1,NaN,1.216016e+00,NaN,0,0,3,1
41,263,1,55,NaN,NaN,1,NaN,1.033205e+00,NaN,2,0,2,1
41,264,1,23,NaN,NaN,1,NaN,1.920817e+00,NaN,0,0,1,1
41,265,1,43,NaN,NaN,1,NaN,9.814255e-01,NaN,0,0,1,1
41,266,1,76,NaN,NaN,1,NaN,1.127592e+00,NaN,2,0,2,1
41,267,1,121,NaN,NaN,2,NaN,1.987705e+00,NaN,0,0,3,1
41,268,1,64,NaN,NaN,1,NaN,1.317630e+00,NaN,0,0,2,1
41,269,1,40,NaN,NaN,1,NaN,6.823818e-01,NaN,0,1,1,1
41,270,1,73,NaN,NaN,1,NaN,1.168378e+00,NaN,0,0,2,1
41,271,1,8,NaN,NaN,1,NaN,1.291136e+00,NaN,0,0,1,1
41,272,1,6,NaN,NaN,1,NaN,9.291133e-01,NaN,0,0,1,1
41,273,1,39,NaN,NaN,2,NaN,9.894693e-01,NaN,1,1,1,1
41,274,1,58,NaN,NaN,1,NaN,1.447263e+00,NaN,0,0,2,1
41,275,1,16,NaN,NaN,1,NaN,7.430203e-01,NaN,1,0,1,1
41,276,1,130,NaN,NaN,2,NaN,1.026723e+00,NaN,0,0,3,1
41,277,1,139,NaN,NaN,1,NaN,2.155426e+00,NaN,1,0,3,1
41,278,1,90,NaN,NaN,1,NaN,6.789582e-01,NaN,2,0,2,1
41,279,1,124,NaN,NaN,1,NaN,1.444803e+00,NaN,0,0,3,1
41,280,1,83,NaN,NaN,1,NaN,1.273816e-04,NaN,1,0,2,1
41,281,1,102,NaN,NaN,1,NaN,1.189914e+00,NaN,1,0,3,1
41,282,1,62,NaN,NaN,1,NaN,7.437209e-01,NaN,2,1,2,1
41,283,1,14,NaN,NaN,1,NaN,1.083674e+00,NaN,0,1,1,1
41,284,1,101,NaN,NaN,2,NaN,5.012889e-02,NaN,2,0,3,1
41,285,1,111,NaN,NaN,1,NaN,1.785190e+00,NaN,0,0,3,1
41,286,1,59,NaN,NaN,1,NaN,8.190046e-01,NaN,2,0,2,1
41,287,1,127,NaN,NaN,1,NaN,5.960364e-01,NaN,2,0,3,1
41,288,1,42,NaN,NaN,1,NaN,3.732547e-01,NaN,1,1,1,1
41,342,2,28,33,2,2,1,1.776423e+00,NaN,1,0,1,1
41,343,2,128,66,1,1,1,1.431187e+00,NaN,1,1,3,1
41,344,2,35,17,1,2,0,1.731367e+00,NaN,1,0,1,1
41,345,2,49,51,1,1,1,1.115137e+00,NaN,1,1,2,1
41,346,2,102,64,2,2,1,1.188131e+00,NaN,1,0,3,1
41,347,2,70,10,2,2,1,9.864157e-01,NaN,1,1,2,1
41,348,2,139,22,1,1,1,1.848320e+00,NaN,1,0,3,1
41,349,2,112,24,2,2,1,1.147657e+00,NaN,1,0,3,1
41,350,2,83,45,1,1,1,8.910788e-01,NaN,1,0,2,1
41,351,2,126,36,1,1,1,1.525430e+00,NaN,1,0,3,1
41,352,2,37,57,2,1,0,1.821890e+00,NaN,1,0,1,1
41,353,2,15,68,2,2,1,1.962876e+00,NaN,1,0,1,1
41,354,2,122,56,2,2,1,1.554578e+00,NaN,1,0,3,1
41,355,2,6,26,1,1,1,1.200928e+00,NaN,1,0,1,1
41,356,2,96,37,2,2,1,6.227787e-01,NaN,1,0,2,1
41,357,2,141,41,2,2,1,1.707125e+00,NaN,1,0,3,1
41,358,2,95,3,2,2,1,1.364876e+00,NaN,1,0,2,1
41,359,2,98,50,1,1,1,1.235248e+00,NaN,1,0,3,1
41,360,2,105,30,1,1,1,2.359512e+00,NaN,1,0,3,1
41,361,2,89,12,2,2,1,1.622887e+00,NaN,1,0,2,1
41,362,2,42,21,1,1,1,1.467698e+00,NaN,1,1,1,1
41,363,2,44,70,2,2,1,1.206546e+00,NaN,1,0,1,1
41,364,2,31,58,1,1,1,2.259893e+00,NaN,1,0,1,1
41,365,2,16,54,2,2,1,1.839076e+00,NaN,1,0,1,1
41,366,3,139,22,1,1,1,1.725783e+00,NaN,1,0,3,1
41,367,3,98,50,1,1,1,1.238208e+00,NaN,1,0,3,1
41,368,3,37,57,1,1,1,1.810849e+00,NaN,1,0,1,1
41,369,3,112,24,1,1,1,1.071598e+00,NaN,1,0,3,1
41,370,3,70,10,2,2,1,6.749445e-01,NaN,1,1,2,1
41,371,3,83,45,1,1,1,5.976093e-01,NaN,1,0,2,1
41,372,3,128,66,1,1,1,7.868287e-01,NaN,1,1,3,1
41,373,3,141,41,1,1,1,1.808778e+00,NaN,1,0,3,1
41,374,3,89,12,2,2,1,7.348307e-01,NaN,1,0,2,1
41,375,3,95,3,2,2,1,8.066761e-01,NaN,1,0,2,1
41,376,3,6,26,1,1,1,1.188054e+00,NaN,1,0,1,1
41,377,3,16,54,1,1,1,1.065857e+00,NaN,1,0,1,1
41,378,3,15,68,1,2,0,1.108542e+00,NaN,1,0,1,1
41,379,3,42,21,1,1,1,8.223512e-01,NaN,1,1,1,1
41,380,3,105,30,2,2,1,2.106957e+00,NaN,1,0,3,1
41,381,3,126,36,2,2,1,1.548186e+00,NaN,1,0,3,1
41,382,3,28,33,2,2,1,7.076118e-01,NaN,1,0,1,1
41,383,3,44,70,1,1,1,1.398082e+00,NaN,1,0,1,1
41,384,3,102,64,1,1,1,9.627786e-01,NaN,1,0,3,1
41,385,3,35,17,2,2,1,8.651216e-01,NaN,1,0,1,1
41,386,3,49,51,1,1,1,7.402152e-01,NaN,1,1,2,1
41,387,3,31,58,1,1,1,1.252059e+00,NaN,1,0,1,1
41,388,3,96,37,1,1,1,1.047442e+00,NaN,1,0,2,1
41,389,3,122,56,1,1,1,1.379135e+00,NaN,1,0,3,1
41,414,2,132,65,2,2,1,1.555893e+00,NaN,1,0,3,2
41,415,2,4,48,1,1,1,1.475405e+00,NaN,1,0,1,2
41,416,2,64,59,2,2,1,1.838087e+00,NaN,1,0,2,2
41,417,2,138,42,2,2,1,1.898429e+00,NaN,1,1,3,2
41,418,2,142,7,2,2,1,1.988013e+00,NaN,1,0,3,2
41,419,2,58,46,2,2,1,1.561888e+00,NaN,1,0,2,2
41,420,2,120,9,2,2,1,2.288501e+00,NaN,1,0,3,2
41,421,2,111,8,2,2,1,2.394572e+00,NaN,1,0,3,2
41,422,2,8,19,1,1,1,1.688602e+00,NaN,1,0,1,2
41,423,2,38,52,2,2,1,2.098946e+00,NaN,1,0,1,2
41,424,2,143,5,1,1,1,2.060427e+00,NaN,1,1,3,2
41,425,2,73,40,2,2,1,1.608224e+00,NaN,1,0,2,2
41,426,2,54,2,2,2,1,8.777336e-01,NaN,1,0,2,2
41,427,2,48,49,1,1,1,1.768302e+00,NaN,1,0,1,2
41,428,2,13,35,1,1,1,1.126632e+00,NaN,1,0,1,2
41,429,2,92,4,2,2,1,9.998925e-01,NaN,1,1,2,2
41,430,2,17,28,2,2,1,2.229093e+00,NaN,1,0,1,2
41,431,2,84,44,2,2,1,1.081010e+00,NaN,1,0,2,2
41,432,2,53,11,2,2,1,1.619377e+00,NaN,1,0,2,2
41,433,2,29,25,1,2,0,2.736105e+00,NaN,1,0,1,2
41,434,2,52,27,2,2,1,9.998765e-01,NaN,1,0,2,2
41,435,2,107,38,1,1,1,2.493566e+00,NaN,1,0,3,2
41,436,2,14,72,1,2,0,3.263714e+00,NaN,1,1,1,2
41,437,2,114,63,2,2,1,1.106651e+00,NaN,1,0,3,2
41,438,3,84,44,1,1,1,1.018705e+00,NaN,1,0,2,2
41,439,3,48,49,2,2,1,9.194972e-01,NaN,1,0,1,2
41,440,3,64,59,2,2,1,6.968426e-01,NaN,1,0,2,2
41,441,3,14,72,1,1,1,1.385369e+00,NaN,1,1,1,2
41,442,3,143,5,1,1,1,8.634587e-01,NaN,1,1,3,2
41,443,3,120,9,2,2,1,1.410504e+00,NaN,1,0,3,2
41,444,3,53,11,1,1,1,1.103523e+00,NaN,1,0,2,2
41,445,3,29,25,1,1,1,2.377032e+00,NaN,1,0,1,2
41,446,3,92,4,2,2,1,5.920948e-01,NaN,1,1,2,2
41,447,3,114,63,2,2,1,7.661162e-01,NaN,1,0,3,2
41,448,3,111,8,2,2,1,1.276637e+00,NaN,1,0,3,2
41,449,3,4,48,2,2,1,1.087804e+00,NaN,1,0,1,2
41,450,3,38,52,1,1,1,1.025842e+00,NaN,1,0,1,2
41,451,3,58,46,2,2,1,8.383657e-01,NaN,1,0,2,2
41,452,3,132,65,1,1,1,1.042923e+00,NaN,1,0,3,2
41,453,3,8,19,2,2,1,1.030846e+00,NaN,1,0,1,2
41,454,3,17,28,1,1,1,1.338416e+00,NaN,1,0,1,2
41,455,3,142,7,1,1,1,1.050549e+00,NaN,1,0,3,2
41,456,3,54,2,2,2,1,5.821901e-01,NaN,1,0,2,2
41,457,3,73,40,1,1,1,6.445422e-01,NaN,1,0,2,2
41,458,3,13,35,2,2,1,8.163519e-01,NaN,1,0,1,2
41,459,3,138,42,1,1,1,8.130454e-01,NaN,1,1,3,2
41,460,3,107,38,2,2,1,1.585958e+00,NaN,1,0,3,2
41,461,3,52,27,2,2,1,6.398629e-01,NaN,1,0,2,2
41,486,2,77,69,2,2,1,8.667954e-01,NaN,1,1,2,3
41,487,2,129,18,1,1,1,1.749762e+00,NaN,1,1,3,3
41,488,2,78,53,2,2,1,8.931691e-01,NaN,1,0,2,3
41,489,2,97,16,2,2,1,1.423115e+00,NaN,1,1,3,3
41,490,2,94,67,2,2,1,8.678844e-01,NaN,1,1,2,3
41,491,2,109,47,2,2,1,9.507815e-01,NaN,1,0,3,3
41,492,2,10,71,1,1,1,8.461858e-01,NaN,1,0,1,3
41,493,2,134,39,2,2,1,1.649796e+00,NaN,1,1,3,3
41,494,2,60,29,2,2,1,1.140957e+00,NaN,1,0,2,3
41,495,2,39,13,1,1,1,1.525243e+00,NaN,1,1,1,3
41,496,2,46,1,1,1,1,1.622753e+00,NaN,1,0,1,3
41,497,2,125,6,2,2,1,2.274475e+00,NaN,1,0,3,3
41,498,2,81,60,2,2,1,6.533041e-01,NaN,1,1,2,3
41,499,2,75,23,2,2,1,8.971538e-01,NaN,1,0,2,3
41,500,2,57,14,2,2,1,9.221614e-01,NaN,1,1,2,3
41,501,2,19,43,1,1,1,1.410964e+00,NaN,1,0,1,3
41,502,2,87,15,2,2,1,8.403957e-01,NaN,1,0,2,3
41,503,2,115,31,2,2,1,1.604473e+00,NaN,1,0,3,3
41,504,2,66,55,2,2,1,1.585883e+00,NaN,1,0,2,3
41,505,2,71,32,2,2,1,1.264244e+00,NaN,1,1,2,3
41,506,2,23,20,2,2,1,1.787140e+00,NaN,1,0,1,3
41,507,2,3,34,1,1,1,1.624710e+00,NaN,1,0,1,3
41,508,2,144,62,1,2,0,1.909447e+00,NaN,1,1,3,3
41,509,2,41,61,1,1,1,1.519386e+00,NaN,1,0,1,3
41,510,3,75,23,1,1,1,9.266855e-01,NaN,1,0,2,3
41,511,3,129,18,2,2,1,9.189476e-01,NaN,1,1,3,3
41,512,3,97,16,2,2,1,7.992562e-01,NaN,1,1,3,3
41,513,3,81,60,1,1,1,6.131167e-01,NaN,1,1,2,3
41,514,3,23,20,1,1,1,9.936255e-01,NaN,1,0,1,3
41,515,3,71,32,2,2,1,8.320229e-01,NaN,1,1,2,3
41,516,3,77,69,1,1,1,9.961499e-01,NaN,1,1,2,3
41,517,3,60,29,2,2,1,8.974530e-01,NaN,1,0,2,3
41,518,3,125,6,1,1,1,1.322570e+00,NaN,1,0,3,3
41,519,3,94,67,1,1,1,7.393531e-01,NaN,1,1,2,3
41,520,3,109,47,2,2,1,6.836958e-01,NaN,1,0,3,3
41,521,3,19,43,1,1,1,1.445536e+00,NaN,1,0,1,3
41,522,3,134,39,2,2,1,8.090353e-01,NaN,1,1,3,3
41,523,3,144,62,2,2,1,1.502686e+00,NaN,1,1,3,3
41,524,3,57,14,1,1,1,5.603239e-01,NaN,1,1,2,3
41,525,3,3,34,1,1,1,5.755029e-01,NaN,1,0,1,3
41,526,3,87,15,1,1,1,9.662294e-01,NaN,1,0,2,3
41,527,3,66,55,1,1,1,1.012967e+00,NaN,1,0,2,3
41,528,3,39,13,1,1,1,7.538015e-01,NaN,1,1,1,3
41,529,3,78,53,2,2,1,1.816939e+00,NaN,1,0,2,3
41,530,3,41,61,1,1,1,5.980854e-01,NaN,1,0,1,3
41,531,3,115,31,2,2,1,1.539410e+00,NaN,1,0,3,3
41,532,3,46,1,1,1,1,1.371525e+00,NaN,1,0,1,3
41,533,3,10,71,2,2,1,6.263846e-01,NaN,1,0,1,3
41,558,4,90,28,2,2,1,1.623979e+00,NaN,2,0,2,1
41,559,4,72,43,1,1,1,6.529551e-01,NaN,2,0,2,1
41,560,4,5,12,2,2,1,1.136145e+00,NaN,2,0,1,1
41,561,4,91,61,1,1,1,7.682129e-01,NaN,2,0,2,1
41,562,4,63,66,2,2,1,1.022842e+00,NaN,2,1,2,1
41,563,4,79,52,1,1,1,1.619926e+00,NaN,2,0,2,1
41,564,4,140,21,1,1,1,1.672436e+00,NaN,2,1,3,1
41,565,4,47,9,2,2,1,1.451534e+00,NaN,2,0,1,1
41,566,4,121,54,2,2,1,1.862521e+00,NaN,2,0,3,1
41,567,4,56,31,2,2,1,1.041414e+00,NaN,2,0,2,1
41,568,4,50,36,2,2,1,1.573386e+00,NaN,2,0,2,1
41,569,4,2,44,1,1,1,1.780077e+00,NaN,2,0,1,1
41,570,4,124,33,2,2,1,1.642101e+00,NaN,2,0,3,1
41,571,4,131,25,2,2,1,1.310624e+00,NaN,2,0,3,1
41,572,4,33,22,1,1,1,1.256158e+00,NaN,2,0,1,1
41,573,4,65,64,1,1,1,1.459174e+00,NaN,2,0,2,1
41,574,4,27,30,2,2,1,1.270740e+00,NaN,2,0,1,1
41,575,4,104,55,2,2,1,1.585515e+00,NaN,2,0,3,1
41,576,4,12,15,1,1,1,1.287807e+00,NaN,2,0,1,1
41,577,4,101,29,2,2,1,1.570453e+00,NaN,2,0,3,1
41,578,4,85,13,1,1,1,7.604782e-01,NaN,2,1,2,1
41,579,4,36,62,1,1,1,1.880058e+00,NaN,2,1,1,1
41,580,4,74,26,2,1,0,1.313828e+00,NaN,2,0,2,1
41,581,4,110,53,1,1,1,1.306659e+00,NaN,2,0,3,1
41,606,4,30,39,2,2,1,8.221638e-01,NaN,2,1,1,2
41,607,4,55,7,2,2,1,9.154373e-01,NaN,2,0,2,2
41,608,4,34,38,2,2,1,1.483831e+00,NaN,2,0,1,2
41,609,4,123,58,1,1,1,8.937800e-01,NaN,2,0,3,2
41,610,4,69,63,1,1,1,6.960297e-01,NaN,2,0,2,2
41,611,4,108,59,2,2,1,1.977216e+00,NaN,2,0,3,2
41,612,4,45,24,2,2,1,2.024280e+00,NaN,2,0,1,2
41,613,4,82,19,2,2,1,7.248693e-01,NaN,2,0,2,2
41,614,4,32,65,1,1,1,1.949492e+00,NaN,2,0,1,2
41,615,4,61,6,2,2,1,2.044968e+00,NaN,2,0,2,2
41,616,4,136,17,1,1,1,1.368698e+00,NaN,2,0,3,2
41,617,4,93,49,1,1,1,1.175324e+00,NaN,2,0,2,2
41,618,4,80,70,2,2,1,7.900606e-01,NaN,2,0,2,2
41,619,4,7,27,1,1,1,1.652239e+00,NaN,2,0,1,2
41,620,4,127,71,2,2,1,1.679508e+00,NaN,2,0,3,2
41,621,4,25,18,1,1,1,1.441795e+00,NaN,2,1,1,2
41,622,4,67,41,2,2,1,1.805714e+00,NaN,2,0,2,2
41,623,4,1,46,2,2,1,1.867452e+00,NaN,2,0,1,2
41,624,4,11,37,2,2,1,1.318156e+00,NaN,2,0,1,2
41,625,4,9,40,1,1,1,1.502805e+00,NaN,2,0,1,2
41,626,4,119,35,2,2,1,1.000176e+00,NaN,2,0,3,2
41,627,4,106,69,1,1,1,1.813805e+00,NaN,2,1,3,2
41,628,4,135,34,2,2,1,6.343961e-01,NaN,2,0,3,2
41,629,4,133,48,2,2,1,1.526924e+00,NaN,2,0,3,2
41,654,4,24,3,1,1,1,1.194399e+00,NaN,2,0,1,3
41,655,4,68,47,1,1,1,5.914908e-01,NaN,2,0,2,3
41,656,4,99,11,1,1,1,1.669708e+00,NaN,2,0,3,3
41,657,4,51,8,1,1,1,1.640763e+00,NaN,2,0,2,3
41,658,4,62,5,2,2,1,1.388865e+00,NaN,2,1,2,3
41,659,4,59,50,2,2,1,1.802888e+00,NaN,2,0,2,3
41,660,4,103,14,2,2,1,1.688349e+00,NaN,2,1,3,3
41,661,4,76,68,2,2,1,7.542392e-01,NaN,2,0,2,3
41,662,4,100,10,1,1,1,2.241457e+00,NaN,2,1,3,3
41,663,4,88,72,1,1,1,1.669704e+00,NaN,2,1,2,3
41,664,4,26,16,2,2,1,8.167202e-01,NaN,2,1,1,3
41,665,4,117,60,1,1,1,1.869288e+00,NaN,2,1,3,3
41,666,4,43,56,1,1,1,1.648250e+00,NaN,2,0,1,3
41,667,4,118,4,1,1,1,1.291760e+00,NaN,2,1,3,3
41,668,4,86,20,1,1,1,1.525696e+00,NaN,2,0,2,3
41,669,4,20,2,2,2,1,1.479173e+00,NaN,2,0,1,3
41,670,4,40,42,1,1,1,1.280248e+00,NaN,2,1,1,3
41,671,4,18,45,1,1,1,1.090273e+00,NaN,2,0,1,3
41,672,4,113,51,2,2,1,1.132718e+00,NaN,2,1,3,3
41,673,4,130,1,1,1,1,1.404876e+00,NaN,2,0,3,3
41,674,4,22,23,1,1,1,1.546315e+00,NaN,2,0,1,3
41,675,4,137,57,1,1,1,1.297615e+00,NaN,2,0,3,3
41,676,4,21,67,2,2,1,1.282961e+00,NaN,2,1,1,3
41,677,4,116,32,1,1,1,1.332859e+00,NaN,2,1,3,3
41,678,5,4.191000e+01,61,1,0,0,2.500405e+00,1,1,0,1.200000e+00,1
41,679,5,1.115100e+02,8,3,3,1,1.525593e+00,1,1,0,3.200000e+00,1
41,680,5,1.096800e+02,47,3,1,0,9.918455e-01,1,1,0,3.200000e+00,1
41,681,5,8.820000e+00,19,1,2,0,5.529280e-01,1,1,0,1.200000e+00,1
41,682,5,6.101000e+01,29,2,2,1,1.470020e-04,1,1,0,2.300000e+00,1
41,683,5,1.790000e+01,28,1,1,1,4.357426e-01,1,1,0,1.200000e+00,1
41,684,5,2.386000e+01,20,1,1,1,6.289525e-01,1,1,0,1.200000e+00,1
41,685,5,2.924000e+01,33,1,1,1,4.386202e-01,1,1,0,1.300000e+00,1
41,686,5,6.704000e+01,55,2,2,1,3.281978e-01,1,1,0,2.300000e+00,1
41,687,5,1.115100e+02,8,3,3,1,5.054717e-01,2,1,0,3.200000e+00,1
41,688,5,1.790000e+01,28,1,1,1,4.270390e-01,2,1,0,1.200000e+00,1
41,689,5,9.524000e+01,3,2,2,1,5.089345e-01,1,1,0,2.100000e+00,1
41,690,5,1.425500e+02,7,3,3,1,4.550494e-01,1,1,0,3.200000e+00,1
41,691,5,3.837000e+01,57,1,1,1,5.043530e-01,1,1,0,1.300000e+00,1
41,692,5,7.910000e+01,53,2,2,1,1.146086e+00,1,1,0,2.300000e+00,1
41,693,5,5.399000e+01,11,2,2,1,4.031432e-01,1,1,0,2.300000e+00,1
41,694,5,1.425500e+02,7,3,3,1,4.925627e-01,2,1,0,3.200000e+00,1
41,695,5,1.073400e+02,38,3,3,1,5.352056e-01,1,1,0,3.100000e+00,1
41,696,5,1.265000e+02,36,3,3,1,3.526137e-01,1,1,0,3.200000e+00,1
41,697,5,1.224300e+02,56,3,1,0,6.096149e-01,1,1,0,3.100000e+00,1
41,698,5,7.910000e+01,53,2,2,1,5.718782e-01,2,1,0,2.300000e+00,1
41,699,5,1.204700e+02,9,3,3,1,5.735206e-01,1,1,0,3.100000e+00,1
41,700,5,1.256100e+02,6,3,0,0,2.500313e+00,1,1,0,3.200000e+00,1
41,701,5,1.096800e+02,47,3,1,0,6.965082e-01,2,1,0,3.200000e+00,1
41,702,5,1.026500e+02,64,3,3,1,5.059320e-01,1,1,0,3.200000e+00,1
41,703,5,8.402000e+01,44,2,2,1,8.433816e-01,1,1,0,2.100000e+00,1
41,704,5,1.224300e+02,56,3,3,1,4.457674e-01,2,1,0,3.100000e+00,1
41,705,5,1.416700e+02,41,3,2,0,1.271174e+00,1,1,0,3.200000e+00,1
41,706,5,7.522000e+01,23,2,2,1,1.376384e+00,1,1,0,2.100000e+00,1
41,707,5,4.730000e+01,1,1,1,1,3.539383e-01,1,1,0,1.300000e+00,1
41,708,5,6.508000e+01,59,2,3,0,6.834522e-01,1,1,0,2.300000e+00,1
41,709,5,5.420000e+01,2,2,2,1,1.068657e+00,1,1,0,2.100000e+00,1
41,710,5,1.256100e+02,6,3,3,1,4.782159e-01,2,1,0,3.200000e+00,1
41,711,5,3.636000e+01,17,1,1,1,6.236079e-01,1,1,0,1.300000e+00,1
41,712,5,5.330000e+00,48,1,1,1,6.653202e-01,1,1,0,1.300000e+00,1
41,713,5,5.330000e+00,48,1,1,1,4.824805e-01,2,1,0,1.300000e+00,1
41,714,5,9.524000e+01,3,2,2,1,5.961478e-01,2,1,0,2.100000e+00,1
41,715,5,4.893000e+01,49,1,1,1,7.176016e-01,1,1,0,1.200000e+00,1
41,716,5,8.905000e+01,12,2,2,1,4.867013e-01,1,1,0,2.100000e+00,1
41,717,5,5.330000e+00,48,1,1,1,4.083344e-01,3,1,0,1.300000e+00,1
41,718,5,1.416700e+02,41,3,3,1,4.980627e-01,2,1,0,3.200000e+00,1
41,719,5,4.480000e+01,70,1,1,1,5.955329e-01,1,1,0,1.200000e+00,1
41,720,5,8.712000e+01,15,2,2,1,5.248029e-01,1,1,0,2.100000e+00,1
41,721,5,3.223000e+01,58,1,1,1,4.863997e-01,1,1,0,1.300000e+00,1
41,722,5,5.801000e+01,46,2,3,0,1.607929e+00,1,1,0,2.100000e+00,1
41,723,5,8.318000e+01,45,2,2,1,4.978424e-01,1,1,0,2.100000e+00,1
41,724,5,9.611000e+01,37,2,2,1,1.027319e+00,1,1,0,2.100000e+00,1
41,725,5,5.801000e+01,46,2,3,0,3.253483e-01,2,1,0,2.100000e+00,1
41,726,5,6.740000e+00,26,1,1,1,3.436436e-01,1,1,0,1.200000e+00,1
41,727,5,1.576000e+01,68,1,1,1,3.767713e-01,1,1,0,1.200000e+00,1
41,728,5,4.480000e+01,70,1,1,1,4.189563e-01,2,1,0,1.200000e+00,1
41,729,5,1.155600e+02,31,3,3,1,1.204495e+00,1,1,0,3.200000e+00,1
41,730,5,3.636000e+01,17,1,1,1,5.260752e-01,2,1,0,1.300000e+00,1
41,731,5,6.101000e+01,29,2,2,1,4.801197e-01,2,1,0,2.300000e+00,1
41,732,5,1.425500e+02,7,3,3,1,4.412176e-01,3,1,0,3.200000e+00,1
41,733,5,8.712000e+01,15,2,2,1,4.269454e-01,2,1,0,2.100000e+00,1
41,734,5,1.155600e+02,31,3,3,1,5.247830e-01,2,1,0,3.200000e+00,1
41,735,5,1.115100e+02,8,3,3,1,4.379709e-01,3,1,0,3.200000e+00,1
41,736,5,8.905000e+01,12,2,2,1,4.074014e-01,2,1,0,2.100000e+00,1
41,737,5,5.399000e+01,11,2,2,1,5.770457e-01,2,1,0,2.300000e+00,1
41,738,5,1.127000e+01,71,1,1,1,4.431655e-01,1,1,0,1.300000e+00,1
41,739,5,4.730000e+01,1,1,1,1,5.254090e-01,2,1,0,1.300000e+00,1
41,740,5,4.191000e+01,61,1,2,0,8.394835e-01,2,1,0,1.200000e+00,1
41,741,5,1.419000e+01,35,1,1,1,4.329115e-01,1,1,0,1.300000e+00,1
41,742,5,7.522000e+01,23,2,2,1,4.020242e-01,2,1,0,2.100000e+00,1
41,743,5,3.879000e+01,52,1,1,1,5.235686e-01,1,1,0,1.200000e+00,1
41,744,5,6.704000e+01,55,2,2,1,8.290080e-01,2,1,0,2.300000e+00,1
41,745,5,8.712000e+01,15,2,2,1,4.789377e-01,3,1,0,2.100000e+00,1
41,746,5,1.393300e+02,22,3,1,0,1.031807e+00,1,1,0,3.100000e+00,1
41,747,5,1.265000e+02,36,3,3,1,3.691583e-01,2,1,0,3.200000e+00,1
41,748,5,1.146900e+02,63,3,3,1,6.428449e-01,1,1,0,3.200000e+00,1
41,749,5,5.207000e+01,27,2,2,1,4.687200e-01,1,1,0,2.100000e+00,1
41,750,5,1.146900e+02,63,3,3,1,4.063606e-01,2,1,0,3.200000e+00,1
41,751,5,8.712000e+01,15,2,2,1,3.835183e-01,4,1,0,2.100000e+00,1
41,752,5,1.224300e+02,56,3,3,1,4.009949e-01,3,1,0,3.100000e+00,1
41,753,5,4.480000e+01,70,1,1,1,4.424833e-01,3,1,0,1.200000e+00,1
41,754,5,8.905000e+01,12,2,2,1,4.044550e-01,3,1,0,2.100000e+00,1
41,755,5,1.052700e+02,30,3,3,1,1.277904e+00,1,1,0,3.100000e+00,1
41,756,5,2.386000e+01,20,1,1,1,4.153130e-01,2,1,0,1.200000e+00,1
41,757,5,9.611000e+01,37,2,2,1,4.246266e-01,2,1,0,2.100000e+00,1
41,758,5,4.893000e+01,49,1,3,0,6.345153e-01,2,1,0,1.200000e+00,1
41,759,5,4.893000e+01,49,1,1,1,5.396395e-01,3,1,0,1.200000e+00,1
41,760,5,1.127000e+01,71,1,1,1,3.892495e-01,2,1,0,1.300000e+00,1
41,761,5,1.323200e+02,65,3,3,1,4.544940e-01,1,1,0,3.100000e+00,1
41,762,5,6.704000e+01,55,2,2,1,7.117831e-01,3,1,0,2.300000e+00,1
41,763,5,3.879000e+01,52,1,1,1,3.772902e-01,2,1,0,1.200000e+00,1
41,764,5,9.611000e+01,37,2,2,1,4.434571e-01,3,1,0,2.100000e+00,1
41,765,5,1.576000e+01,68,1,1,1,4.295857e-01,2,1,0,1.200000e+00,1
41,766,5,1.224300e+02,56,3,3,1,5.032319e-01,4,1,0,3.100000e+00,1
41,767,5,8.402000e+01,44,2,2,1,7.285332e-01,2,1,0,2.100000e+00,1
41,768,5,1.393300e+02,22,3,1,0,4.977364e-01,2,1,0,3.100000e+00,1
41,769,5,1.419000e+01,35,1,1,1,5.633648e-01,2,1,0,1.300000e+00,1
41,770,5,1.576000e+01,68,1,1,1,3.965311e-01,3,1,0,1.200000e+00,1
41,771,5,6.740000e+00,26,1,1,1,3.983531e-01,2,1,0,1.200000e+00,1
41,772,5,5.420000e+01,2,2,2,1,4.715764e-01,2,1,0,2.100000e+00,1
41,773,5,8.402000e+01,44,2,1,0,6.969299e-01,3,1,0,2.100000e+00,1
41,774,5,2.386000e+01,20,1,1,1,4.184794e-01,3,1,0,1.200000e+00,1
41,775,5,6.508000e+01,59,2,2,1,1.059605e+00,2,1,0,2.300000e+00,1
41,776,5,9.859000e+01,50,3,3,1,1.398137e+00,1,1,0,3.200000e+00,1
41,777,5,3.837000e+01,57,1,1,1,4.793965e-01,2,1,0,1.300000e+00,1
41,778,5,9.611000e+01,37,2,2,1,5.129111e-01,4,1,0,2.100000e+00,1
41,779,5,1.073400e+02,38,3,3,1,4.344018e-01,2,1,0,3.100000e+00,1
41,780,5,1.416700e+02,41,3,3,1,4.034305e-01,3,1,0,3.200000e+00,1
41,781,5,3.636000e+01,17,1,1,1,4.447417e-01,3,1,0,1.300000e+00,1
41,782,5,1.124500e+02,24,3,3,1,4.141535e-01,1,1,0,3.100000e+00,1
41,783,5,6.508000e+01,59,2,3,0,5.596692e-01,3,1,0,2.300000e+00,1
41,784,5,3.636000e+01,17,1,1,1,4.178367e-01,4,1,0,1.300000e+00,1
41,785,5,1.323200e+02,65,3,3,1,7.151325e-01,2,1,0,3.100000e+00,1
41,786,5,8.820000e+00,19,1,1,1,1.140611e+00,2,1,0,1.200000e+00,1
41,787,5,1.790000e+01,28,1,1,1,4.463600e-01,3,1,0,1.200000e+00,1
41,788,5,1.127000e+01,71,1,1,1,5.354399e-01,3,1,0,1.300000e+00,1
41,789,5,5.207000e+01,27,2,2,1,3.851794e-01,2,1,0,2.100000e+00,1
41,790,5,5.330000e+00,48,1,1,1,9.624707e-01,4,1,0,1.300000e+00,1
41,791,5,4.350000e+00,34,1,1,1,4.919276e-01,1,1,0,1.300000e+00,1
41,792,5,1.416700e+02,41,3,3,1,5.099481e-01,4,1,0,3.200000e+00,1
41,793,5,6.740000e+00,26,1,1,1,3.603001e-01,3,1,0,1.200000e+00,1
41,794,5,5.801000e+01,46,2,2,1,8.899242e-01,3,1,0,2.100000e+00,1
41,795,5,4.191000e+01,61,1,1,1,3.551016e-01,3,1,0,1.200000e+00,1
41,796,5,7.522000e+01,23,2,2,1,4.768341e-01,3,1,0,2.100000e+00,1
41,797,5,1.124500e+02,24,3,3,1,3.270979e-01,2,1,0,3.100000e+00,1
41,798,5,4.191000e+01,61,1,1,1,4.889878e-01,4,1,0,1.200000e+00,1
41,799,5,8.905000e+01,12,2,2,1,2.906139e-01,4,1,0,2.100000e+00,1
41,800,5,3.223000e+01,58,1,1,1,3.796929e-01,2,1,0,1.300000e+00,1
41,801,5,1.972000e+01,43,1,2,0,4.054029e-01,1,1,0,1.200000e+00,1
41,802,5,1.026500e+02,64,3,3,1,5.589412e-01,2,1,0,3.200000e+00,1
41,803,5,4.350000e+00,34,1,1,1,4.250978e-01,2,1,0,1.300000e+00,1
41,804,5,1.972000e+01,43,1,1,1,4.507637e-01,2,1,0,1.200000e+00,1
41,805,5,2.386000e+01,20,1,1,1,4.764531e-01,4,1,0,1.200000e+00,1
41,806,5,7.309000e+01,40,2,2,1,4.862564e-01,1,1,0,2.100000e+00,1
41,807,5,1.265000e+02,36,3,3,1,6.078083e-01,3,1,0,3.200000e+00,1
41,808,5,9.524000e+01,3,2,2,1,5.450197e-01,3,1,0,2.100000e+00,1
41,809,5,7.522000e+01,23,2,2,1,3.148427e-01,4,1,0,2.100000e+00,1
41,810,5,1.204700e+02,9,3,3,1,5.322318e-01,2,1,0,3.100000e+00,1
41,811,5,4.730000e+01,1,1,1,1,4.860010e-01,3,1,0,1.300000e+00,1
41,812,5,4.730000e+01,1,1,1,1,5.748962e-01,4,1,0,1.300000e+00,1
41,813,5,8.820000e+00,19,1,1,1,5.763236e-01,3,1,0,1.200000e+00,1
41,814,5,7.910000e+01,53,2,2,1,6.585811e-01,3,1,0,2.300000e+00,1
41,815,5,1.256100e+02,6,3,3,1,5.403489e-01,3,1,0,3.200000e+00,1
41,816,5,8.318000e+01,45,2,2,1,4.460780e-01,2,1,0,2.100000e+00,1
41,817,5,3.223000e+01,58,1,1,1,6.071925e-01,3,1,0,1.300000e+00,1
41,818,5,1.155600e+02,31,3,3,1,4.649009e-01,3,1,0,3.200000e+00,1
41,819,5,5.420000e+01,2,2,2,1,5.620807e-01,3,1,0,2.100000e+00,1
41,820,5,1.052700e+02,30,3,3,1,4.914757e-01,2,1,0,3.100000e+00,1
41,821,5,1.419000e+01,35,1,1,1,4.452217e-01,3,1,0,1.300000e+00,1
41,822,5,3.223000e+01,58,1,1,1,3.423215e-01,4,1,0,1.300000e+00,1
41,823,5,1.052700e+02,30,3,3,1,5.763538e-01,3,1,0,3.100000e+00,1
41,824,5,7.910000e+01,53,2,2,1,3.953098e-01,4,1,0,2.300000e+00,1
41,825,5,1.096800e+02,47,3,3,1,6.277263e-01,3,1,0,3.200000e+00,1
41,826,5,1.124500e+02,24,3,3,1,5.253426e-01,3,1,0,3.100000e+00,1
41,827,5,1.972000e+01,43,1,1,1,4.236368e-01,3,1,0,1.200000e+00,1
41,828,5,1.026500e+02,64,3,3,1,4.010984e-01,3,1,0,3.200000e+00,1
41,829,5,1.425500e+02,7,3,3,1,6.506505e-01,4,1,0,3.200000e+00,1
41,830,5,1.323200e+02,65,3,3,1,4.114686e-01,3,1,0,3.100000e+00,1
41,831,5,4.350000e+00,34,1,1,1,4.050207e-01,3,1,0,1.300000e+00,1
41,832,5,1.393300e+02,22,3,1,0,5.027915e-01,3,1,0,3.100000e+00,1
41,833,5,1.721000e+01,54,1,2,0,8.719836e-01,1,1,0,1.300000e+00,1
41,834,5,2.924000e+01,33,1,1,1,3.372751e-01,2,1,0,1.300000e+00,1
41,835,5,1.124500e+02,24,3,3,1,3.951610e-01,4,1,0,3.100000e+00,1
41,836,5,3.837000e+01,57,1,1,1,4.120635e-01,3,1,0,1.300000e+00,1
41,837,5,1.204700e+02,9,3,3,1,4.858489e-01,3,1,0,3.100000e+00,1
41,838,5,3.879000e+01,52,1,1,1,6.470207e-01,3,1,0,1.200000e+00,1
41,839,5,1.323200e+02,65,3,3,1,4.566881e-01,4,1,0,3.100000e+00,1
41,840,5,7.309000e+01,40,2,2,1,4.418642e-01,2,1,0,2.100000e+00,1
41,841,5,1.256100e+02,6,3,3,1,4.032519e-01,4,1,0,3.200000e+00,1
41,842,5,5.399000e+01,11,2,2,1,6.206639e-01,3,1,0,2.300000e+00,1
41,843,5,8.318000e+01,45,2,2,1,5.181126e-01,3,1,0,2.100000e+00,1
41,844,5,3.879000e+01,52,1,1,1,6.797859e-01,4,1,0,1.200000e+00,1
41,845,5,2.924000e+01,33,1,1,1,3.854465e-01,3,1,0,1.300000e+00,1
41,846,5,1.155600e+02,31,3,3,1,4.587848e-01,4,1,0,3.200000e+00,1
41,847,5,3.031000e+01,25,1,1,1,5.245973e-01,1,1,0,1.300000e+00,1
41,848,5,1.972000e+01,43,1,1,1,4.378450e-01,4,1,0,1.200000e+00,1
41,849,5,1.026500e+02,64,3,3,1,9.197230e-01,4,1,0,3.200000e+00,1
41,850,5,1.073400e+02,38,3,3,1,6.091075e-01,3,1,0,3.100000e+00,1
41,851,5,1.721000e+01,54,1,3,0,7.552184e-01,2,1,0,1.300000e+00,1
41,852,5,4.893000e+01,49,1,1,1,1.556243e+00,4,1,0,1.200000e+00,1
41,853,5,9.859000e+01,50,3,3,1,5.662556e-01,2,1,0,3.200000e+00,1
41,854,5,6.101000e+01,29,2,2,1,7.116494e-01,3,1,0,2.300000e+00,1
41,855,5,1.096800e+02,47,3,3,1,4.652185e-01,4,1,0,3.200000e+00,1
41,856,5,1.146900e+02,63,3,3,1,5.305656e-01,3,1,0,3.200000e+00,1
41,857,5,9.524000e+01,3,2,2,1,4.600212e-01,4,1,0,2.100000e+00,1
41,858,5,6.740000e+00,26,1,1,1,3.503459e-01,4,1,0,1.200000e+00,1
41,859,5,7.309000e+01,40,2,2,1,3.758038e-01,3,1,0,2.100000e+00,1
41,860,5,5.207000e+01,27,2,2,1,7.459057e-01,3,1,0,2.100000e+00,1
41,861,5,1.052700e+02,30,3,3,1,5.871154e-01,4,1,0,3.100000e+00,1
41,862,5,1.721000e+01,54,1,1,1,4.047859e-01,3,1,0,1.300000e+00,1
41,863,5,5.420000e+01,2,2,2,1,3.101148e-01,4,1,0,2.100000e+00,1
41,864,5,4.480000e+01,70,1,1,1,3.519943e-01,4,1,0,1.200000e+00,1
41,865,5,6.704000e+01,55,2,2,1,3.294653e-01,4,1,0,2.300000e+00,1
41,866,5,7.309000e+01,40,2,2,1,3.148182e-01,4,1,0,2.100000e+00,1
41,867,5,6.508000e+01,59,2,1,0,3.643277e-01,4,1,0,2.300000e+00,1
41,868,5,3.837000e+01,57,1,1,1,3.176303e-01,4,1,0,1.300000e+00,1
41,869,5,3.031000e+01,25,1,1,1,3.749511e-01,2,1,0,1.300000e+00,1
41,870,5,1.204700e+02,9,3,3,1,4.646293e-01,4,1,0,3.100000e+00,1
41,871,5,9.859000e+01,50,3,3,1,6.820908e-01,3,1,0,3.200000e+00,1
41,872,5,1.576000e+01,68,1,1,1,4.993462e-01,4,1,0,1.200000e+00,1
41,873,5,1.073400e+02,38,3,3,1,5.808294e-01,4,1,0,3.100000e+00,1
41,874,5,5.399000e+01,11,2,2,1,5.418289e-01,4,1,0,2.300000e+00,1
41,875,5,8.402000e+01,44,2,2,1,5.037089e-01,4,1,0,2.100000e+00,1
41,876,5,1.721000e+01,54,1,1,1,3.929505e-01,4,1,0,1.300000e+00,1
41,877,5,8.318000e+01,45,2,2,1,5.950976e-01,4,1,0,2.100000e+00,1
41,878,5,1.265000e+02,36,3,3,1,3.406924e-01,4,1,0,3.200000e+00,1
41,879,5,5.207000e+01,27,2,2,1,5.258832e-01,4,1,0,2.100000e+00,1
41,880,5,3.031000e+01,25,1,1,1,4.648880e-01,3,1,0,1.300000e+00,1
41,881,5,4.350000e+00,34,1,1,1,3.937402e-01,4,1,0,1.300000e+00,1
41,882,5,6.101000e+01,29,2,2,1,4.674594e-01,4,1,0,2.300000e+00,1
41,883,5,9.859000e+01,50,3,3,1,5.088699e-01,4,1,0,3.200000e+00,1
41,884,5,1.115100e+02,8,3,3,1,5.512898e-01,4,1,0,3.200000e+00,1
41,885,5,8.820000e+00,19,1,1,1,4.653767e-01,4,1,0,1.200000e+00,1
41,886,5,1.393300e+02,22,3,2,0,5.060835e-01,4,1,0,3.100000e+00,1
41,887,5,2.924000e+01,33,1,1,1,6.031175e-01,4,1,0,1.300000e+00,1
41,888,5,5.801000e+01,46,2,1,0,4.205981e-01,4,1,0,2.100000e+00,1
41,889,5,1.127000e+01,71,1,1,1,4.463485e-01,4,1,0,1.300000e+00,1
41,890,5,1.419000e+01,35,1,1,1,3.358120e-01,4,1,0,1.300000e+00,1
41,891,5,1.790000e+01,28,1,1,1,3.847495e-01,4,1,0,1.200000e+00,1
41,892,5,1.146900e+02,63,3,3,1,4.266037e-01,4,1,0,3.200000e+00,1
41,893,5,3.031000e+01,25,1,0,0,2.500505e+00,4,1,0,1.300000e+00,1
41,894,6,27,30,2,2,1,1.270125e+00,NaN,2,0,1,1
41,895,6,90,28,1,1,1,1.369720e+00,NaN,2,0,2,1
41,896,6,18,45,1,1,1,6.490326e-01,NaN,2,0,1,1
41,897,6,59,50,1,1,1,6.690348e-01,NaN,2,0,2,1
41,898,6,121,54,2,2,1,7.044596e-01,NaN,2,0,3,1
41,899,6,21,67,2,2,1,6.102618e-01,NaN,2,1,1,1
41,900,6,116,32,2,2,1,1.192161e+00,NaN,2,1,3,1
41,901,6,130,1,1,1,1,8.871429e-01,NaN,2,0,3,1
41,902,6,79,52,1,1,1,7.616922e-01,NaN,2,0,2,1
41,903,6,108,59,2,2,1,7.058680e-01,NaN,2,0,3,1
41,904,6,32,65,2,1,0,8.599216e-01,NaN,2,0,1,1
41,905,6,88,72,2,2,1,1.367844e+00,NaN,2,1,2,1
41,906,6,76,68,2,2,1,8.072611e-01,NaN,2,0,2,1
41,907,6,86,20,2,2,1,1.341131e+00,NaN,2,0,2,1
41,908,6,103,14,1,1,1,2.029986e+00,NaN,2,1,3,1
41,909,6,50,36,1,1,1,1.090385e+00,NaN,2,0,2,1
41,910,6,68,47,2,2,1,7.410896e-01,NaN,2,0,2,1
41,911,6,119,35,1,1,1,1.501877e+00,NaN,2,0,3,1
41,912,6,113,51,1,1,1,1.464091e+00,NaN,2,1,3,1
41,913,6,137,57,2,2,1,1.499260e+00,NaN,2,0,3,1
41,914,6,80,70,2,2,1,7.656003e-01,NaN,2,0,2,1
41,915,6,43,56,2,2,1,1.045212e+00,NaN,2,0,1,1
41,916,6,91,61,1,1,1,9.532962e-01,NaN,2,0,2,1
41,917,6,7,27,1,1,1,9.856931e-01,NaN,2,0,1,1
41,918,6,123,58,2,2,1,1.175960e+00,NaN,2,0,3,1
41,919,6,56,31,1,1,1,9.272509e-01,NaN,2,0,2,1
41,920,6,99,11,2,2,1,1.544808e+00,NaN,2,0,3,1
41,921,6,11,37,2,2,1,9.855558e-01,NaN,2,0,1,1
41,922,6,22,23,1,1,1,1.504069e+00,NaN,2,0,1,1
41,923,6,34,38,1,1,1,1.794415e+00,NaN,2,0,1,1
41,924,6,25,18,1,1,1,1.265121e+00,NaN,2,1,1,1
41,925,6,136,17,2,2,1,2.388138e+00,NaN,2,0,3,1
41,926,6,24,3,1,1,1,1.130796e+00,NaN,2,0,1,1
41,927,6,9,40,1,1,1,1.379817e+00,NaN,2,0,1,1
41,928,6,30,39,1,1,1,1.106296e+00,NaN,2,1,1,1
41,929,6,61,6,2,2,1,1.092362e+00,NaN,2,0,2,1
41,930,6,26,16,1,1,1,2.119040e+00,NaN,2,1,1,1
41,931,6,69,63,2,2,1,9.367285e-01,NaN,2,0,2,1
41,932,6,67,41,1,1,1,1.233228e+00,NaN,2,0,2,1
41,933,6,140,21,2,2,1,1.109976e+00,NaN,2,1,3,1
41,934,6,20,2,2,2,1,1.279525e+00,NaN,2,0,1,1
41,935,6,12,15,2,2,1,2.585905e+00,NaN,2,0,1,1
41,936,6,131,25,1,1,1,1.168834e+00,NaN,2,0,3,1
41,937,6,74,26,1,1,1,1.111932e+00,NaN,2,0,2,1
41,938,6,127,71,2,2,1,1.145400e+00,NaN,2,0,3,1
41,939,6,101,29,1,1,1,1.441275e+00,NaN,2,0,3,1
41,940,6,135,34,2,2,1,7.821313e-01,NaN,2,0,3,1
41,941,6,118,4,1,1,1,8.458507e-01,NaN,2,1,3,1
41,942,6,55,7,2,2,1,6.969075e-01,NaN,2,0,2,1
41,943,6,63,66,2,2,1,7.788245e-01,NaN,2,1,2,1
41,944,6,51,8,2,2,1,1.689422e+00,NaN,2,0,2,1
41,945,6,47,9,2,2,1,7.803920e-01,NaN,2,0,1,1
41,946,6,117,60,1,1,1,1.507183e+00,NaN,2,1,3,1
41,947,6,36,62,2,2,1,1.957571e+00,NaN,2,1,1,1
41,948,6,100,10,1,1,1,1.358263e+00,NaN,2,1,3,1
41,949,6,104,55,1,1,1,1.317050e+00,NaN,2,0,3,1
41,950,6,40,42,2,2,1,1.358256e+00,NaN,2,1,1,1
41,951,6,72,43,1,1,1,1.366246e+00,NaN,2,0,2,1
41,952,6,2,44,2,2,1,1.405741e+00,NaN,2,0,1,1
41,953,6,33,22,1,1,1,1.539609e+00,NaN,2,0,1,1
41,954,6,62,5,1,1,1,1.076754e+00,NaN,2,1,2,1
41,955,6,1,46,2,2,1,8.873183e-01,NaN,2,0,1,1
41,956,6,5,12,1,1,1,9.537164e-01,NaN,2,0,1,1
41,957,6,124,33,1,1,1,1.545747e+00,NaN,2,0,3,1
41,958,6,45,24,1,1,1,1.898173e+00,NaN,2,0,1,1
41,959,6,110,53,2,2,1,1.427785e+00,NaN,2,0,3,1
41,960,6,133,48,1,1,1,1.105272e+00,NaN,2,0,3,1
41,961,6,106,69,1,1,1,1.451295e+00,NaN,2,1,3,1
41,962,6,65,64,2,2,1,3.287453e+00,NaN,2,0,2,1
41,963,6,93,49,1,1,1,8.341540e-01,NaN,2,0,2,1
41,964,6,85,13,2,2,1,7.515002e-01,NaN,2,1,2,1
41,965,6,82,19,1,1,1,7.267402e-01,NaN,2,0,2,1
41,966,6,77,69,2,2,1,1.079998e+00,NaN,1,1,2,1
41,967,6,8,19,2,2,1,1.882849e+00,NaN,1,0,1,1
41,968,6,83,45,2,2,1,8.538012e-01,NaN,1,0,2,1
41,969,6,138,42,2,2,1,1.673698e+00,NaN,1,1,3,1
41,970,6,4,48,2,2,1,1.181196e+00,NaN,1,0,1,1
41,971,6,89,12,2,2,1,1.035623e+00,NaN,1,0,2,1
41,972,6,78,53,1,1,1,1.064562e+00,NaN,1,0,2,1
41,973,6,132,65,1,1,1,2.195629e+00,NaN,1,0,3,1
41,974,6,38,52,2,2,1,2.273888e+00,NaN,1,0,1,1
41,975,6,129,18,1,1,1,1.253127e+00,NaN,1,1,3,1
41,976,6,144,62,1,1,1,9.290512e-01,NaN,1,1,3,1
41,977,6,92,4,2,2,1,7.617683e-01,NaN,1,1,2,1
41,978,6,64,59,2,2,1,7.611151e-01,NaN,1,0,2,1
41,979,6,126,36,1,1,1,1.425206e+00,NaN,1,0,3,1
41,980,6,6,26,2,2,1,2.926546e+00,NaN,1,0,1,1
41,981,6,102,64,1,1,1,8.802643e-01,NaN,1,0,3,1
41,982,6,44,70,2,2,1,3.058997e+00,NaN,1,0,1,1
41,983,6,94,67,1,1,1,1.798880e+00,NaN,1,1,2,1
41,984,6,23,20,2,2,1,2.084666e+00,NaN,1,0,1,1
41,985,6,134,39,2,2,1,1.423303e+00,NaN,1,1,3,1
41,986,6,28,33,2,2,1,3.245422e+00,NaN,1,0,1,1
41,987,6,66,55,1,1,1,1.057190e+00,NaN,1,0,2,1
41,988,6,98,50,1,1,1,2.140951e+00,NaN,1,0,3,1
41,989,6,31,58,2,2,1,1.069495e+00,NaN,1,0,1,1
41,990,6,41,61,1,1,1,1.193265e+00,NaN,1,0,1,1
41,991,6,84,44,1,1,1,3.231573e+00,NaN,1,0,2,1
41,992,6,87,15,2,2,1,7.645064e-01,NaN,1,0,2,1
41,993,6,95,3,2,2,1,8.358431e-01,NaN,1,0,2,1
41,994,6,120,9,2,2,1,1.160732e+00,NaN,1,0,3,1
41,995,6,42,21,2,2,1,2.912847e+00,NaN,1,1,1,1
41,996,6,114,63,1,1,1,2.089798e+00,NaN,1,0,3,1
41,997,6,125,6,2,2,1,1.436373e+00,NaN,1,0,3,1
41,998,6,70,10,1,1,1,8.663184e-01,NaN,1,1,2,1
41,999,6,122,56,2,2,1,1.476618e+00,NaN,1,0,3,1
41,1000,6,96,37,1,1,1,2.367777e+00,NaN,1,0,2,1
41,1001,6,105,30,1,1,1,1.127792e+00,NaN,1,0,3,1
41,1002,6,53,11,2,2,1,9.766892e-01,NaN,1,0,2,1
41,1003,6,109,47,1,1,1,2.160022e+00,NaN,1,0,3,1
41,1004,6,14,72,2,2,1,1.840443e+00,NaN,1,1,1,1
41,1005,6,49,51,1,1,1,9.011769e-01,NaN,1,1,2,1
41,1006,6,73,40,1,1,1,7.748497e-01,NaN,1,0,2,1
41,1007,6,142,7,2,2,1,9.265081e-01,NaN,1,0,3,1
41,1008,6,143,5,1,1,1,1.007761e+00,NaN,1,1,3,1
41,1009,6,10,71,2,2,1,1.245545e+00,NaN,1,0,1,1
41,1010,6,139,22,2,1,0,2.042059e+00,NaN,1,0,3,1
41,1011,6,107,38,1,1,1,1.814174e+00,NaN,1,0,3,1
41,1012,6,37,57,1,0,0,3.499651e+00,NaN,1,0,1,1
41,1013,6,60,29,1,1,1,7.898611e-01,NaN,1,0,2,1
41,1014,6,39,13,1,1,1,8.928606e-01,NaN,1,1,1,1
41,1015,6,17,28,2,2,1,1.023366e+00,NaN,1,0,1,1
41,1016,6,3,34,1,1,1,9.010773e-01,NaN,1,0,1,1
41,1017,6,111,8,2,2,1,1.070571e+00,NaN,1,0,3,1
41,1018,6,29,25,2,1,0,1.282061e+00,NaN,1,0,1,1
41,1019,6,54,2,2,2,1,6.687172e-01,NaN,1,0,2,1
41,1020,6,19,43,2,2,1,1.303957e+00,NaN,1,0,1,1
41,1021,6,112,24,2,2,1,9.379428e-01,NaN,1,0,3,1
41,1022,6,57,14,2,2,1,6.028247e-01,NaN,1,1,2,1
41,1023,6,48,49,2,2,1,1.272576e+00,NaN,1,0,1,1
41,1024,6,15,68,1,2,0,1.212066e+00,NaN,1,0,1,1
41,1025,6,35,17,1,1,1,1.537384e+00,NaN,1,0,1,1
41,1026,6,97,16,1,1,1,1.770504e+00,NaN,1,1,3,1
41,1027,6,141,41,1,1,1,1.697579e+00,NaN,1,0,3,1
41,1028,6,115,31,2,2,1,1.683923e+00,NaN,1,0,3,1
41,1029,6,46,1,1,1,1,1.334211e+00,NaN,1,0,1,1
41,1030,6,52,27,2,2,1,7.748916e-01,NaN,1,0,2,1
41,1031,6,75,23,2,2,1,8.942343e-01,NaN,1,0,2,1
41,1032,6,71,32,1,1,1,9.134022e-01,NaN,1,1,2,1
41,1033,6,81,60,1,1,1,7.466784e-01,NaN,1,1,2,1
41,1034,6,58,46,1,1,1,8.262723e-01,NaN,1,0,2,1
41,1035,6,16,54,2,2,1,1.576080e+00,NaN,1,0,1,1
41,1036,6,13,35,1,1,1,7.992922e-01,NaN,1,0,1,1
41,1037,6,128,66,2,2,1,1.949434e+00,NaN,1,1,3,1
