Subject,Trial,Cond,ImageNum,CueNum,Correct,Resp,Accuracy,RT,CueRep,ImageType,Baseline,Category,Block
13,1,1,105,NaN,NaN,2,NaN,2.707412e+00,NaN,2,0,3,1
13,2,1,126,NaN,NaN,2,NaN,1.432697e+00,NaN,2,0,3,1
13,3,1,100,NaN,NaN,2,NaN,1.279834e-04,NaN,0,0,3,1
13,4,1,109,NaN,NaN,1,NaN,7.482527e-01,NaN,0,0,3,1
13,5,1,92,NaN,NaN,1,NaN,1.264742e-04,NaN,0,1,2,1
13,6,1,128,NaN,NaN,2,NaN,4.430744e-01,NaN,0,0,3,1
13,7,1,107,NaN,NaN,1,NaN,1.555360e+00,NaN,0,0,3,1
13,8,1,129,NaN,NaN,2,NaN,2.511170e+00,NaN,2,0,3,1
13,9,1,53,NaN,NaN,1,NaN,1.788857e+00,NaN,0,0,2,1
13,10,1,111,NaN,NaN,1,NaN,2.703303e+00,NaN,0,1,3,1
13,11,1,69,NaN,NaN,1,NaN,1.997249e+00,NaN,0,0,2,1
13,12,1,94,NaN,NaN,1,NaN,1.615472e+00,NaN,2,0,2,1
13,13,1,93,NaN,NaN,1,NaN,6.969126e-01,NaN,1,0,2,1
13,14,1,98,NaN,NaN,1,NaN,6.551330e-01,NaN,0,0,3,1
13,15,1,100,NaN,NaN,1,NaN,3.255383e+00,NaN,2,0,3,1
13,16,1,31,NaN,NaN,1,NaN,6.391224e-01,NaN,1,0,1,1
13,17,1,121,NaN,NaN,2,NaN,6.557032e-01,NaN,0,1,3,1
13,18,1,102,NaN,NaN,2,NaN,6.239759e-01,NaN,0,0,3,1
13,19,1,118,NaN,NaN,1,NaN,3.768786e-01,NaN,0,1,3,1
13,20,1,137,NaN,NaN,1,NaN,3.003237e-01,NaN,0,0,3,1
13,21,1,131,NaN,NaN,2,NaN,5.947215e-01,NaN,0,0,3,1
13,22,1,47,NaN,NaN,1,NaN,2.531204e-01,NaN,0,1,1,1
13,23,1,142,NaN,NaN,2,NaN,9.329457e-01,NaN,1,1,3,1
13,24,1,84,NaN,NaN,1,NaN,2.902951e-01,NaN,1,0,2,1
13,25,1,132,NaN,NaN,2,NaN,3.845422e-01,NaN,0,1,3,1
13,26,1,46,NaN,NaN,2,NaN,6.997708e-01,NaN,2,0,1,1
13,27,1,51,NaN,NaN,1,NaN,3.938343e-01,NaN,2,0,2,1
13,28,1,104,NaN,NaN,2,NaN,2.049594e-01,NaN,2,1,3,1
13,29,1,74,NaN,NaN,1,NaN,2.947051e-01,NaN,0,0,2,1
13,30,1,30,NaN,NaN,2,NaN,1.325540e+00,NaN,1,0,1,1
13,31,1,14,NaN,NaN,1,NaN,2.426582e+00,NaN,1,0,1,1
13,32,1,34,NaN,NaN,1,NaN,1.339707e+00,NaN,1,0,1,1
13,33,1,41,NaN,NaN,2,NaN,5.125999e-01,NaN,0,0,1,1
13,34,1,19,NaN,NaN,2,NaN,4.942297e-01,NaN,0,0,1,1
13,35,1,13,NaN,NaN,1,NaN,4.529798e-01,NaN,0,1,1,1
13,36,1,27,NaN,NaN,1,NaN,8.496288e-02,NaN,0,0,1,1
13,37,1,135,NaN,NaN,2,NaN,1.596591e+00,NaN,0,1,3,1
13,38,1,36,NaN,NaN,1,NaN,6.221018e-01,NaN,0,0,1,1
13,39,1,131,NaN,NaN,2,NaN,2.839475e+00,NaN,2,0,3,1
13,40,1,140,NaN,NaN,1,NaN,1.000972e+00,NaN,1,0,3,1
13,41,1,138,NaN,NaN,1,NaN,4.826527e-01,NaN,0,0,3,1
13,42,1,132,NaN,NaN,2,NaN,2.553230e+00,NaN,1,1,3,1
13,43,1,90,NaN,NaN,1,NaN,4.213338e-01,NaN,0,0,2,1
13,44,1,54,NaN,NaN,1,NaN,3.986397e-01,NaN,0,1,2,1
13,45,1,62,NaN,NaN,1,NaN,4.888608e-01,NaN,1,1,2,1
13,46,1,68,NaN,NaN,1,NaN,5.197105e-01,NaN,0,1,2,1
13,47,1,49,NaN,NaN,1,NaN,3.888034e-01,NaN,2,0,2,1
13,48,1,96,NaN,NaN,1,NaN,3.115672e-01,NaN,2,1,2,1
13,49,1,26,NaN,NaN,1,NaN,5.252289e-01,NaN,0,1,1,1
13,50,1,61,NaN,NaN,1,NaN,4.587333e-01,NaN,0,0,2,1
13,51,1,18,NaN,NaN,1,NaN,7.868545e-01,NaN,0,1,1,1
13,52,1,23,NaN,NaN,1,NaN,5.731037e-01,NaN,2,0,1,1
13,53,1,6,NaN,NaN,1,NaN,3.614216e-01,NaN,0,0,1,1
13,54,1,27,NaN,NaN,1,NaN,6.692290e-01,NaN,1,0,1,1
13,55,1,67,NaN,NaN,1,NaN,3.796486e-01,NaN,2,0,2,1
13,56,1,59,NaN,NaN,1,NaN,3.267788e-01,NaN,0,0,2,1
13,57,1,92,NaN,NaN,1,NaN,5.961344e-01,NaN,2,1,2,1
13,58,1,38,NaN,NaN,1,NaN,4.465025e-01,NaN,1,0,1,1
13,59,1,56,NaN,NaN,1,NaN,2.632450e-01,NaN,2,0,2,1
13,60,1,69,NaN,NaN,1,NaN,3.426792e-01,NaN,2,0,2,1
13,61,1,70,NaN,NaN,1,NaN,3.392436e-01,NaN,0,0,2,1
13,62,1,3,NaN,NaN,2,NaN,1.183947e+00,NaN,0,1,1,1
13,63,1,94,NaN,NaN,1,NaN,3.629860e-01,NaN,0,0,2,1
13,64,1,139,NaN,NaN,2,NaN,1.590861e+00,NaN,2,0,3,1
13,65,1,35,NaN,NaN,2,NaN,1.713576e+00,NaN,0,0,1,1
13,66,1,113,NaN,NaN,1,NaN,2.550544e-01,NaN,0,0,3,1
13,67,1,4,NaN,NaN,1,NaN,4.632777e-01,NaN,2,0,1,1
13,68,1,106,NaN,NaN,2,NaN,7.987648e-01,NaN,2,1,3,1
13,69,1,142,NaN,NaN,1,NaN,4.891822e-01,NaN,0,1,3,1
13,70,1,2,NaN,NaN,1,NaN,5.834728e-01,NaN,1,1,1,1
13,71,1,1,NaN,NaN,1,NaN,4.583219e-01,NaN,0,0,1,1
13,72,1,16,NaN,NaN,1,NaN,5.223490e-01,NaN,0,0,1,1
13,73,1,133,NaN,NaN,2,NaN,5.917250e-01,NaN,0,0,3,1
13,74,1,111,NaN,NaN,1,NaN,4.507990e-01,NaN,1,1,3,1
13,75,1,60,NaN,NaN,1,NaN,2.832418e-01,NaN,0,1,2,1
13,76,1,122,NaN,NaN,2,NaN,6.901627e-01,NaN,2,1,3,1
13,77,1,58,NaN,NaN,1,NaN,1.234557e-04,NaN,0,1,2,1
13,78,1,22,NaN,NaN,2,NaN,4.828772e-01,NaN,2,0,1,1
13,79,1,71,NaN,NaN,1,NaN,2.418576e-01,NaN,1,0,2,1
13,80,1,73,NaN,NaN,1,NaN,1.067118e+00,NaN,0,1,2,1
13,81,1,138,NaN,NaN,1,NaN,2.682414e+00,NaN,1,0,3,1
13,82,1,43,NaN,NaN,1,NaN,2.575334e-01,NaN,2,1,1,1
13,83,1,29,NaN,NaN,1,NaN,5.289253e-01,NaN,1,0,1,1
13,84,1,66,NaN,NaN,1,NaN,2.861441e-01,NaN,2,0,2,1
13,85,1,85,NaN,NaN,1,NaN,2.531506e-01,NaN,0,0,2,1
13,86,1,99,NaN,NaN,2,NaN,7.894018e-01,NaN,1,0,3,1
13,87,1,10,NaN,NaN,1,NaN,4.321475e-01,NaN,0,0,1,1
13,88,1,141,NaN,NaN,1,NaN,3.288425e-01,NaN,1,0,3,1
13,89,1,91,NaN,NaN,1,NaN,1.438284e+00,NaN,1,0,2,1
13,90,1,21,NaN,NaN,1,NaN,4.948244e-01,NaN,2,0,1,1
13,91,1,75,NaN,NaN,1,NaN,4.530384e-01,NaN,0,0,2,1
13,92,1,87,NaN,NaN,1,NaN,3.248675e-01,NaN,0,0,2,1
13,93,1,119,NaN,NaN,1,NaN,6.186909e-01,NaN,0,0,3,1
13,94,1,56,NaN,NaN,1,NaN,3.718453e-01,NaN,0,0,2,1
13,95,1,74,NaN,NaN,1,NaN,2.957504e-01,NaN,1,0,2,1
13,96,1,102,NaN,NaN,2,NaN,1.966122e+00,NaN,2,0,3,1
13,97,1,11,NaN,NaN,1,NaN,3.052417e-01,NaN,0,0,1,1
13,98,1,143,NaN,NaN,2,NaN,4.871460e-01,NaN,0,1,3,1
13,99,1,65,NaN,NaN,1,NaN,4.461080e-01,NaN,0,0,2,1
13,100,1,34,NaN,NaN,1,NaN,6.382811e-01,NaN,0,0,1,1
13,101,1,115,NaN,NaN,2,NaN,3.353543e-01,NaN,1,0,3,1
13,102,1,30,NaN,NaN,1,NaN,3.643513e-01,NaN,0,0,1,1
13,103,1,97,NaN,NaN,2,NaN,1.261723e-04,NaN,0,1,3,1
13,104,1,20,NaN,NaN,1,NaN,2.984127e-01,NaN,2,0,1,1
13,105,1,8,NaN,NaN,1,NaN,3.204572e-01,NaN,1,0,1,1
13,106,1,52,NaN,NaN,1,NaN,3.262141e-01,NaN,1,0,2,1
13,107,1,33,NaN,NaN,2,NaN,8.751199e-01,NaN,0,1,1,1
13,108,1,101,NaN,NaN,2,NaN,3.145733e-01,NaN,0,0,3,1
13,109,1,80,NaN,NaN,1,NaN,4.482613e-01,NaN,0,1,2,1
13,110,1,31,NaN,NaN,1,NaN,2.568935e-01,NaN,0,0,1,1
13,111,1,101,NaN,NaN,1,NaN,4.329664e-01,NaN,1,0,3,1
13,112,1,22,NaN,NaN,2,NaN,1.354139e+00,NaN,0,0,1,1
13,113,1,88,NaN,NaN,1,NaN,3.419790e-01,NaN,0,0,2,1
13,114,1,78,NaN,NaN,1,NaN,4.265817e-01,NaN,0,0,2,1
13,115,1,99,NaN,NaN,2,NaN,6.064845e-02,NaN,0,0,3,1
13,116,1,68,NaN,NaN,1,NaN,2.841380e-01,NaN,1,1,2,1
13,117,1,29,NaN,NaN,1,NaN,3.150550e-01,NaN,0,0,1,1
13,118,1,84,NaN,NaN,1,NaN,1.276816e-04,NaN,0,0,2,1
13,119,1,140,NaN,NaN,1,NaN,2.270191e-01,NaN,0,0,3,1
13,120,1,78,NaN,NaN,1,NaN,4.445882e-01,NaN,1,0,2,1
13,121,1,45,NaN,NaN,2,NaN,3.972693e-01,NaN,0,0,1,1
13,122,1,139,NaN,NaN,1,NaN,7.997554e-01,NaN,0,0,3,1
13,123,1,35,NaN,NaN,2,NaN,1.548479e-04,NaN,2,0,1,1
13,124,1,40,NaN,NaN,1,NaN,2.681678e-01,NaN,0,0,1,1
13,125,1,15,NaN,NaN,2,NaN,2.919718e-01,NaN,1,1,1,1
13,126,1,143,NaN,NaN,1,NaN,3.626036e-01,NaN,1,1,3,1
13,127,1,38,NaN,NaN,1,NaN,6.865031e-01,NaN,0,0,1,1
13,128,1,42,NaN,NaN,1,NaN,3.411380e-01,NaN,0,0,1,1
13,129,1,9,NaN,NaN,1,NaN,2.816743e-01,NaN,0,0,1,1
13,130,1,5,NaN,NaN,1,NaN,3.931446e-01,NaN,0,0,1,1
13,131,1,49,NaN,NaN,1,NaN,2.276526e-01,NaN,0,0,2,1
13,132,1,32,NaN,NaN,1,NaN,3.969020e-01,NaN,0,0,1,1
13,133,1,28,NaN,NaN,2,NaN,3.433693e-01,NaN,1,0,1,1
13,134,1,51,NaN,NaN,1,NaN,6.833168e-02,NaN,0,0,2,1
13,135,1,83,NaN,NaN,1,NaN,3.240435e-01,NaN,2,0,2,1
13,136,1,39,NaN,NaN,2,NaN,1.937049e+00,NaN,0,1,1,1
13,137,1,65,NaN,NaN,1,NaN,6.965235e+00,NaN,1,0,2,1
13,138,1,24,NaN,NaN,1,NaN,5.686310e-01,NaN,2,0,1,1
13,139,1,48,NaN,NaN,1,NaN,3.244830e-01,NaN,0,0,1,1
13,140,1,5,NaN,NaN,1,NaN,3.298411e-01,NaN,2,0,1,1
13,141,1,117,NaN,NaN,2,NaN,6.149902e-01,NaN,0,0,3,1
13,142,1,17,NaN,NaN,1,NaN,5.845634e-01,NaN,0,1,1,1
13,143,1,28,NaN,NaN,2,NaN,4.356610e-01,NaN,0,0,1,1
13,144,1,7,NaN,NaN,1,NaN,3.564628e-01,NaN,1,0,1,1
13,145,1,81,NaN,NaN,1,NaN,3.366682e-01,NaN,2,0,2,1
13,146,1,81,NaN,NaN,1,NaN,2.851809e-01,NaN,0,0,2,1
13,147,1,63,NaN,NaN,1,NaN,3.086175e-01,NaN,1,0,2,1
13,148,1,72,NaN,NaN,1,NaN,3.864019e-01,NaN,1,0,2,1
13,149,1,133,NaN,NaN,2,NaN,5.813931e-01,NaN,2,0,3,1
13,150,1,106,NaN,NaN,1,NaN,3.920938e-01,NaN,0,1,3,1
13,151,1,86,NaN,NaN,1,NaN,4.191071e-01,NaN,1,1,2,1
13,152,1,118,NaN,NaN,1,NaN,2.605622e-01,NaN,1,1,3,1
13,153,1,128,NaN,NaN,2,NaN,4.644030e+00,NaN,1,0,3,1
13,154,1,26,NaN,NaN,1,NaN,2.766700e-01,NaN,2,1,1,1
13,155,1,64,NaN,NaN,1,NaN,4.681256e-01,NaN,0,0,2,1
13,156,1,72,NaN,NaN,1,NaN,1.499826e+00,NaN,0,0,2,1
13,157,1,136,NaN,NaN,1,NaN,1.346079e+00,NaN,1,0,3,1
13,158,1,20,NaN,NaN,1,NaN,4.780863e-01,NaN,0,0,1,1
13,159,1,103,NaN,NaN,1,NaN,4.291378e-01,NaN,1,1,3,1
13,160,1,44,NaN,NaN,1,NaN,5.503882e-01,NaN,0,0,1,1
13,161,1,6,NaN,NaN,1,NaN,5.548586e-01,NaN,2,0,1,1
13,162,1,63,NaN,NaN,1,NaN,6.145348e-01,NaN,0,0,2,1
13,163,1,12,NaN,NaN,1,NaN,3.365964e-01,NaN,0,0,1,1
13,164,1,82,NaN,NaN,1,NaN,4.373194e-01,NaN,0,0,2,1
13,165,1,96,NaN,NaN,1,NaN,5.897594e-01,NaN,0,1,2,1
13,166,1,75,NaN,NaN,1,NaN,3.454004e-01,NaN,2,0,2,1
13,167,1,104,NaN,NaN,2,NaN,2.020906e+00,NaN,0,1,3,1
13,168,1,112,NaN,NaN,1,NaN,2.699807e-01,NaN,0,0,3,1
13,169,1,123,NaN,NaN,2,NaN,7.092772e-01,NaN,2,0,3,1
13,170,1,40,NaN,NaN,1,NaN,3.152845e-01,NaN,1,0,1,1
13,171,1,36,NaN,NaN,1,NaN,3.615233e-01,NaN,2,0,1,1
13,172,1,89,NaN,NaN,1,NaN,3.727602e-01,NaN,2,1,2,1
13,173,1,108,NaN,NaN,2,NaN,5.365768e-01,NaN,0,0,3,1
13,174,1,12,NaN,NaN,1,NaN,4.049290e-01,NaN,2,0,1,1
13,175,1,136,NaN,NaN,1,NaN,5.109406e-01,NaN,0,0,3,1
13,176,1,109,NaN,NaN,1,NaN,1.647086e-01,NaN,1,0,3,1
13,177,1,59,NaN,NaN,1,NaN,3.125874e-01,NaN,1,0,2,1
13,178,1,50,NaN,NaN,1,NaN,9.743605e-01,NaN,0,0,2,1
13,179,1,77,NaN,NaN,1,NaN,4.261175e-01,NaN,0,1,2,1
13,180,1,60,NaN,NaN,1,NaN,3.632532e-01,NaN,2,1,2,1
13,181,1,11,NaN,NaN,1,NaN,3.588314e-01,NaN,2,0,1,1
13,182,1,8,NaN,NaN,1,NaN,3.708996e-01,NaN,0,0,1,1
13,183,1,97,NaN,NaN,1,NaN,3.824462e-01,NaN,2,1,3,1
13,184,1,116,NaN,NaN,1,NaN,3.132262e-01,NaN,2,0,3,1
13,185,1,57,NaN,NaN,1,NaN,1.243612e-04,NaN,2,0,2,1
13,186,1,113,NaN,NaN,1,NaN,3.852461e-01,NaN,1,0,3,1
13,187,1,37,NaN,NaN,1,NaN,3.966819e-01,NaN,0,0,1,1
13,188,1,110,NaN,NaN,2,NaN,5.588985e-01,NaN,0,0,3,1
13,189,1,24,NaN,NaN,1,NaN,3.392632e-01,NaN,0,0,1,1
13,190,1,9,NaN,NaN,1,NaN,3.199178e-01,NaN,2,0,1,1
13,191,1,55,NaN,NaN,1,NaN,9.328682e-01,NaN,0,0,2,1
13,192,1,23,NaN,NaN,1,NaN,3.539720e-01,NaN,0,0,1,1
13,193,1,2,NaN,NaN,1,NaN,3.018601e-01,NaN,0,1,1,1
13,194,1,3,NaN,NaN,2,NaN,3.963278e-01,NaN,1,1,1,1
13,195,1,80,NaN,NaN,1,NaN,2.867143e-01,NaN,1,1,2,1
13,196,1,7,NaN,NaN,1,NaN,1.264742e-04,NaN,0,0,1,1
13,197,1,57,NaN,NaN,1,NaN,2.801907e-01,NaN,0,0,2,1
13,198,1,33,NaN,NaN,1,NaN,2.869319e-01,NaN,2,1,1,1
13,199,1,120,NaN,NaN,2,NaN,1.861734e+00,NaN,2,0,3,1
13,200,1,17,NaN,NaN,1,NaN,3.091271e-01,NaN,2,1,1,1
13,201,1,86,NaN,NaN,1,NaN,5.550385e-01,NaN,0,1,2,1
13,202,1,127,NaN,NaN,1,NaN,3.436077e-01,NaN,0,1,3,1
13,203,1,1,NaN,NaN,1,NaN,5.002815e-01,NaN,1,0,1,1
13,204,1,41,NaN,NaN,1,NaN,2.744408e-01,NaN,1,0,1,1
13,205,1,13,NaN,NaN,1,NaN,2.975500e-01,NaN,1,1,1,1
13,206,1,42,NaN,NaN,1,NaN,3.686680e-01,NaN,1,0,1,1
13,207,1,123,NaN,NaN,1,NaN,4.117767e-01,NaN,0,0,3,1
13,208,1,43,NaN,NaN,1,NaN,3.254929e-01,NaN,0,1,1,1
13,209,1,79,NaN,NaN,1,NaN,3.475139e-01,NaN,2,0,2,1
13,210,1,144,NaN,NaN,1,NaN,6.155468e-01,NaN,0,0,3,1
13,211,1,67,NaN,NaN,1,NaN,3.692252e-01,NaN,0,0,2,1
13,212,1,107,NaN,NaN,1,NaN,5.248848e-01,NaN,1,0,3,1
13,213,1,116,NaN,NaN,1,NaN,9.863157e-01,NaN,0,0,3,1
13,214,1,25,NaN,NaN,1,NaN,3.890041e-01,NaN,1,0,1,1
13,215,1,46,NaN,NaN,2,NaN,3.195954e-01,NaN,0,0,1,1
13,216,1,66,NaN,NaN,1,NaN,9.010875e-01,NaN,0,0,2,1
13,217,1,25,NaN,NaN,1,NaN,8.335585e-02,NaN,0,0,1,1
13,218,1,103,NaN,NaN,1,NaN,1.626920e-01,NaN,0,1,3,1
13,219,1,144,NaN,NaN,1,NaN,2.701836e-01,NaN,1,0,3,1
13,220,1,54,NaN,NaN,1,NaN,2.937609e-01,NaN,2,1,2,1
13,221,1,121,NaN,NaN,1,NaN,5.326685e-01,NaN,1,1,3,1
13,222,1,115,NaN,NaN,2,NaN,5.295909e-01,NaN,0,0,3,1
13,223,1,114,NaN,NaN,1,NaN,2.706167e-01,NaN,2,0,3,1
13,224,1,39,NaN,NaN,2,NaN,1.397901e+00,NaN,2,1,1,1
13,225,1,134,NaN,NaN,2,NaN,7.924435e-01,NaN,0,0,3,1
13,226,1,52,NaN,NaN,1,NaN,1.294927e-04,NaN,0,0,2,1
13,227,1,83,NaN,NaN,1,NaN,2.931961e-01,NaN,0,0,2,1
13,228,1,88,NaN,NaN,1,NaN,3.079692e-01,NaN,1,0,2,1
13,229,1,119,NaN,NaN,1,NaN,4.097909e-01,NaN,1,0,3,1
13,230,1,95,NaN,NaN,1,NaN,1.771981e+00,NaN,2,0,2,1
13,231,1,95,NaN,NaN,1,NaN,5.198171e-01,NaN,0,0,2,1
13,232,1,62,NaN,NaN,1,NaN,5.085421e-01,NaN,0,1,2,1
13,233,1,98,NaN,NaN,1,NaN,4.026709e-01,NaN,2,0,3,1
13,234,1,82,NaN,NaN,1,NaN,6.210891e-01,NaN,2,0,2,1
13,235,1,110,NaN,NaN,1,NaN,9.181528e-01,NaN,2,0,3,1
13,236,1,18,NaN,NaN,1,NaN,3.079574e-01,NaN,2,1,1,1
13,237,1,120,NaN,NaN,1,NaN,6.580998e-01,NaN,0,0,3,1
13,238,1,48,NaN,NaN,1,NaN,2.578039e-01,NaN,2,0,1,1
13,239,1,61,NaN,NaN,1,NaN,5.461068e-01,NaN,1,0,2,1
13,240,1,32,NaN,NaN,1,NaN,3.180527e-01,NaN,2,0,1,1
13,241,1,76,NaN,NaN,1,NaN,7.000829e-01,NaN,2,0,2,1
13,242,1,37,NaN,NaN,1,NaN,3.461716e-01,NaN,2,0,1,1
13,243,1,10,NaN,NaN,1,NaN,2.791210e-01,NaN,1,0,1,1
13,244,1,125,NaN,NaN,1,NaN,2.459374e-01,NaN,2,0,3,1
13,245,1,105,NaN,NaN,1,NaN,1.630032e+00,NaN,0,0,3,1
13,246,1,71,NaN,NaN,1,NaN,5.752692e-01,NaN,0,0,2,1
13,247,1,87,NaN,NaN,1,NaN,2.906522e-01,NaN,2,0,2,1
13,248,1,85,NaN,NaN,1,NaN,2.730892e-01,NaN,1,0,2,1
13,249,1,141,NaN,NaN,1,NaN,3.124211e-01,NaN,0,0,3,1
13,250,1,15,NaN,NaN,1,NaN,2.462292e-01,NaN,0,1,1,1
13,251,1,135,NaN,NaN,1,NaN,2.389758e-01,NaN,1,1,3,1
13,252,1,90,NaN,NaN,1,NaN,2.873684e-01,NaN,1,0,2,1
13,253,1,58,NaN,NaN,1,NaN,2.861220e-01,NaN,2,1,2,1
13,254,1,124,NaN,NaN,2,NaN,6.370339e-01,NaN,2,0,3,1
13,255,1,76,NaN,NaN,1,NaN,1.821274e-01,NaN,0,0,2,1
13,256,1,137,NaN,NaN,1,NaN,3.690103e-01,NaN,2,0,3,1
13,257,1,130,NaN,NaN,2,NaN,3.728118e-01,NaN,1,0,3,1
13,258,1,112,NaN,NaN,1,NaN,3.043153e-01,NaN,1,0,3,1
13,259,1,126,NaN,NaN,1,NaN,2.549829e+00,NaN,0,0,3,1
13,260,1,91,NaN,NaN,1,NaN,3.219592e-01,NaN,0,0,2,1
13,261,1,89,NaN,NaN,1,NaN,2.316334e-01,NaN,0,1,2,1
13,262,1,4,NaN,NaN,1,NaN,3.208043e-01,NaN,0,0,1,1
13,263,1,21,NaN,NaN,1,NaN,4.542938e-01,NaN,0,0,1,1
13,264,1,125,NaN,NaN,1,NaN,3.024167e-01,NaN,0,0,3,1
13,265,1,47,NaN,NaN,1,NaN,2.525025e-01,NaN,1,1,1,1
13,266,1,117,NaN,NaN,1,NaN,3.811081e-01,NaN,2,0,3,1
13,267,1,19,NaN,NaN,1,NaN,5.919085e-01,NaN,1,0,1,1
13,268,1,77,NaN,NaN,1,NaN,3.228596e-01,NaN,2,1,2,1
13,269,1,53,NaN,NaN,1,NaN,2.079516e-01,NaN,1,0,2,1
13,270,1,50,NaN,NaN,1,NaN,2.582959e-01,NaN,1,0,2,1
13,271,1,122,NaN,NaN,2,NaN,5.826014e+00,NaN,0,1,3,1
13,272,1,79,NaN,NaN,1,NaN,8.991457e-01,NaN,0,0,2,1
13,273,1,70,NaN,NaN,1,NaN,3.212414e-01,NaN,2,0,2,1
13,274,1,127,NaN,NaN,1,NaN,2.706134e-01,NaN,2,1,3,1
13,275,1,124,NaN,NaN,1,NaN,3.182471e-01,NaN,0,0,3,1
13,276,1,16,NaN,NaN,1,NaN,2.757593e-01,NaN,1,0,1,1
13,277,1,44,NaN,NaN,1,NaN,2.434387e-01,NaN,2,0,1,1
13,278,1,130,NaN,NaN,2,NaN,5.161810e-01,NaN,0,0,3,1
13,279,1,14,NaN,NaN,1,NaN,4.413013e-01,NaN,0,0,1,1
13,280,1,134,NaN,NaN,2,NaN,8.182436e-01,NaN,1,0,3,1
13,281,1,129,NaN,NaN,2,NaN,4.120007e-01,NaN,0,0,3,1
13,282,1,64,NaN,NaN,1,NaN,2.456313e-01,NaN,1,0,2,1
13,283,1,114,NaN,NaN,1,NaN,2.118263e+00,NaN,0,0,3,1
13,284,1,93,NaN,NaN,1,NaN,4.034249e-01,NaN,0,0,2,1
13,285,1,73,NaN,NaN,1,NaN,3.735812e-01,NaN,1,1,2,1
13,286,1,108,NaN,NaN,1,NaN,1.905146e+00,NaN,2,0,3,1
13,287,1,55,NaN,NaN,1,NaN,8.388643e-01,NaN,1,0,2,1
13,288,1,45,NaN,NaN,2,NaN,4.239409e-01,NaN,1,0,1,1
13,373,2,53,7,1,1,1,2.549181e+00,NaN,1,0,2,1
13,374,2,128,11,1,1,1,2.725268e+00,NaN,1,0,3,1
13,375,2,47,62,2,0,0,3.500018e+00,NaN,1,1,1,1
13,376,2,91,23,1,1,1,1.119300e+00,NaN,1,0,2,1
13,377,2,34,42,1,1,1,1.944943e+00,NaN,1,0,1,1
13,378,2,27,45,1,1,1,1.999902e+00,NaN,1,0,1,1
13,379,2,71,15,2,2,1,1.445312e+00,NaN,1,0,2,1
13,380,2,80,52,1,1,1,7.608901e-01,NaN,1,1,2,1
13,381,2,19,68,1,1,1,1.376322e+00,NaN,1,0,1,1
13,382,2,107,5,1,1,1,1.558739e+00,NaN,1,0,3,1
13,383,2,113,59,1,1,1,1.726011e+00,NaN,1,0,3,1
13,384,2,115,18,1,1,1,1.294259e+00,NaN,1,0,3,1
13,385,2,1,35,1,1,1,1.256482e+00,NaN,1,0,1,1
13,386,2,28,66,2,2,1,1.043863e+00,NaN,1,0,1,1
13,387,2,143,48,1,1,1,1.312008e+00,NaN,1,1,3,1
13,388,2,101,22,2,2,1,1.440807e+00,NaN,1,0,3,1
13,389,2,55,54,2,2,1,1.060401e+00,NaN,1,0,2,1
13,390,2,64,31,1,1,1,7.997853e-01,NaN,1,0,2,1
13,391,2,8,17,1,1,1,1.421464e+00,NaN,1,0,1,1
13,392,2,111,67,2,2,1,2.506200e+00,NaN,1,1,3,1
13,393,2,38,6,1,1,1,1.483127e+00,NaN,1,0,1,1
13,394,2,31,53,1,1,1,1.837196e+00,NaN,1,0,1,1
13,395,2,15,27,2,2,1,2.321246e+00,NaN,1,1,1,1
13,396,2,61,34,1,2,0,2.145622e+00,NaN,1,0,2,1
13,397,3,143,48,1,1,1,1.001771e+00,NaN,1,1,3,1
13,398,3,107,5,1,1,1,7.756867e-01,NaN,1,0,3,1
13,399,3,28,66,2,2,1,6.064147e-01,NaN,1,0,1,1
13,400,3,115,18,2,2,1,1.179701e+00,NaN,1,0,3,1
13,401,3,34,42,1,1,1,1.386170e+00,NaN,1,0,1,1
13,402,3,15,27,1,1,1,2.064094e+00,NaN,1,1,1,1
13,403,3,38,6,1,1,1,6.828332e-01,NaN,1,0,1,1
13,404,3,113,59,1,1,1,2.109405e+00,NaN,1,0,3,1
13,405,3,61,34,2,1,0,1.054640e+00,NaN,1,0,2,1
13,406,3,55,54,1,1,1,7.857545e-01,NaN,1,0,2,1
13,407,3,31,53,1,1,1,1.191867e+00,NaN,1,0,1,1
13,408,3,19,68,1,1,1,9.900164e-01,NaN,1,0,1,1
13,409,3,1,35,2,2,1,8.760662e-01,NaN,1,0,1,1
13,410,3,101,22,2,2,1,6.387125e-01,NaN,1,0,3,1
13,411,3,8,17,1,1,1,1.098672e+00,NaN,1,0,1,1
13,412,3,53,7,1,1,1,7.879170e-01,NaN,1,0,2,1
13,413,3,47,62,1,2,0,1.234216e+00,NaN,1,1,1,1
13,414,3,27,45,2,2,1,1.166314e+00,NaN,1,0,1,1
13,415,3,111,67,2,2,1,7.974019e-01,NaN,1,1,3,1
13,416,3,71,15,1,1,1,6.750133e-01,NaN,1,0,2,1
13,417,3,128,11,1,1,1,1.245654e+00,NaN,1,0,3,1
13,418,3,80,52,2,2,1,6.973364e-01,NaN,1,1,2,1
13,419,3,91,23,1,1,1,5.627646e-01,NaN,1,0,2,1
13,420,3,64,31,2,2,1,5.298870e-01,NaN,1,0,2,1
13,445,2,68,44,1,1,1,9.277383e-01,NaN,1,1,2,2
13,446,2,62,33,2,2,1,9.839779e-01,NaN,1,1,2,2
13,447,2,112,70,1,1,1,9.266106e-01,NaN,1,0,3,2
13,448,2,138,37,2,2,1,2.055049e+00,NaN,1,0,3,2
13,449,2,42,14,1,1,1,1.162285e+00,NaN,1,0,1,2
13,450,2,118,50,2,2,1,1.264987e+00,NaN,1,1,3,2
13,451,2,29,4,2,2,1,1.451833e+00,NaN,1,0,1,2
13,452,2,136,39,2,2,1,1.007544e+00,NaN,1,0,3,2
13,453,2,135,24,1,1,1,7.652304e-01,NaN,1,1,3,2
13,454,2,141,9,2,2,1,1.251744e+00,NaN,1,0,3,2
13,455,2,140,56,1,1,1,2.807486e+00,NaN,1,0,3,2
13,456,2,7,61,2,2,1,1.060830e+00,NaN,1,0,1,2
13,457,2,50,51,2,2,1,9.519190e-01,NaN,1,0,2,2
13,458,2,121,49,1,1,1,1.167457e+00,NaN,1,1,3,2
13,459,2,119,29,1,1,1,1.086463e+00,NaN,1,0,3,2
13,460,2,72,63,2,2,1,6.087230e-01,NaN,1,0,2,2
13,461,2,10,3,2,2,1,6.222965e-01,NaN,1,0,1,2
13,462,2,16,10,2,2,1,7.386838e-01,NaN,1,0,1,2
13,463,2,90,47,2,2,1,1.386750e+00,NaN,1,0,2,2
13,464,2,93,32,1,1,1,6.648386e-01,NaN,1,0,2,2
13,465,2,2,40,2,1,0,2.291748e+00,NaN,1,1,1,2
13,466,2,142,12,2,2,1,1.509736e+00,NaN,1,1,3,2
13,467,2,52,72,1,1,1,7.589991e-01,NaN,1,0,2,2
13,468,2,86,55,2,2,1,5.183751e-01,NaN,1,1,2,2
13,469,3,138,37,2,2,1,8.949745e-01,NaN,1,0,3,2
13,470,3,93,32,1,1,1,5.203323e-01,NaN,1,0,2,2
13,471,3,112,70,2,2,1,1.032988e+00,NaN,1,0,3,2
13,472,3,16,10,2,2,1,8.697705e-01,NaN,1,0,1,2
13,473,3,141,9,1,1,1,1.328427e+00,NaN,1,0,3,2
13,474,3,140,56,1,1,1,1.864385e+00,NaN,1,0,3,2
13,475,3,68,44,2,2,1,5.155356e-01,NaN,1,1,2,2
13,476,3,50,51,1,1,1,7.328280e-01,NaN,1,0,2,2
13,477,3,119,29,2,2,1,9.252501e-01,NaN,1,0,3,2
13,478,3,42,14,2,2,1,7.094236e-01,NaN,1,0,1,2
13,479,3,7,61,2,2,1,7.669057e-01,NaN,1,0,1,2
13,480,3,52,72,1,1,1,7.818212e-01,NaN,1,0,2,2
13,481,3,62,33,2,2,1,7.081081e-01,NaN,1,1,2,2
13,482,3,118,50,1,1,1,1.413220e+00,NaN,1,1,3,2
13,483,3,10,3,2,2,1,6.907745e-01,NaN,1,0,1,2
13,484,3,142,12,1,1,1,1.748536e+00,NaN,1,1,3,2
13,485,3,90,47,2,2,1,2.396094e+00,NaN,1,0,2,2
13,486,3,135,24,1,1,1,5.617461e-01,NaN,1,1,3,2
13,487,3,121,49,2,2,1,7.922926e-01,NaN,1,1,3,2
13,488,3,72,63,1,1,1,7.266983e-01,NaN,1,0,2,2
13,489,3,29,4,1,1,1,1.007459e+00,NaN,1,0,1,2
13,490,3,136,39,2,2,1,9.323330e-01,NaN,1,0,3,2
13,491,3,2,40,2,2,1,1.916727e+00,NaN,1,1,1,2
13,492,3,86,55,2,2,1,5.258220e-01,NaN,1,1,2,2
13,517,2,132,36,1,1,1,1.337292e+00,NaN,1,1,3,3
13,518,2,45,1,1,1,1,1.224957e+00,NaN,1,0,1,3
13,519,2,59,13,2,2,1,1.285657e+00,NaN,1,0,2,3
13,520,2,84,58,1,1,1,6.722879e-01,NaN,1,0,2,3
13,521,2,65,64,2,2,1,1.050662e+00,NaN,1,0,2,3
13,522,2,63,28,1,1,1,1.478290e+00,NaN,1,0,2,3
13,523,2,103,38,2,2,1,1.296719e+00,NaN,1,1,3,3
13,524,2,13,41,1,1,1,6.987983e-01,NaN,1,1,1,3
13,525,2,134,30,2,2,1,7.480378e-01,NaN,1,0,3,3
13,526,2,85,2,2,2,1,6.356831e-01,NaN,1,0,2,3
13,527,2,144,69,2,2,1,2.495939e+00,NaN,1,0,3,3
13,528,2,109,26,2,2,1,1.353610e+00,NaN,1,0,3,3
13,529,2,41,60,2,2,1,1.448926e+00,NaN,1,0,1,3
13,530,2,40,71,2,2,1,9.167625e-01,NaN,1,0,1,3
13,531,2,74,8,1,1,1,1.253508e+00,NaN,1,0,2,3
13,532,2,99,43,1,1,1,1.232599e+00,NaN,1,0,3,3
13,533,2,78,21,2,2,1,7.571080e-01,NaN,1,0,2,3
13,534,2,25,19,2,2,1,2.243997e+00,NaN,1,0,1,3
13,535,2,88,16,2,2,1,8.084170e-01,NaN,1,0,2,3
13,536,2,130,25,2,2,1,1.221588e+00,NaN,1,0,3,3
13,537,2,14,20,1,1,1,2.201989e+00,NaN,1,0,1,3
13,538,2,73,65,1,2,0,1.951493e+00,NaN,1,1,2,3
13,539,2,3,46,1,1,1,1.431212e+00,NaN,1,1,1,3
13,540,2,30,57,2,2,1,1.363212e+00,NaN,1,0,1,3
13,541,3,3,46,1,1,1,1.359436e+00,NaN,1,1,1,3
13,542,3,78,21,1,1,1,9.348087e-01,NaN,1,0,2,3
13,543,3,41,60,1,0,0,3.500085e+00,NaN,1,0,1,3
13,544,3,30,57,1,1,1,6.723277e-01,NaN,1,0,1,3
13,545,3,88,16,2,2,1,6.429936e-01,NaN,1,0,2,3
13,546,3,130,25,2,2,1,7.350695e-01,NaN,1,0,3,3
13,547,3,65,64,2,2,1,6.957469e-01,NaN,1,0,2,3
13,548,3,73,65,1,1,1,6.970406e-01,NaN,1,1,2,3
13,549,3,109,26,1,1,1,9.148234e-01,NaN,1,0,3,3
13,550,3,63,28,2,2,1,1.107727e+00,NaN,1,0,2,3
13,551,3,25,19,1,1,1,1.037474e+00,NaN,1,0,1,3
13,552,3,84,58,1,1,1,8.651867e-01,NaN,1,0,2,3
13,553,3,40,71,1,1,1,1.379906e+00,NaN,1,0,1,3
13,554,3,132,36,2,2,1,1.778151e+00,NaN,1,1,3,3
13,555,3,45,1,1,1,1,1.928277e+00,NaN,1,0,1,3
13,556,3,144,69,1,1,1,1.401050e+00,NaN,1,0,3,3
13,557,3,13,41,1,1,1,8.706836e-01,NaN,1,1,1,3
13,558,3,59,13,2,2,1,1.681401e+00,NaN,1,0,2,3
13,559,3,103,38,2,2,1,9.957660e-01,NaN,1,1,3,3
13,560,3,14,20,2,2,1,1.593163e+00,NaN,1,0,1,3
13,561,3,134,30,1,1,1,1.910934e+00,NaN,1,0,3,3
13,562,3,85,2,2,2,1,7.922817e-01,NaN,1,0,2,3
13,563,3,74,8,1,1,1,6.143524e-01,NaN,1,0,2,3
13,564,3,99,43,1,1,1,1.187468e+00,NaN,1,0,3,3
13,589,4,92,24,1,1,1,1.164336e+00,NaN,2,1,2,1
13,590,4,20,64,1,1,1,1.219560e+00,NaN,2,0,1,1
13,591,4,26,67,1,1,1,1.552291e+00,NaN,2,1,1,1
13,592,4,17,52,1,1,1,9.358773e-01,NaN,2,1,1,1
13,593,4,43,50,1,2,0,1.336301e+00,NaN,2,1,1,1
13,594,4,48,56,1,1,1,8.968318e-01,NaN,2,0,1,1
13,595,4,133,4,2,2,1,1.106352e+00,NaN,2,0,3,1
13,596,4,56,3,1,1,1,6.834279e-01,NaN,2,0,2,1
13,597,4,102,51,2,1,0,1.365707e+00,NaN,2,0,3,1
13,598,4,79,69,1,1,1,1.588721e+00,NaN,2,0,2,1
13,599,4,35,39,2,2,1,1.298331e+00,NaN,2,0,1,1
13,600,4,44,11,1,2,0,1.556254e+00,NaN,2,0,1,1
13,601,4,106,55,1,1,1,1.163423e+00,NaN,2,1,3,1
13,602,4,67,10,2,2,1,2.210470e+00,NaN,2,0,2,1
13,603,4,87,5,1,2,0,1.655661e+00,NaN,2,0,2,1
13,604,4,60,62,1,2,0,8.506497e-01,NaN,2,1,2,1
13,605,4,18,33,2,1,0,1.158394e+00,NaN,2,1,1,1
13,606,4,9,15,1,1,1,1.046036e+00,NaN,2,0,1,1
13,607,4,36,25,2,2,1,7.214673e-01,NaN,2,0,1,1
13,608,4,21,21,1,1,1,7.701961e-01,NaN,2,0,1,1
13,609,4,137,71,2,2,1,1.272889e+00,NaN,2,0,3,1
13,610,4,5,58,2,2,1,1.123928e+00,NaN,2,0,1,1
13,611,4,77,49,2,2,1,1.212495e+00,NaN,2,1,2,1
13,612,4,37,70,2,1,0,1.393460e+00,NaN,2,0,1,1
13,637,4,76,37,1,1,1,1.025445e+00,NaN,2,0,2,2
13,638,4,46,30,2,1,0,1.102372e+00,NaN,2,0,1,2
13,639,4,122,46,2,2,1,1.096270e+00,NaN,2,1,3,2
13,640,4,123,42,1,1,1,1.401412e+00,NaN,2,0,3,2
13,641,4,24,18,2,2,1,1.223053e+00,NaN,2,0,1,2
13,642,4,66,6,2,2,1,1.747549e+00,NaN,2,0,2,2
13,643,4,127,27,2,2,1,1.163222e+00,NaN,2,1,3,2
13,644,4,32,59,1,1,1,1.250160e+00,NaN,2,0,1,2
13,645,4,57,35,2,2,1,5.502665e-01,NaN,2,0,2,2
13,646,4,83,26,2,2,1,8.537820e-01,NaN,2,0,2,2
13,647,4,108,47,2,1,0,1.848705e+00,NaN,2,0,3,2
13,648,4,124,61,2,2,1,1.284640e+00,NaN,2,0,3,2
13,649,4,12,31,2,2,1,1.054875e+00,NaN,2,0,1,2
13,650,4,125,60,2,2,1,9.938115e-01,NaN,2,0,3,2
13,651,4,81,9,2,2,1,4.802684e-01,NaN,2,0,2,2
13,652,4,96,12,2,2,1,6.666678e-01,NaN,2,1,2,2
13,653,4,105,54,1,1,1,1.213685e+00,NaN,2,0,3,2
13,654,4,97,44,1,2,0,1.570358e+00,NaN,2,1,3,2
13,655,4,58,41,1,1,1,1.024730e+00,NaN,2,1,2,2
13,656,4,6,16,2,2,1,1.125666e+00,NaN,2,0,1,2
13,657,4,22,63,2,2,1,1.318284e+00,NaN,2,0,1,2
13,658,4,51,53,2,2,1,1.111183e+00,NaN,2,0,2,2
13,659,4,95,22,1,1,1,1.432379e+00,NaN,2,0,2,2
13,660,4,39,36,1,1,1,1.244966e+00,NaN,2,1,1,2
13,685,4,114,13,2,2,1,9.727272e-01,NaN,2,0,3,3
13,686,4,129,19,2,2,1,1.483217e+00,NaN,2,0,3,3
13,687,4,117,7,2,2,1,9.418985e-01,NaN,2,0,3,3
13,688,4,116,34,1,1,1,1.485625e+00,NaN,2,0,3,3
13,689,4,49,1,1,1,1,8.722098e-01,NaN,2,0,2,3
13,690,4,126,68,2,2,1,2.370370e+00,NaN,2,0,3,3
13,691,4,98,2,2,2,1,1.128930e+00,NaN,2,0,3,3
13,692,4,75,45,2,2,1,9.055353e-01,NaN,2,0,2,3
13,693,4,100,32,1,1,1,1.034482e+00,NaN,2,0,3,3
13,694,4,89,38,1,1,1,1.486703e+00,NaN,2,1,2,3
13,695,4,54,40,1,1,1,2.040979e+00,NaN,2,1,2,3
13,696,4,120,14,1,1,1,1.317077e+00,NaN,2,0,3,3
13,697,4,131,57,2,2,1,1.093824e+00,NaN,2,0,3,3
13,698,4,4,72,1,1,1,1.159908e+00,NaN,2,0,1,3
13,699,4,139,20,1,1,1,1.583083e+00,NaN,2,0,3,3
13,700,4,23,8,1,1,1,1.181480e+00,NaN,2,0,1,3
13,701,4,69,17,2,2,1,5.556135e-01,NaN,2,0,2,3
13,702,4,94,29,1,1,1,5.870554e-01,NaN,2,0,2,3
13,703,4,70,66,1,1,1,1.185174e+00,NaN,2,0,2,3
13,704,4,110,23,1,1,1,1.303340e+00,NaN,2,0,3,3
13,705,4,104,65,1,1,1,1.080993e+00,NaN,2,1,3,3
13,706,4,11,28,1,1,1,7.154621e-01,NaN,2,0,1,3
13,707,4,82,43,1,1,1,7.803738e-01,NaN,2,0,2,3
13,708,4,33,48,2,2,1,1.434689e+00,NaN,2,1,1,3
13,709,5,9.982000e+01,43,3,3,1,1.604245e+00,1,1,0,3.200000e+00,1
13,710,5,2.775000e+01,45,1,1,1,1.558885e+00,1,1,0,1.200000e+00,1
13,711,5,1.404800e+02,56,3,4,0,9.932661e-01,1,1,0,3.100000e+00,1
13,712,5,3.523000e+01,42,1,1,1,3.874369e-01,1,1,0,1.300000e+00,1
13,713,5,1.056000e+01,3,1,1,1,7.807167e-01,1,1,0,1.200000e+00,1
13,714,5,6.311000e+01,28,2,3,0,4.547559e-01,1,1,0,2.100000e+00,1
13,715,5,9.108000e+01,47,2,0,0,2.500173e+00,1,1,0,2.300000e+00,1
13,716,5,6.216000e+01,34,2,2,1,4.824954e-01,1,1,0,2.300000e+00,1
13,717,5,3.033000e+01,4,1,1,1,5.645439e-01,1,1,0,1.300000e+00,1
13,718,5,1.199400e+02,29,3,3,1,3.498137e-01,1,1,0,3.200000e+00,1
13,719,5,6.412000e+01,31,2,2,1,3.280755e-01,1,1,0,2.100000e+00,1
13,720,5,8.806000e+01,16,2,1,0,3.696261e-01,1,1,0,2.100000e+00,1
13,721,5,2.775000e+01,45,1,1,1,3.551649e-01,2,1,0,1.200000e+00,1
13,722,5,1.539000e+01,20,1,3,0,3.166726e-01,1,1,0,1.300000e+00,1
13,723,5,6.520000e+01,64,2,3,0,1.038998e+00,1,1,0,2.100000e+00,1
13,724,5,1.133200e+02,59,3,3,1,9.762687e-01,1,1,0,3.100000e+00,1
13,725,5,7.423000e+01,8,2,2,1,3.544558e-01,1,1,0,2.100000e+00,1
13,726,5,3.151000e+01,53,1,1,1,3.562059e-01,1,1,0,1.200000e+00,1
13,727,5,1.667000e+01,10,1,4,0,1.109856e+00,1,1,0,1.200000e+00,1
13,728,5,7.222000e+01,63,2,2,1,4.477986e-01,1,1,0,2.100000e+00,1
13,729,5,1.404800e+02,56,3,3,1,5.777938e-01,2,1,0,3.100000e+00,1
13,730,5,9.108000e+01,47,2,1,0,6.036003e-01,2,1,0,2.300000e+00,1
13,731,5,2.629000e+01,19,1,1,1,3.575815e-01,1,1,0,1.300000e+00,1
13,732,5,8.240000e+00,61,1,1,1,3.109134e-01,1,1,0,1.300000e+00,1
13,733,5,1.447900e+02,69,3,1,0,1.089362e+00,1,1,0,3.200000e+00,1
13,734,5,5.204000e+01,72,2,2,1,3.710578e-01,1,1,0,2.100000e+00,1
13,735,5,1.284400e+02,11,3,3,1,3.003898e-01,1,1,0,3.100000e+00,1
13,736,5,1.098300e+02,26,3,3,1,4.631391e-01,1,1,0,3.200000e+00,1
13,737,5,2.026000e+01,68,1,1,1,3.600147e-01,1,1,0,1.300000e+00,1
13,738,5,9.108000e+01,47,2,2,1,8.180888e-01,3,1,0,2.300000e+00,1
13,739,5,1.447900e+02,69,3,1,0,1.036109e+00,2,1,0,3.200000e+00,1
13,740,5,5.204000e+01,72,2,2,1,3.582350e-01,2,1,0,2.100000e+00,1
13,741,5,3.151000e+01,53,1,1,1,2.878577e-01,2,1,0,1.200000e+00,1
13,742,5,4.549000e+01,1,1,1,1,4.255654e-01,1,1,0,1.200000e+00,1
13,743,5,5.417000e+01,7,2,2,1,4.115020e-01,1,1,0,2.300000e+00,1
13,744,5,1.303600e+02,25,3,3,1,3.812994e-01,1,1,0,3.100000e+00,1
13,745,5,4.320000e+01,14,1,1,1,3.276961e-01,1,1,0,1.300000e+00,1
13,746,5,4.225000e+01,60,1,0,0,2.500350e+00,1,1,0,1.300000e+00,1
13,747,5,6.412000e+01,31,2,2,1,7.952923e-01,2,1,0,2.100000e+00,1
13,748,5,1.056000e+01,3,1,1,1,7.088721e-01,2,1,0,1.200000e+00,1
13,749,5,1.539000e+01,20,1,3,0,3.911916e-01,2,1,0,1.300000e+00,1
13,750,5,1.344600e+02,30,3,3,1,3.929791e-01,1,1,0,3.100000e+00,1
13,751,5,9.210000e+01,23,2,2,1,3.308061e-01,1,1,0,2.300000e+00,1
13,752,5,5.605000e+01,54,2,2,1,3.243713e-01,1,1,0,2.300000e+00,1
13,753,5,2.870000e+01,66,1,1,1,3.423505e-01,1,1,0,1.200000e+00,1
13,754,5,9.210000e+01,23,2,3,0,1.248212e+00,2,1,0,2.300000e+00,1
13,755,5,8.690000e+00,17,1,1,1,4.257157e-01,1,1,0,1.200000e+00,1
13,756,5,2.870000e+01,66,1,1,1,6.516922e-01,2,1,0,1.200000e+00,1
13,757,5,2.026000e+01,68,1,3,0,5.582063e-01,2,1,0,1.300000e+00,1
13,758,5,3.033000e+01,4,1,3,0,6.801477e-01,2,1,0,1.300000e+00,1
13,759,5,6.412000e+01,31,2,2,1,3.533979e-01,3,1,0,2.100000e+00,1
13,760,5,5.204000e+01,72,2,2,1,4.915777e-01,3,1,0,2.100000e+00,1
13,761,5,6.014000e+01,13,2,2,1,3.491762e-01,1,1,0,2.300000e+00,1
13,762,5,3.523000e+01,42,1,1,1,1.566848e+00,2,1,0,1.300000e+00,1
13,763,5,3.151000e+01,53,1,1,1,3.129635e-01,3,1,0,1.200000e+00,1
13,764,5,8.405000e+01,58,2,2,1,8.427971e-01,1,1,0,2.100000e+00,1
13,765,5,5.605000e+01,54,2,2,1,7.405782e-01,2,1,0,2.300000e+00,1
13,766,5,8.598000e+01,2,2,3,0,3.421051e-01,1,1,0,2.300000e+00,1
13,767,5,2.870000e+01,66,1,1,1,4.726322e-01,3,1,0,1.200000e+00,1
13,768,5,1.418100e+02,9,3,3,1,5.220661e-01,1,1,0,3.200000e+00,1
13,769,5,94,32,2,2,1,2.917817e-01,1,1,0,2.300000e+00,1
13,770,5,8.240000e+00,61,1,1,1,1.197583e+00,2,1,0,1.300000e+00,1
13,771,5,6.311000e+01,28,2,1,0,3.992763e-01,2,1,0,2.100000e+00,1
13,772,5,7.109000e+01,15,2,2,1,3.294167e-01,1,1,0,2.100000e+00,1
13,773,5,8.690000e+00,17,1,1,1,1.251039e+00,2,1,0,1.200000e+00,1
13,774,5,1.019500e+02,22,3,0,0,2.500460e+00,1,1,0,3.200000e+00,1
13,775,5,2.026000e+01,68,1,1,1,1.103067e+00,3,1,0,1.300000e+00,1
13,776,5,2.026000e+01,68,1,1,1,7.449659e-01,4,1,0,1.300000e+00,1
13,777,5,1.418100e+02,9,3,3,1,6.187347e-01,2,1,0,3.200000e+00,1
13,778,5,1.303600e+02,25,3,1,0,4.684039e-01,2,1,0,3.100000e+00,1
13,779,5,1.133200e+02,59,3,3,1,2.864667e-01,2,1,0,3.100000e+00,1
13,780,5,1.667000e+01,10,1,1,1,1.551996e+00,2,1,0,1.200000e+00,1
13,781,5,3.033000e+01,4,1,1,1,5.785551e-01,3,1,0,1.300000e+00,1
13,782,5,1.570000e+00,35,1,1,1,3.642526e-01,1,1,0,1.200000e+00,1
13,783,5,1.539000e+01,20,1,1,1,3.175272e-01,3,1,0,1.300000e+00,1
13,784,5,3.033000e+01,4,1,1,1,2.879325e-01,4,1,0,1.300000e+00,1
13,785,5,6.520000e+01,64,2,2,1,5.616359e-01,2,1,0,2.100000e+00,1
13,786,5,94,32,2,2,1,4.190872e-01,2,1,0,2.300000e+00,1
13,787,5,1.133200e+02,59,3,3,1,2.693979e-01,3,1,0,3.100000e+00,1
13,788,5,3.131000e+01,57,1,3,0,3.671362e-01,1,1,0,1.300000e+00,1
13,789,5,1.123700e+02,70,3,3,1,2.973339e-01,1,1,0,3.100000e+00,1
13,790,5,6.216000e+01,34,2,2,1,3.148441e-01,2,1,0,2.300000e+00,1
13,791,5,4.320000e+01,14,1,1,1,3.486398e-01,2,1,0,1.300000e+00,1
13,792,5,1.199400e+02,29,3,3,1,3.741565e-01,2,1,0,3.200000e+00,1
13,793,5,7.109000e+01,15,2,2,1,1.632227e+00,2,1,0,2.100000e+00,1
13,794,5,1.363500e+02,39,3,3,1,3.382692e-01,1,1,0,3.100000e+00,1
13,795,5,4.225000e+01,60,1,3,0,8.599777e-01,2,1,0,1.300000e+00,1
13,796,5,8.405000e+01,58,2,2,1,2.939179e-01,2,1,0,2.100000e+00,1
13,797,5,8.690000e+00,17,1,1,1,3.360286e-01,3,1,0,1.200000e+00,1
13,798,5,1.447900e+02,69,3,4,0,9.302065e-01,3,1,0,3.200000e+00,1
13,799,5,4.137000e+01,71,1,0,0,2.500160e+00,1,1,0,1.300000e+00,1
13,800,5,4.137000e+01,71,1,1,1,3.818696e-01,2,1,0,1.300000e+00,1
13,801,5,7.423000e+01,8,2,2,1,3.116046e-01,2,1,0,2.100000e+00,1
13,802,5,6.216000e+01,34,2,2,1,1.025303e+00,3,1,0,2.300000e+00,1
13,803,5,1.078700e+02,5,3,1,0,6.117882e-01,1,1,0,3.200000e+00,1
13,804,5,1.078700e+02,5,3,3,1,2.611583e-01,2,1,0,3.200000e+00,1
13,805,5,1.418100e+02,9,3,3,1,3.276647e-01,3,1,0,3.200000e+00,1
13,806,5,94,32,2,0,0,2.500489e+00,3,1,0,2.300000e+00,1
13,807,5,1.404800e+02,56,3,3,1,9.955613e-01,3,1,0,3.100000e+00,1
13,808,5,9.982000e+01,43,3,3,1,6.288469e-01,2,1,0,3.200000e+00,1
13,809,5,3.523000e+01,42,1,1,1,3.266877e-01,3,1,0,1.300000e+00,1
13,810,5,1.344600e+02,30,3,3,1,3.848036e-01,2,1,0,3.100000e+00,1
13,811,5,1.152400e+02,18,3,0,0,2.500556e+00,1,1,0,3.100000e+00,1
13,812,5,2.775000e+01,45,1,1,1,7.012511e-01,3,1,0,1.200000e+00,1
13,813,5,5.102000e+01,51,2,2,1,1.079421e+00,1,1,0,2.300000e+00,1
13,814,5,1.152400e+02,18,3,3,1,7.929322e-01,2,1,0,3.100000e+00,1
13,815,5,5.102000e+01,51,2,2,1,7.946953e-01,2,1,0,2.300000e+00,1
13,816,5,1.387600e+02,37,3,4,0,5.084308e-01,1,1,0,3.200000e+00,1
13,817,5,1.284400e+02,11,3,4,0,4.865939e-01,2,1,0,3.100000e+00,1
13,818,5,8.240000e+00,61,1,1,1,1.144067e+00,3,1,0,1.300000e+00,1
13,819,5,1.418100e+02,9,3,3,1,4.902109e-01,4,1,0,3.200000e+00,1
13,820,5,1.570000e+00,35,1,0,0,2.500335e+00,2,1,0,1.200000e+00,1
13,821,5,3.131000e+01,57,1,3,0,5.905225e-01,2,1,0,1.300000e+00,1
13,822,5,1.284400e+02,11,3,3,1,2.957791e-01,3,1,0,3.100000e+00,1
13,823,5,1.098300e+02,26,3,3,1,2.737768e-01,2,1,0,3.200000e+00,1
13,824,5,9.982000e+01,43,3,3,1,2.912444e-01,3,1,0,3.200000e+00,1
13,825,5,8.806000e+01,16,2,1,0,2.531328e-01,2,1,0,2.100000e+00,1
13,826,5,8.598000e+01,2,2,3,0,3.186814e-01,2,1,0,2.300000e+00,1
13,827,5,8.690000e+00,17,1,1,1,3.208919e-01,4,1,0,1.200000e+00,1
13,828,5,7.821000e+01,21,2,2,1,4.343573e-01,1,1,0,2.100000e+00,1
13,829,5,5.605000e+01,54,2,2,1,3.004197e-01,3,1,0,2.300000e+00,1
13,830,5,1.447900e+02,69,3,1,0,1.174606e+00,4,1,0,3.200000e+00,1
13,831,5,3.151000e+01,53,1,1,1,4.161064e-01,4,1,0,1.200000e+00,1
13,832,5,6.311000e+01,28,2,1,0,4.577511e-01,3,1,0,2.100000e+00,1
13,833,5,7.222000e+01,63,2,2,1,3.155440e-01,2,1,0,2.100000e+00,1
13,834,5,8.405000e+01,58,2,2,1,3.733590e-01,3,1,0,2.100000e+00,1
13,835,5,2.870000e+01,66,1,1,1,3.668660e-01,4,1,0,1.200000e+00,1
13,836,5,8.240000e+00,61,1,1,1,2.489818e-01,4,1,0,1.300000e+00,1
13,837,5,1.387600e+02,37,3,3,1,3.546182e-01,2,1,0,3.200000e+00,1
13,838,5,9.982000e+01,43,3,3,1,3.722787e-01,4,1,0,3.200000e+00,1
13,839,5,1.133200e+02,59,3,3,1,3.102493e-01,4,1,0,3.100000e+00,1
13,840,5,1.404800e+02,56,3,3,1,7.517912e-01,4,1,0,3.100000e+00,1
13,841,5,2.629000e+01,19,1,1,1,3.378941e-01,2,1,0,1.300000e+00,1
13,842,5,6.014000e+01,13,2,2,1,5.317177e-01,2,1,0,2.300000e+00,1
13,843,5,8.598000e+01,2,2,2,1,3.096619e-01,3,1,0,2.300000e+00,1
13,844,5,7.109000e+01,15,2,1,0,4.792849e-01,3,1,0,2.100000e+00,1
13,845,5,4.549000e+01,1,1,0,0,2.500019e+00,2,1,0,1.200000e+00,1
13,846,5,1.570000e+00,35,1,1,1,1.003734e+00,3,1,0,1.200000e+00,1
13,847,5,3.866000e+01,6,1,1,1,5.891343e-01,1,1,0,1.200000e+00,1
13,848,5,1.303600e+02,25,3,3,1,3.429751e-01,3,1,0,3.100000e+00,1
13,849,5,1.344600e+02,30,3,3,1,3.847964e-01,3,1,0,3.100000e+00,1
13,850,5,7.222000e+01,63,2,2,1,3.791497e-01,3,1,0,2.100000e+00,1
13,851,5,1.303600e+02,25,3,3,1,3.089722e-01,4,1,0,3.100000e+00,1
13,852,5,1.667000e+01,10,1,1,1,3.665648e-01,3,1,0,1.200000e+00,1
13,853,5,1.123700e+02,70,3,3,1,9.048129e-01,2,1,0,3.100000e+00,1
13,854,5,2.629000e+01,19,1,1,1,3.537640e-01,3,1,0,1.300000e+00,1
13,855,5,7.821000e+01,21,2,2,1,2.995823e-01,2,1,0,2.100000e+00,1
13,856,5,5.204000e+01,72,2,2,1,3.011673e-01,4,1,0,2.100000e+00,1
13,857,5,1.539000e+01,20,1,3,0,4.069218e-01,4,1,0,1.300000e+00,1
13,858,5,1.387600e+02,37,3,3,1,3.210588e-01,3,1,0,3.200000e+00,1
13,859,5,1.056000e+01,3,1,1,1,2.903690e-01,3,1,0,1.200000e+00,1
13,860,5,2.775000e+01,45,1,1,1,3.246016e-01,4,1,0,1.200000e+00,1
13,861,5,9.108000e+01,47,2,1,0,4.137653e-01,4,1,0,2.300000e+00,1
13,862,5,3.866000e+01,6,1,1,1,3.355955e-01,2,1,0,1.200000e+00,1
13,863,5,5.417000e+01,7,2,2,1,3.294481e-01,2,1,0,2.300000e+00,1
13,864,5,7.423000e+01,8,2,2,1,3.954129e-01,3,1,0,2.100000e+00,1
13,865,5,1.667000e+01,10,1,1,1,3.335840e-01,4,1,0,1.200000e+00,1
13,866,5,6.520000e+01,64,2,2,1,6.470791e-01,3,1,0,2.100000e+00,1
13,867,5,4.225000e+01,60,1,4,0,3.766791e-01,3,1,0,1.300000e+00,1
13,868,5,6.311000e+01,28,2,4,0,3.225988e-01,4,1,0,2.100000e+00,1
13,869,5,1.019500e+02,22,3,0,0,2.500499e+00,2,1,0,3.200000e+00,1
13,870,5,1.344600e+02,30,3,3,1,5.107496e-01,4,1,0,3.100000e+00,1
13,871,5,6.014000e+01,13,2,2,1,5.689355e-01,3,1,0,2.300000e+00,1
13,872,5,6.216000e+01,34,2,2,1,2.748767e-01,4,1,0,2.300000e+00,1
13,873,5,8.806000e+01,16,2,1,0,2.844607e-01,3,1,0,2.100000e+00,1
13,874,5,1.098300e+02,26,3,3,1,3.583379e-01,3,1,0,3.200000e+00,1
13,875,5,6.412000e+01,31,2,2,1,3.363718e-01,4,1,0,2.100000e+00,1
13,876,5,5.417000e+01,7,2,2,1,9.862641e-01,3,1,0,2.300000e+00,1
13,877,5,5.605000e+01,54,2,2,1,3.962648e-01,4,1,0,2.300000e+00,1
13,878,5,1.078700e+02,5,3,3,1,1.166173e+00,3,1,0,3.200000e+00,1
13,879,5,4.137000e+01,71,1,1,1,3.835558e-01,3,1,0,1.300000e+00,1
13,880,5,9.210000e+01,23,2,2,1,2.737227e-01,3,1,0,2.300000e+00,1
13,881,5,1.056000e+01,3,1,1,1,4.835597e-01,4,1,0,1.200000e+00,1
13,882,5,3.131000e+01,57,1,4,0,7.653125e-01,3,1,0,1.300000e+00,1
13,883,5,3.866000e+01,6,1,1,1,5.831752e-01,3,1,0,1.200000e+00,1
13,884,5,1.098300e+02,26,3,3,1,1.161060e+00,4,1,0,3.200000e+00,1
13,885,5,5.102000e+01,51,2,2,1,2.830538e-01,3,1,0,2.300000e+00,1
13,886,5,4.137000e+01,71,1,1,1,3.571184e-01,4,1,0,1.300000e+00,1
13,887,5,1.123700e+02,70,3,1,0,3.268434e-01,3,1,0,3.100000e+00,1
13,888,5,5.102000e+01,51,2,2,1,2.887680e-01,4,1,0,2.300000e+00,1
13,889,5,1.199400e+02,29,3,3,1,2.985675e-01,3,1,0,3.200000e+00,1
13,890,5,1.019500e+02,22,3,0,0,2.500342e+00,3,1,0,3.200000e+00,1
13,891,5,8.405000e+01,58,2,2,1,4.224105e-01,4,1,0,2.100000e+00,1
13,892,5,8.806000e+01,16,2,1,0,2.878595e-01,4,1,0,2.100000e+00,1
13,893,5,7.821000e+01,21,2,2,1,2.418893e-01,3,1,0,2.100000e+00,1
13,894,5,1.363500e+02,39,3,3,1,3.236577e-01,2,1,0,3.100000e+00,1
13,895,5,3.523000e+01,42,1,1,1,2.931515e-01,4,1,0,1.300000e+00,1
13,896,5,7.222000e+01,63,2,2,1,2.953673e-01,4,1,0,2.100000e+00,1
13,897,5,1.078700e+02,5,3,3,1,2.970544e-01,4,1,0,3.200000e+00,1
13,898,5,1.363500e+02,39,3,3,1,3.228850e-01,3,1,0,3.100000e+00,1
13,899,5,3.131000e+01,57,1,1,1,3.643764e-01,4,1,0,1.300000e+00,1
13,900,5,8.598000e+01,2,2,2,1,3.260097e-01,4,1,0,2.300000e+00,1
13,901,5,1.019500e+02,22,3,0,0,2.500178e+00,4,1,0,3.200000e+00,1
13,902,5,5.417000e+01,7,2,2,1,2.982663e-01,4,1,0,2.300000e+00,1
13,903,5,1.152400e+02,18,3,3,1,4.760244e-01,3,1,0,3.100000e+00,1
13,904,5,4.225000e+01,60,1,1,1,3.821546e-01,4,1,0,1.300000e+00,1
13,905,5,7.109000e+01,15,2,0,0,2.500174e+00,4,1,0,2.100000e+00,1
13,906,5,6.520000e+01,64,2,2,1,1.698234e+00,4,1,0,2.100000e+00,1
13,907,5,2.629000e+01,19,1,1,1,3.644186e-01,4,1,0,1.300000e+00,1
13,908,5,4.320000e+01,14,1,1,1,4.461837e-01,3,1,0,1.300000e+00,1
13,909,5,7.821000e+01,21,2,2,1,4.162284e-01,4,1,0,2.100000e+00,1
13,910,5,4.549000e+01,1,1,1,1,3.696687e-01,3,1,0,1.200000e+00,1
13,911,5,1.284400e+02,11,3,3,1,6.835815e-01,4,1,0,3.100000e+00,1
13,912,5,6.014000e+01,13,2,2,1,2.535484e-01,4,1,0,2.300000e+00,1
13,913,5,1.152400e+02,18,3,3,1,1.462933e+00,4,1,0,3.100000e+00,1
13,914,5,1.363500e+02,39,3,3,1,1.152660e+00,4,1,0,3.100000e+00,1
13,915,5,1.199400e+02,29,3,3,1,3.307378e-01,4,1,0,3.200000e+00,1
13,916,5,4.549000e+01,1,1,1,1,3.087298e-01,4,1,0,1.200000e+00,1
13,917,5,3.866000e+01,6,1,1,1,3.422256e-01,4,1,0,1.200000e+00,1
13,918,5,4.320000e+01,14,1,1,1,3.524579e-01,4,1,0,1.300000e+00,1
13,919,5,7.423000e+01,8,2,2,1,6.027416e-01,4,1,0,2.100000e+00,1
13,920,5,1.387600e+02,37,3,4,0,4.289292e-01,4,1,0,3.200000e+00,1
13,921,5,1.570000e+00,35,1,1,1,4.141166e-01,4,1,0,1.200000e+00,1
13,922,5,1.123700e+02,70,3,3,1,3.841003e-01,4,1,0,3.100000e+00,1
13,923,5,94,32,2,2,1,2.742449e-01,4,1,0,2.300000e+00,1
13,924,5,9.210000e+01,23,2,2,1,3.559563e-01,4,1,0,2.300000e+00,1
13,925,6,126,68,1,2,0,1.041532e+00,NaN,2,0,3,1
13,926,6,54,40,2,2,1,7.594862e-01,NaN,2,1,2,1
13,927,6,124,61,2,2,1,1.191887e+00,NaN,2,0,3,1
13,928,6,17,52,2,1,0,9.510032e-01,NaN,2,1,1,1
13,929,6,69,17,1,1,1,5.434916e-01,NaN,2,0,2,1
13,930,6,39,36,1,1,1,6.480797e-01,NaN,2,1,1,1
13,931,6,94,29,1,1,1,5.488234e-01,NaN,2,0,2,1
13,932,6,120,14,2,2,1,1.005240e+00,NaN,2,0,3,1
13,933,6,137,71,1,1,1,1.323490e+00,NaN,2,0,3,1
13,934,6,9,15,2,1,0,1.164876e+00,NaN,2,0,1,1
13,935,6,60,62,1,2,0,7.890534e-01,NaN,2,1,2,1
13,936,6,139,20,2,2,1,1.412156e+00,NaN,2,0,3,1
13,937,6,102,51,2,2,1,1.298131e+00,NaN,2,0,3,1
13,938,6,98,2,1,1,1,2.244921e+00,NaN,2,0,3,1
13,939,6,57,35,2,2,1,8.169568e-01,NaN,2,0,2,1
13,940,6,81,9,1,1,1,6.709211e-01,NaN,2,0,2,1
13,941,6,116,34,1,1,1,1.250636e+00,NaN,2,0,3,1
13,942,6,12,31,2,2,1,1.630691e+00,NaN,2,0,1,1
13,943,6,87,5,1,1,1,1.468229e+00,NaN,2,0,2,1
13,944,6,127,27,2,2,1,1.167542e+00,NaN,2,1,3,1
13,945,6,131,57,2,2,1,9.436761e-01,NaN,2,0,3,1
13,946,6,77,49,1,1,1,1.344019e+00,NaN,2,1,2,1
13,947,6,129,19,1,1,1,1.289114e+00,NaN,2,0,3,1
13,948,6,117,7,1,1,1,1.003916e+00,NaN,2,0,3,1
13,949,6,97,44,2,1,0,9.460121e-01,NaN,2,1,3,1
13,950,6,35,39,1,2,0,1.026533e+00,NaN,2,0,1,1
13,951,6,58,41,2,2,1,8.002254e-01,NaN,2,1,2,1
13,952,6,67,10,2,2,1,1.014233e+00,NaN,2,0,2,1
13,953,6,75,45,2,2,1,6.607823e-01,NaN,2,0,2,1
13,954,6,26,67,2,1,0,8.086935e-01,NaN,2,1,1,1
13,955,6,83,26,2,2,1,6.869371e-01,NaN,2,0,2,1
13,956,6,133,4,1,1,1,1.042204e+00,NaN,2,0,3,1
13,957,6,48,56,2,2,1,8.227985e-01,NaN,2,0,1,1
13,958,6,33,48,2,2,1,8.041325e-01,NaN,2,1,1,1
13,959,6,66,6,2,2,1,6.501857e-01,NaN,2,0,2,1
13,960,6,20,64,1,1,1,8.394611e-01,NaN,2,0,1,1
13,961,6,123,42,1,1,1,1.219798e+00,NaN,2,0,3,1
13,962,6,114,13,2,2,1,6.575333e-01,NaN,2,0,3,1
13,963,6,70,66,2,2,1,1.029629e+00,NaN,2,0,2,1
13,964,6,4,72,1,2,0,8.830805e-01,NaN,2,0,1,1
13,965,6,92,24,1,1,1,5.978429e-01,NaN,2,1,2,1
13,966,6,46,30,1,1,1,1.748462e+00,NaN,2,0,1,1
13,967,6,100,32,2,2,1,1.117080e+00,NaN,2,0,3,1
13,968,6,108,47,1,2,0,1.071139e+00,NaN,2,0,3,1
13,969,6,82,43,2,2,1,6.826017e-01,NaN,2,0,2,1
13,970,6,11,28,1,1,1,9.256842e-01,NaN,2,0,1,1
13,971,6,18,33,2,1,0,1.399243e+00,NaN,2,1,1,1
13,972,6,24,18,2,2,1,8.612928e-01,NaN,2,0,1,1
13,973,6,122,46,1,1,1,7.777631e-01,NaN,2,1,3,1
13,974,6,6,16,1,0,0,3.499513e+00,NaN,2,0,1,1
13,975,6,106,55,1,1,1,7.236343e-01,NaN,2,1,3,1
13,976,6,5,58,2,1,0,1.220796e+00,NaN,2,0,1,1
13,977,6,51,53,2,2,1,8.344764e-01,NaN,2,0,2,1
13,978,6,56,3,2,2,1,6.314265e-01,NaN,2,0,2,1
13,979,6,104,65,1,1,1,6.526708e-01,NaN,2,1,3,1
13,980,6,76,37,2,2,1,6.813361e-01,NaN,2,0,2,1
13,981,6,36,25,2,2,1,1.100148e+00,NaN,2,0,1,1
13,982,6,125,60,1,2,0,9.912153e-01,NaN,2,0,3,1
13,983,6,22,63,2,2,1,1.061768e+00,NaN,2,0,1,1
13,984,6,23,8,1,1,1,8.263458e-01,NaN,2,0,1,1
13,985,6,110,23,1,1,1,9.994192e-01,NaN,2,0,3,1
13,986,6,44,11,2,2,1,9.178669e-01,NaN,2,0,1,1
13,987,6,49,1,1,1,1,5.680037e-01,NaN,2,0,2,1
13,988,6,43,50,2,2,1,7.276978e-01,NaN,2,1,1,1
13,989,6,105,54,2,2,1,9.377333e-01,NaN,2,0,3,1
13,990,6,95,22,2,1,0,6.025487e-01,NaN,2,0,2,1
13,991,6,96,12,1,2,0,6.171140e-01,NaN,2,1,2,1
13,992,6,37,70,1,1,1,1.118809e+00,NaN,2,0,1,1
13,993,6,32,59,2,1,0,8.168343e-01,NaN,2,0,1,1
13,994,6,89,38,2,2,1,1.174622e+00,NaN,2,1,2,1
13,995,6,79,69,1,1,1,5.583090e-01,NaN,2,0,2,1
13,996,6,21,21,1,1,1,7.583926e-01,NaN,2,0,1,1
13,997,6,52,72,2,2,1,5.910039e-01,NaN,1,0,2,1
13,998,6,115,18,1,1,1,1.077248e+00,NaN,1,0,3,1
13,999,6,10,3,1,1,1,6.653605e-01,NaN,1,0,1,1
13,1000,6,134,30,1,1,1,9.489573e-01,NaN,1,0,3,1
13,1001,6,78,21,1,1,1,6.690448e-01,NaN,1,0,2,1
13,1002,6,80,52,2,2,1,7.610770e-01,NaN,1,1,2,1
13,1003,6,63,28,2,2,1,6.973962e-01,NaN,1,0,2,1
13,1004,6,121,49,2,1,0,7.319303e-01,NaN,1,1,3,1
13,1005,6,47,62,1,2,0,1.077115e+00,NaN,1,1,1,1
13,1006,6,111,67,2,1,0,8.562882e-01,NaN,1,1,3,1
13,1007,6,7,61,2,1,0,8.286085e-01,NaN,1,0,1,1
13,1008,6,119,29,2,2,1,6.979090e-01,NaN,1,0,3,1
13,1009,6,128,11,1,1,1,9.407890e-01,NaN,1,0,3,1
13,1010,6,31,53,1,1,1,1.013461e+00,NaN,1,0,1,1
13,1011,6,84,58,1,1,1,6.671390e-01,NaN,1,0,2,1
13,1012,6,1,35,2,2,1,1.198737e+00,NaN,1,0,1,1
13,1013,6,2,40,2,2,1,7.094311e-01,NaN,1,1,1,1
13,1014,6,40,71,2,2,1,9.838285e-01,NaN,1,0,1,1
13,1015,6,50,51,2,2,1,6.067003e-01,NaN,1,0,2,1
13,1016,6,8,17,2,2,1,9.086654e-01,NaN,1,0,1,1
13,1017,6,27,45,2,1,0,9.352808e-01,NaN,1,0,1,1
13,1018,6,135,24,1,1,1,6.320202e-01,NaN,1,1,3,1
13,1019,6,90,47,2,1,0,5.016872e-01,NaN,1,0,2,1
13,1020,6,73,65,1,1,1,7.441829e-01,NaN,1,1,2,1
13,1021,6,59,13,2,2,1,5.843264e-01,NaN,1,0,2,1
13,1022,6,141,9,2,2,1,1.055858e+00,NaN,1,0,3,1
13,1023,6,65,64,2,2,1,7.402232e-01,NaN,1,0,2,1
13,1024,6,72,63,2,2,1,9.887580e-01,NaN,1,0,2,1
13,1025,6,53,7,2,2,1,1.139414e+00,NaN,1,0,2,1
13,1026,6,99,43,1,1,1,1.236598e+00,NaN,1,0,3,1
13,1027,6,101,22,2,2,1,6.654981e-01,NaN,1,0,3,1
13,1028,6,62,33,2,2,1,5.655379e-01,NaN,1,1,2,1
13,1029,6,14,20,2,2,1,9.414358e-01,NaN,1,0,1,1
13,1030,6,71,15,2,2,1,6.057619e-01,NaN,1,0,2,1
13,1031,6,19,68,1,1,1,7.401121e-01,NaN,1,0,1,1
13,1032,6,85,2,2,2,1,5.009636e-01,NaN,1,0,2,1
13,1033,6,93,32,2,2,1,5.675177e-01,NaN,1,0,2,1
13,1034,6,109,26,2,2,1,5.754965e-01,NaN,1,0,3,1
13,1035,6,142,12,2,2,1,8.070903e-01,NaN,1,1,3,1
13,1036,6,86,55,1,1,1,5.738080e-01,NaN,1,1,2,1
13,1037,6,38,6,2,2,1,7.886016e-01,NaN,1,0,1,1
13,1038,6,13,41,1,1,1,5.234634e-01,NaN,1,1,1,1
13,1039,6,41,60,2,1,0,7.488286e-01,NaN,1,0,1,1
13,1040,6,28,66,2,2,1,9.014878e-01,NaN,1,0,1,1
13,1041,6,42,14,2,1,0,1.335867e+00,NaN,1,0,1,1
13,1042,6,45,1,2,2,1,9.528022e-01,NaN,1,0,1,1
13,1043,6,15,27,2,2,1,1.033313e+00,NaN,1,1,1,1
13,1044,6,107,5,2,2,1,7.103943e-01,NaN,1,0,3,1
13,1045,6,88,16,1,1,1,7.128861e-01,NaN,1,0,2,1
13,1046,6,25,19,2,2,1,1.330552e+00,NaN,1,0,1,1
13,1047,6,30,57,1,1,1,8.758561e-01,NaN,1,0,1,1
13,1048,6,103,38,1,1,1,1.055350e+00,NaN,1,1,3,1
13,1049,6,113,59,2,2,1,1.203906e+00,NaN,1,0,3,1
13,1050,6,132,36,2,2,1,1.289673e+00,NaN,1,1,3,1
13,1051,6,144,69,2,2,1,8.605346e-01,NaN,1,0,3,1
13,1052,6,61,34,1,1,1,9.285324e-01,NaN,1,0,2,1
13,1053,6,140,56,2,2,1,1.122483e+00,NaN,1,0,3,1
13,1054,6,68,44,2,2,1,5.393409e-01,NaN,1,1,2,1
13,1055,6,136,39,1,1,1,7.165415e-01,NaN,1,0,3,1
13,1056,6,143,48,1,1,1,6.306235e-01,NaN,1,1,3,1
13,1057,6,112,70,2,2,1,1.028091e+00,NaN,1,0,3,1
13,1058,6,64,31,1,1,1,6.171853e-01,NaN,1,0,2,1
13,1059,6,3,46,1,1,1,1.143122e+00,NaN,1,1,1,1
13,1060,6,130,25,2,2,1,1.055752e+00,NaN,1,0,3,1
13,1061,6,74,8,2,2,1,8.281847e-01,NaN,1,0,2,1
13,1062,6,55,54,2,2,1,7.296305e-01,NaN,1,0,2,1
13,1063,6,34,42,2,1,0,1.098479e+00,NaN,1,0,1,1
13,1064,6,91,23,2,2,1,6.450286e-01,NaN,1,0,2,1
13,1065,6,138,37,2,2,1,7.776484e-01,NaN,1,0,3,1
13,1066,6,16,10,1,1,1,8.169490e-01,NaN,1,0,1,1
13,1067,6,118,50,1,1,1,1.286726e+00,NaN,1,1,3,1
13,1068,6,29,4,2,2,1,1.218080e+00,NaN,1,0,1,1
