Subject,Trial,Cond,ImageNum,CueNum,Correct,Resp,Accuracy,RT,CueRep,ImageType,Baseline,Category,Block
46,1,1,125,NaN,NaN,1,NaN,1.482903e+00,NaN,1,0,3,1
46,2,1,20,NaN,NaN,1,NaN,5.251500e-01,NaN,0,0,1,1
46,3,1,4,NaN,NaN,1,NaN,6.343177e-01,NaN,1,0,1,1
46,4,1,1,NaN,NaN,1,NaN,4.100652e-01,NaN,2,1,1,1
46,5,1,85,NaN,NaN,1,NaN,3.554358e-01,NaN,2,0,2,1
46,6,1,106,NaN,NaN,1,NaN,5.750818e-01,NaN,2,1,3,1
46,7,1,62,NaN,NaN,1,NaN,5.375879e-01,NaN,0,0,2,1
46,8,1,64,NaN,NaN,1,NaN,8.378470e-01,NaN,1,0,2,1
46,9,1,87,NaN,NaN,1,NaN,6.855436e-01,NaN,2,1,2,1
46,10,1,13,NaN,NaN,1,NaN,4.040941e-01,NaN,0,0,1,1
46,11,1,113,NaN,NaN,1,NaN,6.130228e-01,NaN,0,1,3,1
46,12,1,116,NaN,NaN,1,NaN,4.700705e-01,NaN,0,0,3,1
46,13,1,21,NaN,NaN,1,NaN,6.927284e-01,NaN,0,0,1,1
46,14,1,66,NaN,NaN,1,NaN,6.264827e-01,NaN,2,1,2,1
46,15,1,121,NaN,NaN,2,NaN,2.451512e+00,NaN,1,0,3,1
46,16,1,123,NaN,NaN,1,NaN,6.906221e-01,NaN,0,0,3,1
46,17,1,140,NaN,NaN,1,NaN,1.544593e+00,NaN,1,0,3,1
46,18,1,47,NaN,NaN,1,NaN,5.959575e-01,NaN,1,1,1,1
46,19,1,6,NaN,NaN,1,NaN,7.334240e-01,NaN,0,0,1,1
46,20,1,118,NaN,NaN,1,NaN,7.455604e-01,NaN,1,0,3,1
46,21,1,110,NaN,NaN,2,NaN,7.247541e-01,NaN,0,0,3,1
46,22,1,27,NaN,NaN,1,NaN,5.212538e-01,NaN,0,0,1,1
46,23,1,139,NaN,NaN,1,NaN,5.184714e-01,NaN,2,0,3,1
46,24,1,71,NaN,NaN,1,NaN,5.073374e-01,NaN,0,0,2,1
46,25,1,129,NaN,NaN,1,NaN,8.484382e-01,NaN,1,0,3,1
46,26,1,56,NaN,NaN,1,NaN,6.155562e-01,NaN,0,0,2,1
46,27,1,79,NaN,NaN,1,NaN,7.124348e-01,NaN,1,0,2,1
46,28,1,99,NaN,NaN,2,NaN,3.891904e-01,NaN,0,0,3,1
46,29,1,4,NaN,NaN,1,NaN,3.270806e-01,NaN,0,0,1,1
46,30,1,133,NaN,NaN,2,NaN,4.919508e-01,NaN,0,0,3,1
46,31,1,88,NaN,NaN,1,NaN,2.822355e-01,NaN,1,1,2,1
46,32,1,106,NaN,NaN,1,NaN,4.560633e-01,NaN,0,1,3,1
46,33,1,61,NaN,NaN,1,NaN,5.912524e-01,NaN,0,0,2,1
46,34,1,46,NaN,NaN,2,NaN,3.615479e-01,NaN,2,0,1,1
46,35,1,82,NaN,NaN,1,NaN,2.120380e-01,NaN,0,0,2,1
46,36,1,94,NaN,NaN,1,NaN,2.685833e-01,NaN,0,1,2,1
46,37,1,72,NaN,NaN,1,NaN,4.435569e-01,NaN,2,0,2,1
46,38,1,80,NaN,NaN,1,NaN,3.713932e-01,NaN,0,0,2,1
46,39,1,25,NaN,NaN,1,NaN,4.061309e-01,NaN,2,0,1,1
46,40,1,25,NaN,NaN,1,NaN,4.876878e-01,NaN,0,0,1,1
46,41,1,103,NaN,NaN,1,NaN,2.774343e-01,NaN,0,0,3,1
46,42,1,98,NaN,NaN,1,NaN,1.052085e+00,NaN,0,0,3,1
46,43,1,81,NaN,NaN,1,NaN,4.675836e-01,NaN,2,0,2,1
46,44,1,90,NaN,NaN,1,NaN,5.145009e-01,NaN,0,1,2,1
46,45,1,68,NaN,NaN,1,NaN,5.349640e-01,NaN,1,0,2,1
46,46,1,131,NaN,NaN,2,NaN,9.476211e-01,NaN,0,0,3,1
46,47,1,62,NaN,NaN,1,NaN,4.387419e-01,NaN,1,0,2,1
46,48,1,78,NaN,NaN,1,NaN,5.185492e-01,NaN,0,0,2,1
46,49,1,81,NaN,NaN,1,NaN,1.043603e+00,NaN,0,0,2,1
46,50,1,112,NaN,NaN,1,NaN,5.555188e-01,NaN,1,0,3,1
46,51,1,85,NaN,NaN,1,NaN,5.585412e-01,NaN,0,0,2,1
46,52,1,92,NaN,NaN,1,NaN,2.501561e-01,NaN,0,0,2,1
46,53,1,117,NaN,NaN,2,NaN,1.481271e+00,NaN,0,0,3,1
46,54,1,118,NaN,NaN,1,NaN,1.423666e+00,NaN,0,0,3,1
46,55,1,8,NaN,NaN,1,NaN,4.002654e-01,NaN,1,1,1,1
46,56,1,60,NaN,NaN,1,NaN,4.495594e-01,NaN,0,0,2,1
46,57,1,113,NaN,NaN,1,NaN,1.377410e+00,NaN,1,1,3,1
46,58,1,54,NaN,NaN,1,NaN,8.837307e-01,NaN,0,0,2,1
46,59,1,45,NaN,NaN,2,NaN,3.695788e-01,NaN,2,0,1,1
46,60,1,44,NaN,NaN,1,NaN,7.005743e-01,NaN,1,0,1,1
46,61,1,88,NaN,NaN,1,NaN,2.018839e-01,NaN,0,1,2,1
46,62,1,124,NaN,NaN,1,NaN,7.474653e-01,NaN,1,0,3,1
46,63,1,12,NaN,NaN,1,NaN,1.374815e+00,NaN,2,0,1,1
46,64,1,135,NaN,NaN,1,NaN,5.696262e-01,NaN,2,1,3,1
46,65,1,32,NaN,NaN,1,NaN,1.387772e+00,NaN,2,0,1,1
46,66,1,78,NaN,NaN,1,NaN,5.102322e-01,NaN,1,0,2,1
46,67,1,100,NaN,NaN,2,NaN,7.951973e-01,NaN,0,0,3,1
46,68,1,57,NaN,NaN,1,NaN,3.089172e-01,NaN,1,0,2,1
46,69,1,15,NaN,NaN,1,NaN,5.943605e-01,NaN,0,0,1,1
46,70,1,101,NaN,NaN,2,NaN,4.922563e-01,NaN,2,0,3,1
46,71,1,49,NaN,NaN,1,NaN,3.624353e-01,NaN,1,0,2,1
46,72,1,21,NaN,NaN,1,NaN,4.849863e-01,NaN,2,0,1,1
46,73,1,63,NaN,NaN,1,NaN,3.711206e-01,NaN,2,0,2,1
46,74,1,83,NaN,NaN,1,NaN,5.178556e-01,NaN,1,1,2,1
46,75,1,9,NaN,NaN,1,NaN,3.302563e-01,NaN,0,0,1,1
46,76,1,34,NaN,NaN,1,NaN,4.943263e-01,NaN,2,0,1,1
46,77,1,86,NaN,NaN,1,NaN,5.327209e-01,NaN,2,1,2,1
46,78,1,119,NaN,NaN,1,NaN,7.844313e-01,NaN,0,1,3,1
46,79,1,17,NaN,NaN,1,NaN,4.907338e-01,NaN,0,1,1,1
46,80,1,108,NaN,NaN,2,NaN,7.203236e-01,NaN,1,0,3,1
46,81,1,31,NaN,NaN,1,NaN,4.532468e-01,NaN,0,0,1,1
46,82,1,59,NaN,NaN,1,NaN,6.527681e-01,NaN,0,0,2,1
46,83,1,58,NaN,NaN,1,NaN,5.081168e-01,NaN,0,0,2,1
46,84,1,131,NaN,NaN,2,NaN,1.641418e+00,NaN,1,0,3,1
46,85,1,67,NaN,NaN,1,NaN,4.331520e-01,NaN,0,1,2,1
46,86,1,12,NaN,NaN,1,NaN,2.545135e+00,NaN,0,0,1,1
46,87,1,19,NaN,NaN,1,NaN,2.092761e+00,NaN,2,1,1,1
46,88,1,135,NaN,NaN,1,NaN,5.867696e-01,NaN,0,1,3,1
46,89,1,69,NaN,NaN,1,NaN,5.970158e-01,NaN,0,0,2,1
46,90,1,93,NaN,NaN,1,NaN,3.741629e-01,NaN,0,0,2,1
46,91,1,142,NaN,NaN,2,NaN,5.451945e-01,NaN,0,0,3,1
46,92,1,56,NaN,NaN,1,NaN,4.762125e-01,NaN,2,0,2,1
46,93,1,11,NaN,NaN,1,NaN,7.954520e-01,NaN,0,0,1,1
46,94,1,76,NaN,NaN,1,NaN,6.445694e-01,NaN,0,1,2,1
46,95,1,2,NaN,NaN,1,NaN,5.804432e-01,NaN,0,1,1,1
46,96,1,104,NaN,NaN,1,NaN,5.264184e-01,NaN,2,1,3,1
46,97,1,68,NaN,NaN,1,NaN,2.354918e-01,NaN,0,0,2,1
46,98,1,82,NaN,NaN,1,NaN,6.031367e-01,NaN,1,0,2,1
46,99,1,38,NaN,NaN,1,NaN,5.726589e-01,NaN,0,0,1,1
46,100,1,76,NaN,NaN,1,NaN,9.276141e-01,NaN,1,1,2,1
46,101,1,108,NaN,NaN,1,NaN,2.035933e+00,NaN,0,0,3,1
46,102,1,5,NaN,NaN,1,NaN,5.880202e-01,NaN,0,1,1,1
46,103,1,122,NaN,NaN,2,NaN,3.580778e-01,NaN,0,0,3,1
46,104,1,84,NaN,NaN,1,NaN,4.499370e-01,NaN,1,0,2,1
46,105,1,64,NaN,NaN,1,NaN,3.448415e-01,NaN,0,0,2,1
46,106,1,29,NaN,NaN,1,NaN,5.161761e-01,NaN,1,1,1,1
46,107,1,55,NaN,NaN,1,NaN,8.328240e-01,NaN,2,0,2,1
46,108,1,143,NaN,NaN,2,NaN,4.411210e-01,NaN,0,1,3,1
46,109,1,13,NaN,NaN,1,NaN,6.808966e-01,NaN,2,0,1,1
46,110,1,39,NaN,NaN,2,NaN,4.630197e-01,NaN,2,0,1,1
46,111,1,89,NaN,NaN,1,NaN,4.618739e-01,NaN,0,0,2,1
46,112,1,94,NaN,NaN,1,NaN,5.486874e-01,NaN,1,1,2,1
46,113,1,91,NaN,NaN,1,NaN,7.838339e-01,NaN,2,1,2,1
46,114,1,43,NaN,NaN,1,NaN,4.499669e-01,NaN,1,0,1,1
46,115,1,105,NaN,NaN,1,NaN,6.012082e-01,NaN,2,0,3,1
46,116,1,111,NaN,NaN,1,NaN,1.946974e+00,NaN,0,0,3,1
46,117,1,59,NaN,NaN,1,NaN,4.298561e-01,NaN,1,0,2,1
46,118,1,143,NaN,NaN,2,NaN,5.983521e-01,NaN,2,1,3,1
46,119,1,18,NaN,NaN,1,NaN,5.273611e-01,NaN,0,1,1,1
46,120,1,52,NaN,NaN,1,NaN,2.921276e-01,NaN,1,0,2,1
46,121,1,14,NaN,NaN,1,NaN,3.784878e-01,NaN,2,0,1,1
46,122,1,117,NaN,NaN,2,NaN,9.322022e-01,NaN,1,0,3,1
46,123,1,86,NaN,NaN,1,NaN,4.721312e-01,NaN,0,1,2,1
46,124,1,33,NaN,NaN,1,NaN,3.109710e-01,NaN,2,0,1,1
46,125,1,75,NaN,NaN,1,NaN,4.842284e-01,NaN,0,1,2,1
46,126,1,73,NaN,NaN,1,NaN,6.746626e-01,NaN,0,0,2,1
46,127,1,41,NaN,NaN,2,NaN,1.049105e+00,NaN,0,0,1,1
46,128,1,11,NaN,NaN,1,NaN,4.883603e-01,NaN,1,0,1,1
46,129,1,140,NaN,NaN,1,NaN,3.184586e-01,NaN,0,0,3,1
46,130,1,130,NaN,NaN,2,NaN,5.953324e-01,NaN,0,1,3,1
46,131,1,26,NaN,NaN,1,NaN,6.206513e-01,NaN,0,0,1,1
46,132,1,43,NaN,NaN,1,NaN,7.331638e-01,NaN,0,0,1,1
46,133,1,104,NaN,NaN,1,NaN,6.095416e-01,NaN,0,1,3,1
46,134,1,5,NaN,NaN,1,NaN,3.547892e-01,NaN,1,1,1,1
46,135,1,114,NaN,NaN,1,NaN,5.578192e-01,NaN,0,0,3,1
46,136,1,105,NaN,NaN,1,NaN,1.497304e+00,NaN,0,0,3,1
46,137,1,70,NaN,NaN,1,NaN,3.756933e-01,NaN,2,0,2,1
46,138,1,28,NaN,NaN,2,NaN,4.735297e-01,NaN,2,0,1,1
46,139,1,103,NaN,NaN,1,NaN,4.085185e-01,NaN,2,0,3,1
46,140,1,51,NaN,NaN,1,NaN,4.496065e-01,NaN,0,1,2,1
46,141,1,96,NaN,NaN,1,NaN,8.409530e-01,NaN,2,0,2,1
46,142,1,34,NaN,NaN,1,NaN,5.295274e-01,NaN,0,0,1,1
46,143,1,9,NaN,NaN,1,NaN,4.218873e-01,NaN,1,0,1,1
46,144,1,50,NaN,NaN,1,NaN,5.416967e-01,NaN,0,0,2,1
46,145,1,38,NaN,NaN,1,NaN,4.340991e-01,NaN,1,0,1,1
46,146,1,61,NaN,NaN,1,NaN,5.857065e-01,NaN,2,0,2,1
46,147,1,133,NaN,NaN,2,NaN,9.479115e-01,NaN,2,0,3,1
46,148,1,3,NaN,NaN,1,NaN,1.239112e+00,NaN,0,0,1,1
46,149,1,122,NaN,NaN,2,NaN,2.792856e-01,NaN,1,0,3,1
46,150,1,107,NaN,NaN,1,NaN,4.212027e-01,NaN,0,1,3,1
46,151,1,7,NaN,NaN,1,NaN,4.219649e-01,NaN,0,0,1,1
46,152,1,3,NaN,NaN,1,NaN,1.486607e+00,NaN,1,0,1,1
46,153,1,98,NaN,NaN,1,NaN,7.967509e-01,NaN,2,0,3,1
46,154,1,111,NaN,NaN,1,NaN,3.901448e-01,NaN,1,0,3,1
46,155,1,42,NaN,NaN,1,NaN,3.524131e-01,NaN,0,1,1,1
46,156,1,128,NaN,NaN,1,NaN,4.115965e-01,NaN,0,0,3,1
46,157,1,119,NaN,NaN,1,NaN,2.843569e-01,NaN,2,1,3,1
46,158,1,136,NaN,NaN,1,NaN,7.064836e-01,NaN,0,0,3,1
46,159,1,41,NaN,NaN,1,NaN,5.836334e-01,NaN,2,0,1,1
46,160,1,80,NaN,NaN,1,NaN,4.016702e-01,NaN,2,0,2,1
46,161,1,125,NaN,NaN,1,NaN,4.113659e-01,NaN,0,0,3,1
46,162,1,42,NaN,NaN,1,NaN,4.838003e-01,NaN,2,1,1,1
46,163,1,137,NaN,NaN,1,NaN,3.939249e-01,NaN,0,1,3,1
46,164,1,74,NaN,NaN,1,NaN,4.838731e-01,NaN,0,0,2,1
46,165,1,53,NaN,NaN,1,NaN,3.861266e-01,NaN,0,0,2,1
46,166,1,37,NaN,NaN,2,NaN,2.677647e-01,NaN,2,0,1,1
46,167,1,144,NaN,NaN,1,NaN,6.506534e-01,NaN,0,0,3,1
46,168,1,10,NaN,NaN,1,NaN,4.664511e-01,NaN,1,1,1,1
46,169,1,20,NaN,NaN,1,NaN,3.370144e-01,NaN,2,0,1,1
46,170,1,36,NaN,NaN,1,NaN,5.330008e-01,NaN,1,0,1,1
46,171,1,123,NaN,NaN,1,NaN,4.169835e-01,NaN,2,0,3,1
46,172,1,36,NaN,NaN,1,NaN,4.257045e-01,NaN,0,0,1,1
46,173,1,110,NaN,NaN,1,NaN,5.705137e-01,NaN,2,0,3,1
46,174,1,141,NaN,NaN,1,NaN,7.887890e-01,NaN,1,0,3,1
46,175,1,114,NaN,NaN,1,NaN,4.868903e-01,NaN,2,0,3,1
46,176,1,65,NaN,NaN,1,NaN,3.250522e-01,NaN,0,1,2,1
46,177,1,120,NaN,NaN,1,NaN,1.161637e+00,NaN,0,0,3,1
46,178,1,70,NaN,NaN,1,NaN,2.685929e-01,NaN,0,0,2,1
46,179,1,50,NaN,NaN,1,NaN,4.432345e-01,NaN,1,0,2,1
46,180,1,109,NaN,NaN,1,NaN,4.670288e-01,NaN,2,0,3,1
46,181,1,97,NaN,NaN,1,NaN,1.282092e+00,NaN,2,1,3,1
46,182,1,66,NaN,NaN,1,NaN,3.522151e-01,NaN,0,1,2,1
46,183,1,141,NaN,NaN,1,NaN,4.512027e-01,NaN,0,0,3,1
46,184,1,10,NaN,NaN,1,NaN,6.268238e-01,NaN,0,1,1,1
46,185,1,65,NaN,NaN,1,NaN,5.072508e-01,NaN,1,1,2,1
46,186,1,75,NaN,NaN,1,NaN,3.766960e-01,NaN,1,1,2,1
46,187,1,26,NaN,NaN,1,NaN,4.593444e-01,NaN,1,0,1,1
46,188,1,124,NaN,NaN,1,NaN,9.310522e-01,NaN,0,0,3,1
46,189,1,136,NaN,NaN,1,NaN,2.867581e-01,NaN,1,0,3,1
46,190,1,24,NaN,NaN,1,NaN,5.648411e-01,NaN,2,0,1,1
46,191,1,90,NaN,NaN,1,NaN,3.195643e-01,NaN,2,1,2,1
46,192,1,89,NaN,NaN,1,NaN,3.882224e-01,NaN,2,0,2,1
46,193,1,23,NaN,NaN,1,NaN,1.166274e+00,NaN,0,0,1,1
46,194,1,139,NaN,NaN,1,NaN,4.093205e-01,NaN,0,0,3,1
46,195,1,40,NaN,NaN,2,NaN,2.985672e-01,NaN,0,0,1,1
46,196,1,79,NaN,NaN,1,NaN,2.877400e-01,NaN,0,0,2,1
46,197,1,128,NaN,NaN,1,NaN,6.778175e-01,NaN,1,0,3,1
46,198,1,100,NaN,NaN,2,NaN,6.207612e-01,NaN,1,0,3,1
46,199,1,29,NaN,NaN,1,NaN,3.413434e-01,NaN,0,1,1,1
46,200,1,44,NaN,NaN,1,NaN,3.453514e-01,NaN,0,0,1,1
46,201,1,60,NaN,NaN,1,NaN,4.206313e-01,NaN,2,0,2,1
46,202,1,7,NaN,NaN,1,NaN,4.374602e-01,NaN,1,0,1,1
46,203,1,27,NaN,NaN,1,NaN,3.495298e-01,NaN,1,0,1,1
46,204,1,92,NaN,NaN,1,NaN,5.767836e-01,NaN,1,0,2,1
46,205,1,48,NaN,NaN,1,NaN,3.554451e-01,NaN,0,0,1,1
46,206,1,47,NaN,NaN,1,NaN,3.988368e-01,NaN,0,1,1,1
46,207,1,71,NaN,NaN,1,NaN,2.800930e-01,NaN,1,0,2,1
46,208,1,130,NaN,NaN,2,NaN,3.342340e-01,NaN,2,1,3,1
46,209,1,97,NaN,NaN,1,NaN,2.905327e-01,NaN,0,1,3,1
46,210,1,132,NaN,NaN,1,NaN,9.041307e-01,NaN,1,1,3,1
46,211,1,1,NaN,NaN,1,NaN,1.445769e+00,NaN,0,1,1,1
46,212,1,77,NaN,NaN,1,NaN,1.541421e+00,NaN,2,0,2,1
46,213,1,116,NaN,NaN,1,NaN,5.779273e-01,NaN,2,0,3,1
46,214,1,40,NaN,NaN,2,NaN,4.832205e-01,NaN,1,0,1,1
46,215,1,58,NaN,NaN,1,NaN,5.691846e-01,NaN,2,0,2,1
46,216,1,45,NaN,NaN,2,NaN,4.519917e-01,NaN,0,0,1,1
46,217,1,134,NaN,NaN,2,NaN,1.107090e+00,NaN,1,0,3,1
46,218,1,33,NaN,NaN,1,NaN,4.885807e-01,NaN,0,0,1,1
46,219,1,39,NaN,NaN,2,NaN,4.946756e-01,NaN,0,0,1,1
46,220,1,52,NaN,NaN,1,NaN,3.802575e-01,NaN,0,0,2,1
46,221,1,121,NaN,NaN,1,NaN,1.446202e+00,NaN,0,0,3,1
46,222,1,77,NaN,NaN,1,NaN,3.174677e-01,NaN,0,0,2,1
46,223,1,115,NaN,NaN,2,NaN,6.584936e-01,NaN,0,1,3,1
46,224,1,142,NaN,NaN,1,NaN,4.256981e-01,NaN,1,0,3,1
46,225,1,49,NaN,NaN,1,NaN,4.982464e-01,NaN,0,0,2,1
46,226,1,138,NaN,NaN,1,NaN,5.198590e-01,NaN,1,0,3,1
46,227,1,54,NaN,NaN,1,NaN,4.205016e-01,NaN,1,0,2,1
46,228,1,107,NaN,NaN,1,NaN,4.851605e-01,NaN,1,1,3,1
46,229,1,138,NaN,NaN,1,NaN,3.550886e-01,NaN,0,0,3,1
46,230,1,95,NaN,NaN,1,NaN,3.905943e-01,NaN,2,0,2,1
46,231,1,19,NaN,NaN,1,NaN,6.567619e-01,NaN,0,1,1,1
46,232,1,51,NaN,NaN,1,NaN,3.841728e-01,NaN,2,1,2,1
46,233,1,28,NaN,NaN,1,NaN,2.401973e+00,NaN,0,0,1,1
46,234,1,102,NaN,NaN,2,NaN,2.996246e-01,NaN,1,0,3,1
46,235,1,24,NaN,NaN,1,NaN,5.366827e-01,NaN,0,0,1,1
46,236,1,67,NaN,NaN,1,NaN,4.127492e-01,NaN,1,1,2,1
46,237,1,46,NaN,NaN,2,NaN,2.858851e-01,NaN,0,0,1,1
46,238,1,129,NaN,NaN,1,NaN,4.754446e-01,NaN,0,0,3,1
46,239,1,30,NaN,NaN,2,NaN,3.782183e-01,NaN,2,0,1,1
46,240,1,73,NaN,NaN,1,NaN,3.565780e-01,NaN,2,0,2,1
46,241,1,109,NaN,NaN,1,NaN,4.637994e-01,NaN,0,0,3,1
46,242,1,112,NaN,NaN,1,NaN,5.425343e-01,NaN,0,0,3,1
46,243,1,15,NaN,NaN,1,NaN,7.221793e-01,NaN,2,0,1,1
46,244,1,35,NaN,NaN,2,NaN,7.193208e-01,NaN,2,0,1,1
46,245,1,32,NaN,NaN,1,NaN,3.717448e-01,NaN,0,0,1,1
46,246,1,55,NaN,NaN,1,NaN,3.587410e-01,NaN,0,0,2,1
46,247,1,144,NaN,NaN,1,NaN,5.058336e-01,NaN,2,0,3,1
46,248,1,22,NaN,NaN,2,NaN,5.593719e-01,NaN,1,0,1,1
46,249,1,18,NaN,NaN,1,NaN,3.147187e-01,NaN,1,1,1,1
46,250,1,74,NaN,NaN,1,NaN,3.912807e-01,NaN,2,0,2,1
46,251,1,115,NaN,NaN,2,NaN,7.531983e-01,NaN,2,1,3,1
46,252,1,48,NaN,NaN,1,NaN,4.688031e-01,NaN,1,0,1,1
46,253,1,72,NaN,NaN,1,NaN,3.636225e-01,NaN,0,0,2,1
46,254,1,137,NaN,NaN,1,NaN,1.078069e+00,NaN,2,1,3,1
46,255,1,83,NaN,NaN,1,NaN,5.723954e-01,NaN,0,1,2,1
46,256,1,8,NaN,NaN,1,NaN,4.954223e-01,NaN,0,1,1,1
46,257,1,132,NaN,NaN,1,NaN,5.003929e-01,NaN,0,1,3,1
46,258,1,134,NaN,NaN,2,NaN,4.256468e-01,NaN,0,0,3,1
46,259,1,37,NaN,NaN,2,NaN,2.663249e-01,NaN,0,0,1,1
46,260,1,53,NaN,NaN,1,NaN,2.891985e-01,NaN,2,0,2,1
46,261,1,93,NaN,NaN,1,NaN,2.790924e-01,NaN,1,0,2,1
46,262,1,30,NaN,NaN,1,NaN,5.332410e-01,NaN,0,0,1,1
46,263,1,22,NaN,NaN,1,NaN,4.973261e-01,NaN,0,0,1,1
46,264,1,126,NaN,NaN,2,NaN,3.910984e-01,NaN,0,0,3,1
46,265,1,2,NaN,NaN,1,NaN,2.964552e-01,NaN,1,1,1,1
46,266,1,101,NaN,NaN,1,NaN,5.498160e-01,NaN,0,0,3,1
46,267,1,87,NaN,NaN,1,NaN,3.536814e-01,NaN,0,1,2,1
46,268,1,69,NaN,NaN,1,NaN,4.925358e-01,NaN,1,0,2,1
46,269,1,57,NaN,NaN,1,NaN,1.058380e+00,NaN,0,0,2,1
46,270,1,127,NaN,NaN,1,NaN,3.459837e-01,NaN,0,0,3,1
46,271,1,126,NaN,NaN,1,NaN,7.414169e-01,NaN,2,0,3,1
46,272,1,16,NaN,NaN,1,NaN,4.333786e-01,NaN,1,0,1,1
46,273,1,102,NaN,NaN,1,NaN,1.977449e+00,NaN,0,0,3,1
46,274,1,91,NaN,NaN,1,NaN,4.681460e-01,NaN,0,1,2,1
46,275,1,23,NaN,NaN,1,NaN,6.352031e-01,NaN,2,0,1,1
46,276,1,63,NaN,NaN,1,NaN,4.669346e-01,NaN,0,0,2,1
46,277,1,84,NaN,NaN,1,NaN,1.345793e+00,NaN,0,0,2,1
46,278,1,31,NaN,NaN,1,NaN,4.450686e-01,NaN,1,0,1,1
46,279,1,127,NaN,NaN,1,NaN,3.965633e-01,NaN,2,0,3,1
46,280,1,6,NaN,NaN,1,NaN,6.057739e-01,NaN,2,0,1,1
46,281,1,14,NaN,NaN,1,NaN,4.392695e-01,NaN,0,0,1,1
46,282,1,120,NaN,NaN,1,NaN,1.591396e+00,NaN,1,0,3,1
46,283,1,96,NaN,NaN,1,NaN,3.853515e-01,NaN,0,0,2,1
46,284,1,16,NaN,NaN,1,NaN,4.113420e-01,NaN,0,0,1,1
46,285,1,99,NaN,NaN,2,NaN,4.208780e-01,NaN,2,0,3,1
46,286,1,95,NaN,NaN,1,NaN,5.486403e-01,NaN,0,0,2,1
46,287,1,17,NaN,NaN,1,NaN,5.280109e-01,NaN,1,1,1,1
46,288,1,35,NaN,NaN,2,NaN,2.603063e-01,NaN,0,0,1,1
46,356,2,138,13,1,1,1,2.820203e+00,NaN,1,0,3,1
46,357,2,71,55,2,2,1,2.121810e+00,NaN,1,0,2,1
46,358,2,108,46,1,1,1,1.962904e+00,NaN,1,0,3,1
46,359,2,140,12,1,1,1,1.081500e+00,NaN,1,0,3,1
46,360,2,75,26,2,2,1,7.959190e-01,NaN,1,1,2,1
46,361,2,8,50,2,2,1,1.912895e+00,NaN,1,1,1,1
46,362,2,64,48,1,1,1,1.065802e+00,NaN,1,0,2,1
46,363,2,83,29,1,1,1,8.924939e-01,NaN,1,1,2,1
46,364,2,31,57,1,1,1,2.758493e+00,NaN,1,0,1,1
46,365,2,38,49,2,2,1,1.590254e+00,NaN,1,0,1,1
46,366,2,69,10,2,2,1,9.721718e-01,NaN,1,0,2,1
46,367,2,9,38,2,2,1,1.498895e+00,NaN,1,0,1,1
46,368,2,113,7,1,1,1,9.641980e-01,NaN,1,1,3,1
46,369,2,3,11,1,0,0,3.499528e+00,NaN,1,0,1,1
46,370,2,43,42,2,2,1,1.844915e+00,NaN,1,0,1,1
46,371,2,5,27,1,2,0,2.544569e+00,NaN,1,1,1,1
46,372,2,94,5,2,2,1,1.080723e+00,NaN,1,1,2,1
46,373,2,79,23,1,1,1,1.115055e+00,NaN,1,0,2,1
46,374,2,67,47,2,2,1,1.387804e+00,NaN,1,1,2,1
46,375,2,57,25,2,2,1,9.937062e-01,NaN,1,0,2,1
46,376,2,102,16,2,2,1,1.511939e+00,NaN,1,0,3,1
46,377,2,93,19,2,2,1,6.085838e-01,NaN,1,0,2,1
46,378,2,18,45,1,1,1,1.926008e+00,NaN,1,1,1,1
46,379,2,76,39,1,1,1,9.186378e-01,NaN,1,1,2,1
46,380,3,69,10,2,2,1,5.789992e-01,NaN,1,0,2,1
46,381,3,8,50,1,1,1,6.330376e-01,NaN,1,1,1,1
46,382,3,9,38,1,1,1,7.011798e-01,NaN,1,0,1,1
46,383,3,38,49,2,2,1,9.668062e-01,NaN,1,0,1,1
46,384,3,76,39,1,1,1,5.972618e-01,NaN,1,1,2,1
46,385,3,18,45,2,2,1,2.066519e+00,NaN,1,1,1,1
46,386,3,57,25,1,1,1,6.454577e-01,NaN,1,0,2,1
46,387,3,102,16,1,1,1,1.168754e+00,NaN,1,0,3,1
46,388,3,3,11,2,2,1,1.072008e+00,NaN,1,0,1,1
46,389,3,83,29,2,2,1,8.184078e-01,NaN,1,1,2,1
46,390,3,75,26,2,2,1,6.075367e-01,NaN,1,1,2,1
46,391,3,138,13,1,1,1,1.084388e+00,NaN,1,0,3,1
46,392,3,43,42,1,1,1,1.702878e+00,NaN,1,0,1,1
46,393,3,93,19,1,1,1,7.043616e-01,NaN,1,0,2,1
46,394,3,79,23,2,2,1,5.935123e-01,NaN,1,0,2,1
46,395,3,5,27,1,1,1,1.007898e+00,NaN,1,1,1,1
46,396,3,64,48,1,1,1,9.730149e-01,NaN,1,0,2,1
46,397,3,71,55,1,1,1,1.099766e+00,NaN,1,0,2,1
46,398,3,113,7,1,1,1,8.453313e-01,NaN,1,1,3,1
46,399,3,67,47,1,1,1,1.353139e+00,NaN,1,1,2,1
46,400,3,140,12,1,1,1,8.080417e-01,NaN,1,0,3,1
46,401,3,31,57,2,2,1,9.017241e-01,NaN,1,0,1,1
46,402,3,94,5,2,2,1,6.151837e-01,NaN,1,1,2,1
46,403,3,108,46,1,1,1,2.075824e+00,NaN,1,0,3,1
46,428,2,128,3,1,1,1,1.323189e+00,NaN,1,0,3,2
46,429,2,29,58,2,2,1,1.796371e+00,NaN,1,1,1,2
46,430,2,136,61,2,2,1,1.177491e+00,NaN,1,0,3,2
46,431,2,92,70,2,2,1,1.072815e+00,NaN,1,0,2,2
46,432,2,141,67,1,1,1,1.251154e+00,NaN,1,0,3,2
46,433,2,111,22,2,2,1,1.574677e+00,NaN,1,0,3,2
46,434,2,47,17,2,2,1,1.157515e+00,NaN,1,1,1,2
46,435,2,62,6,1,1,1,1.484849e+00,NaN,1,0,2,2
46,436,2,59,30,1,1,1,9.027160e-01,NaN,1,0,2,2
46,437,2,54,66,2,2,1,2.887952e+00,NaN,1,0,2,2
46,438,2,26,51,2,2,1,9.462046e-01,NaN,1,0,1,2
46,439,2,132,14,2,2,1,9.537000e-01,NaN,1,1,3,2
46,440,2,78,69,2,2,1,5.131785e-01,NaN,1,0,2,2
46,441,2,17,8,1,1,1,1.945845e+00,NaN,1,1,1,2
46,442,2,2,33,2,1,0,1.337400e+00,NaN,1,1,1,2
46,443,2,122,56,2,2,1,1.465676e+00,NaN,1,0,3,2
46,444,2,50,68,2,2,1,1.100102e+00,NaN,1,0,2,2
46,445,2,131,41,2,2,1,1.061513e+00,NaN,1,0,3,2
46,446,2,100,40,2,2,1,1.672354e+00,NaN,1,0,3,2
46,447,2,27,28,1,1,1,8.590502e-01,NaN,1,0,1,2
46,448,2,44,18,2,2,1,1.726486e+00,NaN,1,0,1,2
46,449,2,48,15,2,2,1,1.247433e+00,NaN,1,0,1,2
46,450,2,120,59,2,2,1,8.666374e-01,NaN,1,0,3,2
46,451,2,82,24,2,2,1,8.298112e-01,NaN,1,0,2,2
46,452,3,120,59,2,2,1,7.211899e-01,NaN,1,0,3,2
46,453,3,44,18,1,1,1,1.010320e+00,NaN,1,0,1,2
46,454,3,132,14,1,1,1,6.311438e-01,NaN,1,1,3,2
46,455,3,47,17,2,2,1,1.027125e+00,NaN,1,1,1,2
46,456,3,78,69,1,1,1,6.480267e-01,NaN,1,0,2,2
46,457,3,2,33,1,1,1,1.067466e+00,NaN,1,1,1,2
46,458,3,122,56,1,1,1,7.021623e-01,NaN,1,0,3,2
46,459,3,26,51,2,2,1,7.198632e-01,NaN,1,0,1,2
46,460,3,82,24,2,2,1,6.247857e-01,NaN,1,0,2,2
46,461,3,54,66,1,1,1,5.892910e-01,NaN,1,0,2,2
46,462,3,141,67,2,2,1,1.131224e+00,NaN,1,0,3,2
46,463,3,48,15,2,2,1,1.227293e+00,NaN,1,0,1,2
46,464,3,59,30,2,2,1,1.048224e+00,NaN,1,0,2,2
46,465,3,29,58,2,2,1,1.307406e+00,NaN,1,1,1,2
46,466,3,131,41,2,2,1,1.116826e+00,NaN,1,0,3,2
46,467,3,27,28,2,2,1,1.509539e+00,NaN,1,0,1,2
46,468,3,128,3,2,2,1,1.111395e+00,NaN,1,0,3,2
46,469,3,62,6,2,2,1,7.127146e-01,NaN,1,0,2,2
46,470,3,111,22,1,1,1,1.633115e+00,NaN,1,0,3,2
46,471,3,17,8,1,1,1,1.829279e+00,NaN,1,1,1,2
46,472,3,136,61,1,1,1,1.073418e+00,NaN,1,0,3,2
46,473,3,92,70,2,2,1,6.765832e-01,NaN,1,0,2,2
46,474,3,100,40,2,2,1,9.429682e-01,NaN,1,0,3,2
46,475,3,50,68,2,2,1,6.310705e-01,NaN,1,0,2,2
46,500,2,11,43,1,1,1,7.920396e-01,NaN,1,0,1,3
46,501,2,65,64,1,1,1,1.957993e+00,NaN,1,1,2,3
46,502,2,124,65,1,1,1,1.373883e+00,NaN,1,0,3,3
46,503,2,4,63,1,1,1,7.645631e-01,NaN,1,0,1,3
46,504,2,10,9,2,2,1,1.435280e+00,NaN,1,1,1,3
46,505,2,88,36,2,2,1,1.279225e+00,NaN,1,1,2,3
46,506,2,49,62,1,1,1,1.017384e+00,NaN,1,0,2,3
46,507,2,129,35,1,1,1,1.381830e+00,NaN,1,0,3,3
46,508,2,134,37,2,2,1,1.372366e+00,NaN,1,0,3,3
46,509,2,7,54,1,1,1,8.028319e-01,NaN,1,0,1,3
46,510,2,52,71,1,1,1,1.048614e+00,NaN,1,0,2,3
46,511,2,121,52,1,1,1,1.139843e+00,NaN,1,0,3,3
46,512,2,142,21,2,2,1,1.331759e+00,NaN,1,0,3,3
46,513,2,117,72,1,1,1,1.075839e+00,NaN,1,0,3,3
46,514,2,16,1,2,2,1,1.190448e+00,NaN,1,0,1,3
46,515,2,36,31,2,2,1,1.812739e+00,NaN,1,0,1,3
46,516,2,125,2,1,1,1,2.265423e+00,NaN,1,0,3,3
46,517,2,118,34,2,2,1,1.212228e+00,NaN,1,0,3,3
46,518,2,40,32,2,2,1,1.409249e+00,NaN,1,0,1,3
46,519,2,22,20,2,2,1,2.022362e+00,NaN,1,0,1,3
46,520,2,68,44,1,1,1,5.073854e-01,NaN,1,0,2,3
46,521,2,107,60,2,2,1,2.156682e+00,NaN,1,1,3,3
46,522,2,84,4,1,1,1,1.428385e+00,NaN,1,0,2,3
46,523,2,112,53,1,1,1,9.600454e-01,NaN,1,0,3,3
46,524,3,11,43,1,1,1,7.506812e-01,NaN,1,0,1,3
46,525,3,4,63,1,1,1,8.224081e-01,NaN,1,0,1,3
46,526,3,65,64,2,2,1,1.242913e+00,NaN,1,1,2,3
46,527,3,124,65,2,1,0,7.668445e-01,NaN,1,0,3,3
46,528,3,36,31,2,2,1,1.189533e+00,NaN,1,0,1,3
46,529,3,7,54,2,2,1,9.715422e-01,NaN,1,0,1,3
46,530,3,88,36,1,1,1,8.107910e-01,NaN,1,1,2,3
46,531,3,10,9,2,2,1,8.482028e-01,NaN,1,1,1,3
46,532,3,117,72,2,2,1,1.123306e+00,NaN,1,0,3,3
46,533,3,16,1,2,2,1,6.122289e-01,NaN,1,0,1,3
46,534,3,107,60,2,2,1,7.767722e-01,NaN,1,1,3,3
46,535,3,68,44,1,1,1,4.963025e-01,NaN,1,0,2,3
46,536,3,121,52,1,1,1,8.890161e-01,NaN,1,0,3,3
46,537,3,125,2,1,1,1,3.274770e+00,NaN,1,0,3,3
46,538,3,49,62,1,1,1,4.780514e-01,NaN,1,0,2,3
46,539,3,112,53,1,1,1,1.008663e+00,NaN,1,0,3,3
46,540,3,134,37,2,2,1,1.230308e+00,NaN,1,0,3,3
46,541,3,52,71,1,1,1,5.460336e-01,NaN,1,0,2,3
46,542,3,142,21,2,2,1,1.409768e+00,NaN,1,0,3,3
46,543,3,40,32,2,2,1,6.632809e-01,NaN,1,0,1,3
46,544,3,118,34,2,2,1,8.498179e-01,NaN,1,0,3,3
46,545,3,84,4,1,1,1,6.615187e-01,NaN,1,0,2,3
46,546,3,129,35,2,1,0,2.872564e+00,NaN,1,0,3,3
46,547,3,22,20,1,1,1,1.307236e+00,NaN,1,0,1,3
46,572,4,91,58,1,2,0,5.712846e-01,NaN,2,1,2,1
46,573,4,12,24,1,1,1,1.210074e+00,NaN,2,0,1,1
46,574,4,96,49,2,2,1,6.231056e-01,NaN,2,0,2,1
46,575,4,143,29,2,2,1,1.220135e+00,NaN,2,1,3,1
46,576,4,80,31,2,2,1,1.472689e+00,NaN,2,0,2,1
46,577,4,137,47,1,1,1,1.187415e+00,NaN,2,1,3,1
46,578,4,61,12,2,2,1,7.053284e-01,NaN,2,0,2,1
46,579,4,15,4,2,2,1,1.186880e+00,NaN,2,0,1,1
46,580,4,126,6,1,1,1,1.609071e+00,NaN,2,0,3,1
46,581,4,20,23,1,1,1,8.624535e-01,NaN,2,0,1,1
46,582,4,105,38,2,2,1,1.713175e+00,NaN,2,0,3,1
46,583,4,28,56,2,2,1,9.938785e-01,NaN,2,0,1,1
46,584,4,95,57,2,2,1,2.327952e+00,NaN,2,0,2,1
46,585,4,135,26,1,1,1,1.072723e+00,NaN,2,1,3,1
46,586,4,99,28,2,2,1,1.099417e+00,NaN,2,0,3,1
46,587,4,119,39,2,2,1,8.689740e-01,NaN,2,1,3,1
46,588,4,133,71,2,2,1,1.023887e+00,NaN,2,0,3,1
46,589,4,103,15,1,1,1,1.012902e+00,NaN,2,0,3,1
46,590,4,37,40,2,1,0,1.065244e+00,NaN,2,0,1,1
46,591,4,32,46,1,2,0,1.275993e+00,NaN,2,0,1,1
46,592,4,101,63,2,2,1,1.190976e+00,NaN,2,0,3,1
46,593,4,98,1,1,1,1,1.812752e+00,NaN,2,0,3,1
46,594,4,90,8,2,1,0,1.689636e+00,NaN,2,1,2,1
46,595,4,81,51,1,1,1,2.339517e+00,NaN,2,0,2,1
46,620,4,123,69,2,2,1,1.381208e+00,NaN,2,0,3,2
46,621,4,73,41,2,2,1,1.435620e+00,NaN,2,0,2,2
46,622,4,14,70,1,2,0,1.383785e+00,NaN,2,0,1,2
46,623,4,72,16,1,1,1,6.057434e-01,NaN,2,0,2,2
46,624,4,55,65,1,1,1,9.951022e-01,NaN,2,0,2,2
46,625,4,35,67,1,1,1,1.584284e+00,NaN,2,0,1,2
46,626,4,39,22,2,2,1,9.511727e-01,NaN,2,0,1,2
46,627,4,106,9,1,1,1,1.462226e+00,NaN,2,1,3,2
46,628,4,53,53,2,2,1,1.224718e+00,NaN,2,0,2,2
46,629,4,115,17,1,1,1,1.173670e+00,NaN,2,1,3,2
46,630,4,77,32,1,1,1,7.244613e-01,NaN,2,0,2,2
46,631,4,6,10,2,2,1,6.611136e-01,NaN,2,0,1,2
46,632,4,23,62,2,2,1,1.200812e+00,NaN,2,0,1,2
46,633,4,56,3,1,1,1,1.086242e+00,NaN,2,0,2,2
46,634,4,34,59,1,1,1,1.224050e+00,NaN,2,0,1,2
46,635,4,41,35,2,2,1,1.964873e+00,NaN,2,0,1,2
46,636,4,63,21,1,2,0,9.720538e-01,NaN,2,0,2,2
46,637,4,33,37,2,2,1,1.290173e+00,NaN,2,0,1,2
46,638,4,74,18,2,2,1,8.847585e-01,NaN,2,0,2,2
46,639,4,19,36,2,2,1,1.414620e+00,NaN,2,1,1,2
46,640,4,86,33,2,2,1,1.299375e+00,NaN,2,1,2,2
46,641,4,104,50,1,1,1,1.180978e+00,NaN,2,1,3,2
46,642,4,144,48,1,1,1,1.058635e+00,NaN,2,0,3,2
46,643,4,60,72,1,1,1,1.494021e+00,NaN,2,0,2,2
46,668,4,51,14,1,1,1,9.051253e-01,NaN,2,1,2,3
46,669,4,58,13,2,2,1,7.628686e-01,NaN,2,0,2,3
46,670,4,66,60,1,1,1,8.013441e-01,NaN,2,1,2,3
46,671,4,13,66,2,2,1,1.238921e+00,NaN,2,0,1,3
46,672,4,42,7,1,1,1,1.778987e+00,NaN,2,1,1,3
46,673,4,139,68,1,1,1,9.770319e-01,NaN,2,0,3,3
46,674,4,45,2,2,2,1,2.183547e+00,NaN,2,0,1,3
46,675,4,97,45,2,2,1,1.077843e+00,NaN,2,1,3,3
46,676,4,85,43,1,1,1,5.375191e-01,NaN,2,0,2,3
46,677,4,46,34,2,2,1,1.392563e+00,NaN,2,0,1,3
46,678,4,70,61,1,1,1,9.745779e-01,NaN,2,0,2,3
46,679,4,130,64,2,2,1,1.333338e+00,NaN,2,1,3,3
46,680,4,21,30,2,2,1,8.614499e-01,NaN,2,0,1,3
46,681,4,114,42,2,1,0,1.464850e+00,NaN,2,0,3,3
46,682,4,116,25,1,1,1,2.020045e+00,NaN,2,0,3,3
46,683,4,109,11,2,2,1,1.000854e+00,NaN,2,0,3,3
46,684,4,87,27,2,2,1,1.286268e+00,NaN,2,1,2,3
46,685,4,24,44,1,1,1,1.240288e+00,NaN,2,0,1,3
46,686,4,110,20,1,1,1,9.720786e-01,NaN,2,0,3,3
46,687,4,30,52,2,2,1,7.789914e-01,NaN,2,0,1,3
46,688,4,127,19,1,1,1,7.929150e-01,NaN,2,0,3,3
46,689,4,25,55,1,1,1,1.022980e+00,NaN,2,0,1,3
46,690,4,1,5,2,2,1,1.043655e+00,NaN,2,1,1,3
46,691,4,89,54,1,1,1,1.487813e+00,NaN,2,0,2,3
46,692,5,4.414000e+01,42,1,0,0,2.500323e+00,1,1,0,1.300000e+00,1
46,693,5,1.294100e+02,35,3,3,1,1.272763e+00,1,1,0,3.100000e+00,1
46,694,5,2.681000e+01,51,1,1,1,4.740522e-01,1,1,0,1.200000e+00,1
46,695,5,8.212000e+01,24,2,2,1,4.354342e-01,1,1,0,2.100000e+00,1
46,696,5,9.214000e+01,70,2,1,0,1.460887e+00,1,1,0,2.100000e+00,1
46,697,5,1.254500e+02,2,3,3,1,1.550870e+00,1,1,0,3.100000e+00,1
46,698,5,1.113900e+02,22,3,4,0,4.730887e-01,1,1,0,3.100000e+00,1
46,699,5,7.920000e+01,23,2,2,1,1.762644e+00,1,1,0,2.100000e+00,1
46,700,5,5.333000e+01,71,2,2,1,4.044515e-01,1,1,0,2.300000e+00,1
46,701,5,8.415000e+01,4,2,2,1,3.258750e-01,1,1,0,2.100000e+00,1
46,702,5,7.923000e+01,69,2,2,1,4.481133e-01,1,1,0,2.300000e+00,1
46,703,5,5.010000e+00,63,1,1,1,8.174723e-01,1,1,0,1.300000e+00,1
46,704,5,1.367000e+02,61,3,3,1,4.028577e-01,1,1,0,3.200000e+00,1
46,705,5,5.010000e+00,63,1,1,1,4.602638e-01,2,1,0,1.300000e+00,1
46,706,5,1.254500e+02,2,3,3,1,3.026406e-01,2,1,0,3.100000e+00,1
46,707,5,1.406100e+02,12,3,3,1,3.199099e-01,1,1,0,3.200000e+00,1
46,708,5,1.027200e+02,16,3,3,1,3.215764e-01,1,1,0,3.200000e+00,1
46,709,5,4.090000e+00,11,1,1,1,1.034634e+00,1,1,0,1.300000e+00,1
46,710,5,1.027200e+02,16,3,3,1,3.321622e-01,2,1,0,3.200000e+00,1
46,711,5,8.212000e+01,24,2,2,1,3.255716e-01,2,1,0,2.100000e+00,1
46,712,5,1.083200e+02,46,3,3,1,3.114494e-01,1,1,0,3.100000e+00,1
46,713,5,9.427000e+01,19,2,2,1,2.731022e-01,1,1,0,2.300000e+00,1
46,714,5,4.474000e+01,18,1,1,1,1.314365e+00,1,1,0,1.200000e+00,1
46,715,5,1.245500e+02,65,3,3,1,7.317617e-01,1,1,0,3.200000e+00,1
46,716,5,1.184600e+02,34,3,3,1,2.935143e-01,1,1,0,3.100000e+00,1
46,717,5,1.005000e+01,38,1,1,1,4.154172e-01,1,1,0,1.300000e+00,1
46,718,5,9.214000e+01,70,2,3,0,3.848867e-01,2,1,0,2.100000e+00,1
46,719,5,6.544000e+01,48,2,2,1,3.061855e-01,1,1,0,2.300000e+00,1
46,720,5,1.083200e+02,46,3,3,1,4.114818e-01,2,1,0,3.100000e+00,1
46,721,5,1.406100e+02,12,3,3,1,4.129318e-01,2,1,0,3.200000e+00,1
46,722,5,1.294100e+02,35,3,3,1,2.544810e-01,2,1,0,3.100000e+00,1
46,723,5,1.113900e+02,22,3,2,0,5.517729e-01,2,1,0,3.100000e+00,1
46,724,5,6.326000e+01,6,2,2,1,2.731707e-01,1,1,0,2.300000e+00,1
46,725,5,1.184600e+02,34,3,3,1,3.145883e-01,2,1,0,3.100000e+00,1
46,726,5,1.176000e+02,72,3,3,1,4.364997e-01,1,1,0,3.200000e+00,1
46,727,5,1.213000e+02,52,3,3,1,3.177897e-01,1,1,0,3.100000e+00,1
46,728,5,1.113900e+02,22,3,3,1,3.030774e-01,3,1,0,3.100000e+00,1
46,729,5,1.185000e+01,43,1,1,1,2.646252e-01,1,1,0,1.200000e+00,1
46,730,5,5.010000e+00,63,1,1,1,3.859691e-01,3,1,0,1.300000e+00,1
46,731,5,7.890000e+00,54,1,3,0,6.513371e-01,1,1,0,1.200000e+00,1
46,732,5,1.294100e+02,35,3,3,1,2.766821e-01,3,1,0,3.100000e+00,1
46,733,5,9.427000e+01,19,2,2,1,2.546781e-01,2,1,0,2.300000e+00,1
46,734,5,1.413500e+02,67,3,3,1,6.240540e-01,1,1,0,3.100000e+00,1
46,735,5,4.077000e+01,32,1,1,1,2.493861e-01,1,1,0,1.200000e+00,1
46,736,5,3.896000e+01,49,1,1,1,2.671401e-01,1,1,0,1.200000e+00,1
46,737,5,5.139000e+01,68,2,2,1,2.686781e-01,1,1,0,2.300000e+00,1
46,738,5,5.921000e+01,30,2,2,1,2.778322e-01,1,1,0,2.100000e+00,1
46,739,5,1.367000e+02,61,3,3,1,3.915569e-01,2,1,0,3.200000e+00,1
46,740,5,1.285600e+02,3,3,3,1,4.332733e-01,1,1,0,3.200000e+00,1
46,741,5,1.176000e+02,72,3,3,1,4.265823e-01,2,1,0,3.200000e+00,1
46,742,5,1.343300e+02,37,3,1,0,2.686599e-01,1,1,0,3.100000e+00,1
46,743,5,4.903000e+01,15,1,1,1,2.542329e-01,1,1,0,1.300000e+00,1
46,744,5,1.222800e+02,56,3,3,1,2.794401e-01,1,1,0,3.100000e+00,1
46,745,5,1.176000e+02,72,3,3,1,4.011164e-01,3,1,0,3.200000e+00,1
46,746,5,2.799000e+01,28,1,1,1,3.703207e-01,1,1,0,1.300000e+00,1
46,747,5,3.680000e+01,31,1,1,1,3.159059e-01,1,1,0,1.200000e+00,1
46,748,5,1.294100e+02,35,3,3,1,2.695136e-01,4,1,0,3.100000e+00,1
46,749,5,5.333000e+01,71,2,2,1,2.476695e-01,2,1,0,2.300000e+00,1
46,750,5,1.317300e+02,41,3,3,1,2.721433e-01,1,1,0,3.200000e+00,1
46,751,5,1.413500e+02,67,3,3,1,3.134670e-01,2,1,0,3.100000e+00,1
46,752,5,1.317300e+02,41,3,3,1,3.231164e-01,2,1,0,3.200000e+00,1
46,753,5,2.310000e+01,20,1,1,1,3.004100e-01,1,1,0,1.300000e+00,1
46,754,5,1.245500e+02,65,3,3,1,3.420679e-01,2,1,0,3.200000e+00,1
46,755,5,6.544000e+01,48,2,2,1,2.959879e-01,2,1,0,2.300000e+00,1
46,756,5,1.343300e+02,37,3,3,1,3.612297e-01,2,1,0,3.100000e+00,1
46,757,5,4.903000e+01,15,1,1,1,3.867309e-01,2,1,0,1.300000e+00,1
46,758,5,6.326000e+01,6,2,2,1,2.360430e-01,2,1,0,2.300000e+00,1
46,759,5,6.824000e+01,44,2,2,1,3.655063e-01,1,1,0,2.100000e+00,1
46,760,5,1.185000e+01,43,1,1,1,9.108317e-01,2,1,0,1.200000e+00,1
46,761,5,1.184600e+02,34,3,2,0,1.113190e+00,3,1,0,3.100000e+00,1
46,762,5,2.681000e+01,51,1,1,1,3.866011e-01,2,1,0,1.200000e+00,1
46,763,5,1.317300e+02,41,3,3,1,2.440111e-01,3,1,0,3.200000e+00,1
46,764,5,1.027200e+02,16,3,3,1,5.578992e-01,3,1,0,3.200000e+00,1
46,765,5,3.680000e+01,31,1,1,1,3.272916e-01,2,1,0,1.200000e+00,1
46,766,5,7.920000e+01,23,2,2,1,3.054919e-01,2,1,0,2.100000e+00,1
46,767,5,1.698000e+01,1,1,1,1,1.130655e+00,1,1,0,1.300000e+00,1
46,768,5,5.816000e+01,25,2,2,1,2.682455e-01,1,1,0,2.300000e+00,1
46,769,5,1.426300e+02,21,3,2,0,2.216838e-01,1,1,0,3.200000e+00,1
46,770,5,8.415000e+01,4,2,3,0,1.543403e+00,2,1,0,2.100000e+00,1
46,771,5,5.139000e+01,68,2,2,1,2.570956e-01,2,1,0,2.300000e+00,1
46,772,5,6.906000e+01,10,2,2,1,5.227998e-01,1,1,0,2.100000e+00,1
46,773,5,3.195000e+01,57,1,1,1,5.083064e-01,1,1,0,1.200000e+00,1
46,774,5,8.212000e+01,24,2,2,1,4.303267e-01,3,1,0,2.100000e+00,1
46,775,5,5.139000e+01,68,2,2,1,3.515812e-01,3,1,0,2.300000e+00,1
46,776,5,3.896000e+01,49,1,1,1,2.568653e-01,2,1,0,1.200000e+00,1
46,777,5,4.903000e+01,15,1,1,1,3.633294e-01,3,1,0,1.300000e+00,1
46,778,5,4.090000e+00,11,1,1,1,3.958863e-01,2,1,0,1.300000e+00,1
46,779,5,1.426300e+02,21,3,3,1,5.011399e-01,2,1,0,3.200000e+00,1
46,780,5,6.906000e+01,10,2,2,1,4.306333e-01,2,1,0,2.100000e+00,1
46,781,5,1.413500e+02,67,3,3,1,2.960205e-01,3,1,0,3.100000e+00,1
46,782,5,4.923000e+01,62,2,2,1,2.975400e-01,1,1,0,2.100000e+00,1
46,783,5,5.921000e+01,30,2,2,1,2.911819e-01,2,1,0,2.100000e+00,1
46,784,5,3.195000e+01,57,1,1,1,3.242619e-01,2,1,0,1.200000e+00,1
46,785,5,4.903000e+01,15,1,1,1,3.181622e-01,4,1,0,1.300000e+00,1
46,786,5,1.113900e+02,22,3,2,0,7.593925e-01,4,1,0,3.100000e+00,1
46,787,5,4.077000e+01,32,1,1,1,4.332030e-01,2,1,0,1.200000e+00,1
46,788,5,6.544000e+01,48,2,2,1,5.705704e-01,3,1,0,2.300000e+00,1
46,789,5,4.923000e+01,62,2,2,1,3.399063e-01,2,1,0,2.100000e+00,1
46,790,5,1.413500e+02,67,3,3,1,2.133692e-01,4,1,0,3.100000e+00,1
46,791,5,1.005000e+01,38,1,1,1,4.791935e-01,2,1,0,1.300000e+00,1
46,792,5,1.222800e+02,56,3,3,1,8.242829e-01,2,1,0,3.100000e+00,1
46,793,5,1.285600e+02,3,3,3,1,2.499904e-01,2,1,0,3.200000e+00,1
46,794,5,3.680000e+01,31,1,1,1,3.152424e-01,3,1,0,1.200000e+00,1
46,795,5,1.083200e+02,46,3,3,1,2.767612e-01,3,1,0,3.100000e+00,1
46,796,5,1.083200e+02,46,3,3,1,3.268732e-01,4,1,0,3.100000e+00,1
46,797,5,1.203400e+02,59,3,3,1,6.566164e-01,1,1,0,3.100000e+00,1
46,798,5,5.921000e+01,30,2,2,1,2.822690e-01,3,1,0,2.100000e+00,1
46,799,5,4.090000e+00,11,1,1,1,3.237527e-01,3,1,0,1.300000e+00,1
46,800,5,1.213000e+02,52,3,3,1,1.076885e+00,2,1,0,3.100000e+00,1
46,801,5,4.474000e+01,18,1,1,1,4.472675e-01,2,1,0,1.200000e+00,1
46,802,5,1.125300e+02,53,3,3,1,4.164423e-01,1,1,0,3.200000e+00,1
46,803,5,1.698000e+01,1,1,1,1,3.227352e-01,2,1,0,1.300000e+00,1
46,804,5,5.816000e+01,25,2,2,1,2.752139e-01,2,1,0,2.300000e+00,1
46,805,5,2.799000e+01,28,1,1,1,5.648791e-01,2,1,0,1.300000e+00,1
46,806,5,4.923000e+01,62,2,2,1,9.584771e-01,3,1,0,2.100000e+00,1
46,807,5,1.184600e+02,34,3,3,1,3.035595e-01,4,1,0,3.100000e+00,1
46,808,5,7.923000e+01,69,2,2,1,3.449575e-01,2,1,0,2.300000e+00,1
46,809,5,1.367000e+02,61,3,3,1,3.387047e-01,3,1,0,3.200000e+00,1
46,810,5,7.923000e+01,69,2,2,1,3.237802e-01,3,1,0,2.300000e+00,1
46,811,5,1.367000e+02,61,3,3,1,2.615083e-01,4,1,0,3.200000e+00,1
46,812,5,1.254500e+02,2,3,3,1,3.026920e-01,3,1,0,3.100000e+00,1
46,813,5,6.824000e+01,44,2,2,1,4.004188e-01,2,1,0,2.100000e+00,1
46,814,5,8.415000e+01,4,2,3,0,3.138715e-01,3,1,0,2.100000e+00,1
46,815,5,1.213000e+02,52,3,3,1,2.509467e-01,3,1,0,3.100000e+00,1
46,816,5,7.890000e+00,54,1,1,1,3.642781e-01,2,1,0,1.200000e+00,1
46,817,5,5.921000e+01,30,2,2,1,2.537807e-01,4,1,0,2.100000e+00,1
46,818,5,3.896000e+01,49,1,1,1,3.195899e-01,3,1,0,1.200000e+00,1
46,819,5,1.385800e+02,13,3,3,1,4.094703e-01,1,1,0,3.200000e+00,1
46,820,5,5.413000e+01,66,2,2,1,2.265997e-01,1,1,0,2.100000e+00,1
46,821,5,5.333000e+01,71,2,2,1,3.091678e-01,3,1,0,2.300000e+00,1
46,822,5,4.414000e+01,42,1,1,1,2.712450e-01,2,1,0,1.300000e+00,1
46,823,5,4.414000e+01,42,1,1,1,2.643094e-01,3,1,0,1.300000e+00,1
46,824,5,9.427000e+01,19,2,2,1,2.417280e-01,3,1,0,2.300000e+00,1
46,825,5,2.799000e+01,28,1,1,1,2.352534e-01,3,1,0,1.300000e+00,1
46,826,5,1.245500e+02,65,3,3,1,2.605804e-01,3,1,0,3.200000e+00,1
46,827,5,2.681000e+01,51,1,1,1,3.665582e-01,3,1,0,1.200000e+00,1
46,828,5,1.203400e+02,59,3,3,1,3.360439e-01,2,1,0,3.100000e+00,1
46,829,5,5.816000e+01,25,2,2,1,2.573968e-01,3,1,0,2.300000e+00,1
46,830,5,1.005000e+01,38,1,1,1,7.632525e-01,3,1,0,1.300000e+00,1
46,831,5,7.125000e+01,55,2,2,1,4.366914e-01,1,1,0,2.100000e+00,1
46,832,5,1.125300e+02,53,3,3,1,2.857949e-01,2,1,0,3.200000e+00,1
46,833,5,9.427000e+01,19,2,2,1,5.355100e-01,4,1,0,2.300000e+00,1
46,834,5,1.176000e+02,72,3,3,1,3.045305e-01,4,1,0,3.200000e+00,1
46,835,5,1.125300e+02,53,3,3,1,3.618989e-01,3,1,0,3.200000e+00,1
46,836,5,7.890000e+00,54,1,1,1,4.275349e-01,3,1,0,1.200000e+00,1
46,837,5,1.698000e+01,1,1,1,1,4.607341e-01,3,1,0,1.300000e+00,1
46,838,5,7.125000e+01,55,2,2,1,4.068617e-01,2,1,0,2.100000e+00,1
46,839,5,4.077000e+01,32,1,1,1,3.605207e-01,3,1,0,1.200000e+00,1
46,840,5,1.003700e+02,40,3,3,1,3.303215e-01,1,1,0,3.100000e+00,1
46,841,5,7.920000e+01,23,2,2,1,2.518169e-01,3,1,0,2.100000e+00,1
46,842,5,1.003700e+02,40,3,3,1,2.776462e-01,2,1,0,3.100000e+00,1
46,843,5,2.310000e+01,20,1,1,1,6.713217e-01,2,1,0,1.300000e+00,1
46,844,5,1.406100e+02,12,3,3,1,3.765668e-01,3,1,0,3.200000e+00,1
46,845,5,1.285600e+02,3,3,3,1,2.669980e-01,3,1,0,3.200000e+00,1
46,846,5,1.185000e+01,43,1,1,1,2.841148e-01,3,1,0,1.200000e+00,1
46,847,5,1.245500e+02,65,3,3,1,2.379579e-01,4,1,0,3.200000e+00,1
46,848,5,1.317300e+02,41,3,3,1,2.550660e-01,4,1,0,3.200000e+00,1
46,849,5,1.426300e+02,21,3,3,1,3.207330e-01,3,1,0,3.200000e+00,1
46,850,5,1.125300e+02,53,3,3,1,4.980384e-01,4,1,0,3.200000e+00,1
46,851,5,8.212000e+01,24,2,2,1,3.312847e-01,4,1,0,2.100000e+00,1
46,852,5,5.413000e+01,66,2,2,1,3.729534e-01,2,1,0,2.100000e+00,1
46,853,5,4.090000e+00,11,1,1,1,3.500852e-01,4,1,0,1.300000e+00,1
46,854,5,4.474000e+01,18,1,1,1,3.836621e-01,3,1,0,1.200000e+00,1
46,855,5,5.139000e+01,68,2,2,1,3.130275e-01,4,1,0,2.300000e+00,1
46,856,5,1.203400e+02,59,3,3,1,3.546567e-01,3,1,0,3.100000e+00,1
46,857,5,7.125000e+01,55,2,2,1,4.682990e-01,3,1,0,2.100000e+00,1
46,858,5,5.333000e+01,71,2,2,1,2.613263e-01,4,1,0,2.300000e+00,1
46,859,5,1.406100e+02,12,3,3,1,3.026096e-01,4,1,0,3.200000e+00,1
46,860,5,1.343300e+02,37,3,3,1,3.920326e-01,3,1,0,3.100000e+00,1
46,861,5,1.426300e+02,21,3,3,1,2.421155e-01,4,1,0,3.200000e+00,1
46,862,5,4.923000e+01,62,2,2,1,2.922816e-01,4,1,0,2.100000e+00,1
46,863,5,1.285600e+02,3,3,3,1,2.542667e-01,4,1,0,3.200000e+00,1
46,864,5,1.005000e+01,38,1,1,1,5.356691e-01,4,1,0,1.300000e+00,1
46,865,5,1.027200e+02,16,3,3,1,8.171144e-01,4,1,0,3.200000e+00,1
46,866,5,5.010000e+00,63,1,1,1,4.428587e-01,4,1,0,1.300000e+00,1
46,867,5,9.214000e+01,70,2,2,1,2.446263e-01,3,1,0,2.100000e+00,1
46,868,5,6.326000e+01,6,2,2,1,2.623251e-01,3,1,0,2.300000e+00,1
46,869,5,8.415000e+01,4,2,1,0,2.636478e-01,4,1,0,2.100000e+00,1
46,870,5,3.195000e+01,57,1,1,1,2.890729e-01,3,1,0,1.200000e+00,1
46,871,5,1.222800e+02,56,3,3,1,3.463194e-01,3,1,0,3.100000e+00,1
46,872,5,6.824000e+01,44,2,2,1,2.759785e-01,3,1,0,2.100000e+00,1
46,873,5,5.413000e+01,66,2,2,1,4.938183e-01,3,1,0,2.100000e+00,1
46,874,5,1.203400e+02,59,3,3,1,3.119405e-01,4,1,0,3.100000e+00,1
46,875,5,1.185000e+01,43,1,1,1,2.893524e-01,4,1,0,1.200000e+00,1
46,876,5,2.681000e+01,51,1,1,1,3.308283e-01,4,1,0,1.200000e+00,1
46,877,5,3.195000e+01,57,1,1,1,5.084247e-01,4,1,0,1.200000e+00,1
46,878,5,2.799000e+01,28,1,1,1,3.661284e-01,4,1,0,1.300000e+00,1
46,879,5,7.920000e+01,23,2,2,1,2.237150e-01,4,1,0,2.100000e+00,1
46,880,5,6.824000e+01,44,2,2,1,2.330197e-01,4,1,0,2.100000e+00,1
46,881,5,1.385800e+02,13,3,3,1,3.305265e-01,2,1,0,3.200000e+00,1
46,882,5,6.906000e+01,10,2,2,1,3.158917e-01,3,1,0,2.100000e+00,1
46,883,5,5.816000e+01,25,2,2,1,2.772686e-01,4,1,0,2.300000e+00,1
46,884,5,2.310000e+01,20,1,1,1,3.434093e-01,3,1,0,1.300000e+00,1
46,885,5,1.222800e+02,56,3,3,1,4.894781e-01,4,1,0,3.100000e+00,1
46,886,5,4.414000e+01,42,1,1,1,2.910141e-01,4,1,0,1.300000e+00,1
46,887,5,6.326000e+01,6,2,2,1,3.163291e-01,4,1,0,2.300000e+00,1
46,888,5,7.125000e+01,55,2,2,1,2.539709e-01,4,1,0,2.100000e+00,1
46,889,5,1.385800e+02,13,3,3,1,5.115120e-01,3,1,0,3.200000e+00,1
46,890,5,1.003700e+02,40,3,3,1,2.565360e-01,3,1,0,3.100000e+00,1
46,891,5,9.214000e+01,70,2,2,1,3.463701e-01,4,1,0,2.100000e+00,1
46,892,5,1.343300e+02,37,3,3,1,2.833246e-01,4,1,0,3.100000e+00,1
46,893,5,1.254500e+02,2,3,3,1,3.818045e-01,4,1,0,3.100000e+00,1
46,894,5,1.003700e+02,40,3,3,1,4.302859e-01,4,1,0,3.100000e+00,1
46,895,5,4.077000e+01,32,1,1,1,9.589250e-02,4,1,0,1.200000e+00,1
46,896,5,2.310000e+01,20,1,1,1,5.531134e-01,4,1,0,1.300000e+00,1
46,897,5,3.896000e+01,49,1,1,1,2.984383e-01,4,1,0,1.200000e+00,1
46,898,5,5.413000e+01,66,2,2,1,3.398185e-01,4,1,0,2.100000e+00,1
46,899,5,1.698000e+01,1,1,1,1,2.696096e-01,4,1,0,1.300000e+00,1
46,900,5,1.213000e+02,52,3,3,1,3.030001e-01,4,1,0,3.100000e+00,1
46,901,5,1.385800e+02,13,3,3,1,4.243643e-01,4,1,0,3.200000e+00,1
46,902,5,7.923000e+01,69,2,2,1,3.378073e-01,4,1,0,2.300000e+00,1
46,903,5,4.474000e+01,18,1,1,1,3.390440e-01,4,1,0,1.200000e+00,1
46,904,5,7.890000e+00,54,1,1,1,4.605678e-01,4,1,0,1.200000e+00,1
46,905,5,6.544000e+01,48,2,2,1,3.348223e-01,4,1,0,2.300000e+00,1
46,906,5,3.680000e+01,31,1,1,1,2.240295e-01,4,1,0,1.200000e+00,1
46,907,5,6.906000e+01,10,2,2,1,3.053938e-01,4,1,0,2.100000e+00,1
46,908,6,53,53,2,2,1,8.200842e-01,NaN,2,0,2,1
46,909,6,63,21,2,2,1,1.138806e+00,NaN,2,0,2,1
46,910,6,33,37,2,2,1,1.354949e+00,NaN,2,0,1,1
46,911,6,21,30,2,2,1,1.115139e+00,NaN,2,0,1,1
46,912,6,127,19,2,2,1,1.100670e+00,NaN,2,0,3,1
46,913,6,37,40,1,1,1,1.422411e+00,NaN,2,0,1,1
46,914,6,55,65,2,2,1,1.027947e+00,NaN,2,0,2,1
46,915,6,70,61,1,1,1,7.614481e-01,NaN,2,0,2,1
46,916,6,85,43,1,1,1,7.291136e-01,NaN,2,0,2,1
46,917,6,61,12,2,2,1,7.781692e-01,NaN,2,0,2,1
46,918,6,105,38,2,2,1,1.321525e+00,NaN,2,0,3,1
46,919,6,23,62,1,1,1,1.282870e+00,NaN,2,0,1,1
46,920,6,14,70,1,2,0,1.829399e+00,NaN,2,0,1,1
46,921,6,56,3,2,2,1,8.020613e-01,NaN,2,0,2,1
46,922,6,90,8,1,1,1,1.112017e+00,NaN,2,1,2,1
46,923,6,32,46,1,1,1,1.425605e+00,NaN,2,0,1,1
46,924,6,101,63,1,2,0,2.046661e+00,NaN,2,0,3,1
46,925,6,91,58,1,1,1,8.989710e-01,NaN,2,1,2,1
46,926,6,106,9,1,1,1,1.213034e+00,NaN,2,1,3,1
46,927,6,6,10,1,1,1,1.354213e+00,NaN,2,0,1,1
46,928,6,130,64,2,2,1,2.234191e+00,NaN,2,1,3,1
46,929,6,115,17,2,2,1,2.382809e+00,NaN,2,1,3,1
46,930,6,81,51,2,2,1,2.598012e+00,NaN,2,0,2,1
46,931,6,110,20,1,1,1,2.027785e+00,NaN,2,0,3,1
46,932,6,35,67,2,2,1,2.337099e+00,NaN,2,0,1,1
46,933,6,25,55,1,1,1,1.121904e+00,NaN,2,0,1,1
46,934,6,42,7,1,1,1,1.387241e+00,NaN,2,1,1,1
46,935,6,116,25,2,2,1,3.217955e+00,NaN,2,0,3,1
46,936,6,139,68,2,2,1,1.087365e+00,NaN,2,0,3,1
46,937,6,73,41,1,1,1,2.313809e+00,NaN,2,0,2,1
46,938,6,135,26,2,2,1,1.067267e+00,NaN,2,1,3,1
46,939,6,95,57,1,1,1,1.414468e+00,NaN,2,0,2,1
46,940,6,80,31,1,1,1,1.812004e+00,NaN,2,0,2,1
46,941,6,143,29,1,1,1,1.393129e+00,NaN,2,1,3,1
46,942,6,66,60,1,1,1,7.202451e-01,NaN,2,1,2,1
46,943,6,109,11,1,1,1,1.081609e+00,NaN,2,0,3,1
46,944,6,98,1,1,1,1,1.436132e+00,NaN,2,0,3,1
46,945,6,144,48,2,2,1,2.624592e+00,NaN,2,0,3,1
46,946,6,97,45,1,1,1,1.174339e+00,NaN,2,1,3,1
46,947,6,15,4,1,1,1,1.837558e+00,NaN,2,0,1,1
46,948,6,39,22,1,1,1,1.930403e+00,NaN,2,0,1,1
46,949,6,51,14,2,2,1,1.282994e+00,NaN,2,1,2,1
46,950,6,133,71,1,1,1,1.086100e+00,NaN,2,0,3,1
46,951,6,74,18,2,2,1,8.084846e-01,NaN,2,0,2,1
46,952,6,60,72,2,2,1,1.606376e+00,NaN,2,0,2,1
46,953,6,87,27,2,0,0,3.499949e+00,NaN,2,1,2,1
46,954,6,96,49,1,1,1,1.758416e+00,NaN,2,0,2,1
46,955,6,89,54,1,1,1,1.055382e+00,NaN,2,0,2,1
46,956,6,137,47,2,2,1,1.362355e+00,NaN,2,1,3,1
46,957,6,45,2,2,1,0,1.769731e+00,NaN,2,0,1,1
46,958,6,77,32,1,1,1,9.375023e-01,NaN,2,0,2,1
46,959,6,104,50,2,2,1,1.361923e+00,NaN,2,1,3,1
46,960,6,126,6,1,1,1,1.841516e+00,NaN,2,0,3,1
46,961,6,58,13,1,1,1,1.134390e+00,NaN,2,0,2,1
46,962,6,41,35,2,2,1,1.142729e+00,NaN,2,0,1,1
46,963,6,119,39,1,1,1,8.793069e-01,NaN,2,1,3,1
46,964,6,86,33,2,2,1,7.621631e-01,NaN,2,1,2,1
46,965,6,12,24,1,1,1,1.281469e+00,NaN,2,0,1,1
46,966,6,123,69,2,2,1,1.699991e+00,NaN,2,0,3,1
46,967,6,34,59,1,1,1,1.758151e+00,NaN,2,0,1,1
46,968,6,103,15,2,2,1,1.318492e+00,NaN,2,0,3,1
46,969,6,24,44,2,2,1,1.023613e+00,NaN,2,0,1,1
46,970,6,114,42,1,1,1,2.285186e+00,NaN,2,0,3,1
46,971,6,46,34,2,2,1,1.303854e+00,NaN,2,0,1,1
46,972,6,99,28,1,1,1,1.657671e+00,NaN,2,0,3,1
46,973,6,28,56,1,1,1,1.901582e+00,NaN,2,0,1,1
46,974,6,19,36,2,2,1,1.295770e+00,NaN,2,1,1,1
46,975,6,13,66,2,2,1,1.137928e+00,NaN,2,0,1,1
46,976,6,20,23,1,1,1,1.178546e+00,NaN,2,0,1,1
46,977,6,72,16,2,2,1,7.462066e-01,NaN,2,0,2,1
46,978,6,1,5,2,2,1,9.220867e-01,NaN,2,1,1,1
46,979,6,30,52,2,2,1,1.227536e+00,NaN,2,0,1,1
46,980,6,29,58,1,1,1,1.945029e+00,NaN,1,1,1,1
46,981,6,68,44,2,2,1,6.974813e-01,NaN,1,0,2,1
46,982,6,48,15,1,1,1,1.364224e+00,NaN,1,0,1,1
46,983,6,100,40,1,1,1,1.298670e+00,NaN,1,0,3,1
46,984,6,5,27,1,1,1,1.108829e+00,NaN,1,1,1,1
46,985,6,57,25,1,1,1,7.347262e-01,NaN,1,0,2,1
46,986,6,94,5,2,2,1,8.555727e-01,NaN,1,1,2,1
46,987,6,122,56,2,2,1,1.435585e+00,NaN,1,0,3,1
46,988,6,64,48,2,2,1,1.072403e+00,NaN,1,0,2,1
46,989,6,8,50,2,2,1,1.723702e+00,NaN,1,1,1,1
46,990,6,18,45,1,1,1,1.181157e+00,NaN,1,1,1,1
46,991,6,131,41,2,2,1,1.019638e+00,NaN,1,0,3,1
46,992,6,141,67,1,1,1,1.032945e+00,NaN,1,0,3,1
46,993,6,40,32,2,2,1,1.917901e+00,NaN,1,0,1,1
46,994,6,9,38,1,1,1,1.199365e+00,NaN,1,0,1,1
46,995,6,62,6,1,1,1,9.170573e-01,NaN,1,0,2,1
46,996,6,82,24,1,1,1,9.183876e-01,NaN,1,0,2,1
46,997,6,67,47,2,2,1,1.063642e+00,NaN,1,1,2,1
46,998,6,88,36,1,1,1,1.435303e+00,NaN,1,1,2,1
46,999,6,117,72,1,1,1,1.776044e+00,NaN,1,0,3,1
46,1000,6,3,11,2,2,1,1.935521e+00,NaN,1,0,1,1
46,1001,6,111,22,1,2,0,2.439717e+00,NaN,1,0,3,1
46,1002,6,107,60,2,1,0,1.236847e+00,NaN,1,1,3,1
46,1003,6,71,55,1,2,0,2.225699e+00,NaN,1,0,2,1
46,1004,6,142,21,2,2,1,1.310882e+00,NaN,1,0,3,1
46,1005,6,121,52,1,1,1,9.849107e-01,NaN,1,0,3,1
46,1006,6,83,29,2,2,1,8.557471e-01,NaN,1,1,2,1
46,1007,6,38,49,1,1,1,1.971728e+00,NaN,1,0,1,1
46,1008,6,59,30,1,1,1,8.596612e-01,NaN,1,0,2,1
46,1009,6,26,51,2,2,1,1.430794e+00,NaN,1,0,1,1
46,1010,6,4,63,1,1,1,9.078142e-01,NaN,1,0,1,1
46,1011,6,92,70,1,1,1,1.021464e+00,NaN,1,0,2,1
46,1012,6,108,46,2,2,1,2.170939e+00,NaN,1,0,3,1
46,1013,6,102,16,2,2,1,1.202598e+00,NaN,1,0,3,1
46,1014,6,129,35,1,1,1,3.152347e+00,NaN,1,0,3,1
46,1015,6,43,42,2,2,1,1.480590e+00,NaN,1,0,1,1
46,1016,6,138,13,2,2,1,1.907015e+00,NaN,1,0,3,1
46,1017,6,49,62,1,1,1,7.490594e-01,NaN,1,0,2,1
46,1018,6,7,54,1,1,1,9.333260e-01,NaN,1,0,1,1
46,1019,6,44,18,2,2,1,2.486072e+00,NaN,1,0,1,1
46,1020,6,69,10,2,2,1,7.765054e-01,NaN,1,0,2,1
46,1021,6,140,12,1,1,1,9.601363e-01,NaN,1,0,3,1
46,1022,6,16,1,2,2,1,1.015937e+00,NaN,1,0,1,1
46,1023,6,27,28,1,1,1,9.572247e-01,NaN,1,0,1,1
46,1024,6,128,3,1,1,1,2.989226e+00,NaN,1,0,3,1
46,1025,6,118,34,1,1,1,1.572323e+00,NaN,1,0,3,1
46,1026,6,79,23,2,2,1,8.118296e-01,NaN,1,0,2,1
46,1027,6,112,53,1,1,1,1.185374e+00,NaN,1,0,3,1
46,1028,6,132,14,2,2,1,1.496192e+00,NaN,1,1,3,1
46,1029,6,22,20,1,1,1,1.610151e+00,NaN,1,0,1,1
46,1030,6,75,26,2,2,1,9.600726e-01,NaN,1,1,2,1
46,1031,6,52,71,2,2,1,9.283983e-01,NaN,1,0,2,1
46,1032,6,2,33,2,2,1,2.417501e+00,NaN,1,1,1,1
46,1033,6,47,17,1,1,1,9.995862e-01,NaN,1,1,1,1
46,1034,6,93,19,2,2,1,9.572627e-01,NaN,1,0,2,1
46,1035,6,31,57,1,1,1,1.141183e+00,NaN,1,0,1,1
46,1036,6,124,65,2,1,0,2.797595e+00,NaN,1,0,3,1
46,1037,6,76,39,1,1,1,7.316383e-01,NaN,1,1,2,1
46,1038,6,136,61,1,1,1,7.726907e-01,NaN,1,0,3,1
46,1039,6,36,31,2,2,1,1.811933e+00,NaN,1,0,1,1
46,1040,6,17,8,1,1,1,2.201369e+00,NaN,1,1,1,1
46,1041,6,120,59,2,2,1,2.694988e+00,NaN,1,0,3,1
46,1042,6,125,2,1,1,1,1.209275e+00,NaN,1,0,3,1
46,1043,6,78,69,2,2,1,1.007368e+00,NaN,1,0,2,1
46,1044,6,10,9,2,2,1,1.021178e+00,NaN,1,1,1,1
46,1045,6,84,4,1,1,1,1.242643e+00,NaN,1,0,2,1
46,1046,6,65,64,2,2,1,1.223573e+00,NaN,1,1,2,1
46,1047,6,113,7,2,2,1,1.276675e+00,NaN,1,1,3,1
46,1048,6,54,66,1,1,1,1.144479e+00,NaN,1,0,2,1
46,1049,6,134,37,2,2,1,1.192697e+00,NaN,1,0,3,1
46,1050,6,50,68,2,2,1,2.959842e+00,NaN,1,0,2,1
46,1051,6,11,43,1,1,1,1.151882e+00,NaN,1,0,1,1
