Subject,Trial,Cond,ImageNum,CueNum,Correct,Resp,Accuracy,RT,CueRep,ImageType,Baseline,Category,Block
48,1,1,118,NaN,NaN,1,NaN,1.542874e+00,NaN,1,0,3,1
48,2,1,128,NaN,NaN,1,NaN,3.774273e-02,NaN,1,1,3,1
48,3,1,116,NaN,NaN,1,NaN,1.317615e+00,NaN,2,0,3,1
48,4,1,65,NaN,NaN,1,NaN,6.658359e-01,NaN,0,0,2,1
48,5,1,78,NaN,NaN,1,NaN,5.687414e-01,NaN,2,0,2,1
48,6,1,107,NaN,NaN,1,NaN,2.758520e-01,NaN,0,1,3,1
48,7,1,32,NaN,NaN,1,NaN,4.419174e-01,NaN,2,0,1,1
48,8,1,104,NaN,NaN,1,NaN,1.433714e+00,NaN,0,0,3,1
48,9,1,16,NaN,NaN,1,NaN,6.417928e-01,NaN,1,1,1,1
48,10,1,80,NaN,NaN,1,NaN,5.741868e-02,NaN,0,0,2,1
48,11,1,39,NaN,NaN,2,NaN,1.368402e-01,NaN,0,0,1,1
48,12,1,36,NaN,NaN,1,NaN,2.766120e-01,NaN,0,0,1,1
48,13,1,92,NaN,NaN,1,NaN,3.709633e-01,NaN,0,0,2,1
48,14,1,8,NaN,NaN,1,NaN,4.774410e-01,NaN,0,0,1,1
48,15,1,33,NaN,NaN,1,NaN,3.071877e-01,NaN,0,0,1,1
48,16,1,64,NaN,NaN,1,NaN,3.203552e-01,NaN,1,0,2,1
48,17,1,51,NaN,NaN,1,NaN,4.044207e-01,NaN,2,0,2,1
48,18,1,67,NaN,NaN,1,NaN,4.054934e-01,NaN,0,0,2,1
48,19,1,19,NaN,NaN,1,NaN,2.989566e-01,NaN,0,0,1,1
48,20,1,82,NaN,NaN,1,NaN,2.959662e-01,NaN,0,1,2,1
48,21,1,79,NaN,NaN,1,NaN,3.095632e-01,NaN,0,0,2,1
48,22,1,84,NaN,NaN,1,NaN,2.748121e-01,NaN,0,0,2,1
48,23,1,7,NaN,NaN,1,NaN,3.930377e-01,NaN,1,1,1,1
48,24,1,76,NaN,NaN,1,NaN,3.229828e-01,NaN,1,1,2,1
48,25,1,19,NaN,NaN,1,NaN,1.258705e-04,NaN,2,0,1,1
48,26,1,62,NaN,NaN,1,NaN,6.733323e-01,NaN,2,0,2,1
48,27,1,21,NaN,NaN,1,NaN,3.518316e-01,NaN,2,0,1,1
48,28,1,143,NaN,NaN,1,NaN,7.545710e-02,NaN,0,0,3,1
48,29,1,58,NaN,NaN,1,NaN,4.491560e-01,NaN,0,0,2,1
48,30,1,36,NaN,NaN,1,NaN,3.130616e-01,NaN,1,0,1,1
48,31,1,116,NaN,NaN,1,NaN,3.256910e-01,NaN,0,0,3,1
48,32,1,68,NaN,NaN,1,NaN,5.462287e-01,NaN,0,0,2,1
48,33,1,34,NaN,NaN,1,NaN,5.419814e-01,NaN,2,0,1,1
48,34,1,64,NaN,NaN,1,NaN,3.133759e-01,NaN,0,0,2,1
48,35,1,104,NaN,NaN,1,NaN,5.345747e-01,NaN,2,0,3,1
48,36,1,30,NaN,NaN,1,NaN,3.780504e-01,NaN,2,0,1,1
48,37,1,18,NaN,NaN,1,NaN,3.724620e-01,NaN,2,0,1,1
48,38,1,34,NaN,NaN,1,NaN,6.153591e-01,NaN,0,0,1,1
48,39,1,72,NaN,NaN,1,NaN,2.874755e-01,NaN,1,0,2,1
48,40,1,144,NaN,NaN,1,NaN,6.778331e-01,NaN,1,0,3,1
48,41,1,86,NaN,NaN,1,NaN,3.583186e-01,NaN,0,0,2,1
48,42,1,79,NaN,NaN,1,NaN,3.058867e-01,NaN,1,0,2,1
48,43,1,109,NaN,NaN,1,NaN,2.712192e-01,NaN,2,0,3,1
48,44,1,43,NaN,NaN,1,NaN,3.899130e-01,NaN,0,1,1,1
48,45,1,59,NaN,NaN,1,NaN,2.712995e-01,NaN,2,1,2,1
48,46,1,133,NaN,NaN,2,NaN,2.538044e-01,NaN,1,0,3,1
48,47,1,4,NaN,NaN,1,NaN,2.446433e-01,NaN,2,0,1,1
48,48,1,127,NaN,NaN,1,NaN,3.472954e-01,NaN,1,0,3,1
48,49,1,71,NaN,NaN,1,NaN,3.194723e-01,NaN,0,1,2,1
48,50,1,33,NaN,NaN,1,NaN,3.470262e-01,NaN,1,0,1,1
48,51,1,77,NaN,NaN,1,NaN,3.046977e-01,NaN,1,0,2,1
48,52,1,59,NaN,NaN,1,NaN,4.378778e-01,NaN,0,1,2,1
48,53,1,2,NaN,NaN,1,NaN,5.739691e-01,NaN,0,1,1,1
48,54,1,106,NaN,NaN,1,NaN,8.081387e-01,NaN,2,0,3,1
48,55,1,13,NaN,NaN,1,NaN,4.012259e-01,NaN,1,0,1,1
48,56,1,63,NaN,NaN,1,NaN,3.142422e-01,NaN,0,0,2,1
48,57,1,26,NaN,NaN,1,NaN,2.948343e-01,NaN,1,0,1,1
48,58,1,44,NaN,NaN,1,NaN,3.842609e-01,NaN,2,0,1,1
48,59,1,113,NaN,NaN,1,NaN,2.894792e-01,NaN,0,0,3,1
48,60,1,38,NaN,NaN,1,NaN,3.840638e-01,NaN,1,0,1,1
48,61,1,113,NaN,NaN,1,NaN,2.824455e-01,NaN,2,0,3,1
48,62,1,83,NaN,NaN,1,NaN,2.313131e-01,NaN,0,0,2,1
48,63,1,134,NaN,NaN,1,NaN,4.000922e-01,NaN,0,0,3,1
48,64,1,140,NaN,NaN,1,NaN,5.616402e-01,NaN,0,1,3,1
48,65,1,121,NaN,NaN,1,NaN,3.725754e-01,NaN,1,0,3,1
48,66,1,57,NaN,NaN,1,NaN,3.435253e-01,NaN,0,1,2,1
48,67,1,123,NaN,NaN,1,NaN,3.066389e-01,NaN,1,0,3,1
48,68,1,121,NaN,NaN,1,NaN,5.839186e-01,NaN,0,0,3,1
48,69,1,139,NaN,NaN,1,NaN,3.537383e-01,NaN,1,1,3,1
48,70,1,103,NaN,NaN,1,NaN,3.095146e-01,NaN,0,1,3,1
48,71,1,93,NaN,NaN,1,NaN,3.143270e-01,NaN,1,0,2,1
48,72,1,144,NaN,NaN,1,NaN,3.525726e-01,NaN,0,0,3,1
48,73,1,71,NaN,NaN,1,NaN,2.677130e-01,NaN,1,1,2,1
48,74,1,90,NaN,NaN,1,NaN,3.702645e-01,NaN,1,0,2,1
48,75,1,120,NaN,NaN,2,NaN,2.204881e+00,NaN,2,1,3,1
48,76,1,95,NaN,NaN,1,NaN,5.420180e-01,NaN,1,0,2,1
48,77,1,90,NaN,NaN,1,NaN,3.138084e-01,NaN,0,0,2,1
48,78,1,110,NaN,NaN,1,NaN,1.791172e+00,NaN,0,1,3,1
48,79,1,52,NaN,NaN,1,NaN,3.126656e-01,NaN,0,1,2,1
48,80,1,126,NaN,NaN,2,NaN,1.069043e+00,NaN,0,0,3,1
48,81,1,24,NaN,NaN,1,NaN,6.922002e-01,NaN,1,0,1,1
48,82,1,6,NaN,NaN,1,NaN,6.011013e-01,NaN,1,0,1,1
48,83,1,119,NaN,NaN,1,NaN,3.708600e-01,NaN,0,0,3,1
48,84,1,109,NaN,NaN,1,NaN,3.083525e-01,NaN,0,0,3,1
48,85,1,58,NaN,NaN,1,NaN,3.219450e-01,NaN,1,0,2,1
48,86,1,141,NaN,NaN,1,NaN,3.639040e-01,NaN,2,0,3,1
48,87,1,97,NaN,NaN,1,NaN,1.158992e+00,NaN,2,1,3,1
48,88,1,74,NaN,NaN,1,NaN,2.974456e-01,NaN,0,0,2,1
48,89,1,38,NaN,NaN,1,NaN,2.710810e-01,NaN,0,0,1,1
48,90,1,68,NaN,NaN,1,NaN,3.250227e-01,NaN,2,0,2,1
48,91,1,94,NaN,NaN,1,NaN,3.132328e-01,NaN,0,0,2,1
48,92,1,48,NaN,NaN,1,NaN,5.228875e-01,NaN,2,1,1,1
48,93,1,22,NaN,NaN,1,NaN,2.790676e-01,NaN,0,1,1,1
48,94,1,117,NaN,NaN,1,NaN,7.254366e-01,NaN,0,0,3,1
48,95,1,4,NaN,NaN,1,NaN,2.150701e-01,NaN,0,0,1,1
48,96,1,63,NaN,NaN,1,NaN,2.075321e-01,NaN,1,0,2,1
48,97,1,84,NaN,NaN,1,NaN,3.338583e-01,NaN,2,0,2,1
48,98,1,129,NaN,NaN,1,NaN,1.409785e+00,NaN,1,0,3,1
48,99,1,101,NaN,NaN,1,NaN,1.090537e+00,NaN,1,0,3,1
48,100,1,48,NaN,NaN,1,NaN,2.808614e-01,NaN,0,1,1,1
48,101,1,122,NaN,NaN,2,NaN,1.414351e+00,NaN,1,0,3,1
48,102,1,35,NaN,NaN,2,NaN,7.673023e-01,NaN,1,1,1,1
48,103,1,9,NaN,NaN,1,NaN,3.861803e-01,NaN,1,0,1,1
48,104,1,111,NaN,NaN,1,NaN,6.065388e-01,NaN,1,0,3,1
48,105,1,141,NaN,NaN,1,NaN,5.123050e-01,NaN,0,0,3,1
48,106,1,45,NaN,NaN,2,NaN,2.848356e-01,NaN,0,0,1,1
48,107,1,118,NaN,NaN,1,NaN,3.790410e-01,NaN,0,0,3,1
48,108,1,20,NaN,NaN,1,NaN,2.375726e-01,NaN,1,1,1,1
48,109,1,131,NaN,NaN,1,NaN,4.532433e-01,NaN,2,0,3,1
48,110,1,103,NaN,NaN,1,NaN,3.081512e-01,NaN,2,1,3,1
48,111,1,143,NaN,NaN,1,NaN,3.982603e-01,NaN,2,0,3,1
48,112,1,28,NaN,NaN,1,NaN,3.676022e-01,NaN,0,0,1,1
48,113,1,133,NaN,NaN,1,NaN,1.338123e+00,NaN,0,0,3,1
48,114,1,99,NaN,NaN,2,NaN,7.418426e-01,NaN,0,0,3,1
48,115,1,53,NaN,NaN,1,NaN,3.138824e-01,NaN,2,1,2,1
48,116,1,140,NaN,NaN,1,NaN,7.663110e-01,NaN,2,1,3,1
48,117,1,101,NaN,NaN,1,NaN,3.936637e-01,NaN,0,0,3,1
48,118,1,135,NaN,NaN,1,NaN,3.496903e-01,NaN,0,0,3,1
48,119,1,43,NaN,NaN,1,NaN,5.856159e-01,NaN,1,1,1,1
48,120,1,25,NaN,NaN,1,NaN,4.267725e-01,NaN,1,0,1,1
48,121,1,96,NaN,NaN,1,NaN,4.911608e-01,NaN,0,0,2,1
48,122,1,50,NaN,NaN,1,NaN,5.516994e-01,NaN,0,1,2,1
48,123,1,42,NaN,NaN,1,NaN,3.946381e-01,NaN,0,0,1,1
48,124,1,99,NaN,NaN,2,NaN,1.460415e+00,NaN,1,0,3,1
48,125,1,67,NaN,NaN,1,NaN,2.522976e-01,NaN,1,0,2,1
48,126,1,39,NaN,NaN,1,NaN,7.158862e-01,NaN,2,0,1,1
48,127,1,56,NaN,NaN,1,NaN,4.404387e-01,NaN,0,0,2,1
48,128,1,6,NaN,NaN,1,NaN,1.015909e+00,NaN,0,0,1,1
48,129,1,87,NaN,NaN,1,NaN,1.043786e-01,NaN,0,0,2,1
48,130,1,23,NaN,NaN,1,NaN,3.895130e-01,NaN,0,0,1,1
48,131,1,25,NaN,NaN,1,NaN,3.512052e-01,NaN,0,0,1,1
48,132,1,102,NaN,NaN,2,NaN,8.385015e-01,NaN,0,0,3,1
48,133,1,120,NaN,NaN,1,NaN,5.097115e-01,NaN,0,1,3,1
48,134,1,7,NaN,NaN,1,NaN,3.391869e-01,NaN,0,1,1,1
48,135,1,16,NaN,NaN,1,NaN,3.019452e-01,NaN,0,1,1,1
48,136,1,91,NaN,NaN,1,NaN,1.043917e+00,NaN,1,1,2,1
48,137,1,3,NaN,NaN,1,NaN,1.251215e+00,NaN,2,0,1,1
48,138,1,70,NaN,NaN,1,NaN,3.950631e-01,NaN,0,0,2,1
48,139,1,37,NaN,NaN,1,NaN,8.684463e-01,NaN,0,1,1,1
48,140,1,130,NaN,NaN,2,NaN,2.938718e+00,NaN,2,1,3,1
48,141,1,142,NaN,NaN,1,NaN,8.780517e-01,NaN,1,0,3,1
48,142,1,85,NaN,NaN,1,NaN,5.154517e-01,NaN,2,0,2,1
48,143,1,23,NaN,NaN,1,NaN,2.689949e-01,NaN,2,0,1,1
48,144,1,74,NaN,NaN,1,NaN,3.080775e-01,NaN,2,0,2,1
48,145,1,18,NaN,NaN,1,NaN,3.132769e-01,NaN,0,0,1,1
48,146,1,110,NaN,NaN,1,NaN,5.342318e-01,NaN,2,1,3,1
48,147,1,139,NaN,NaN,1,NaN,3.301598e-01,NaN,0,1,3,1
48,148,1,87,NaN,NaN,1,NaN,3.222167e-01,NaN,2,0,2,1
48,149,1,1,NaN,NaN,1,NaN,2.942303e-01,NaN,0,0,1,1
48,150,1,56,NaN,NaN,1,NaN,3.311028e-01,NaN,2,0,2,1
48,151,1,53,NaN,NaN,1,NaN,3.108376e-01,NaN,0,1,2,1
48,152,1,21,NaN,NaN,1,NaN,3.236296e-01,NaN,0,0,1,1
48,153,1,27,NaN,NaN,1,NaN,4.485321e-01,NaN,2,0,1,1
48,154,1,29,NaN,NaN,1,NaN,3.676427e-01,NaN,0,1,1,1
48,155,1,73,NaN,NaN,1,NaN,2.746470e-01,NaN,1,1,2,1
48,156,1,41,NaN,NaN,1,NaN,4.332991e-01,NaN,0,0,1,1
48,157,1,125,NaN,NaN,1,NaN,2.328942e-01,NaN,1,0,3,1
48,158,1,85,NaN,NaN,1,NaN,3.685216e-01,NaN,0,0,2,1
48,159,1,40,NaN,NaN,1,NaN,3.152042e-01,NaN,1,1,1,1
48,160,1,136,NaN,NaN,1,NaN,7.674608e-01,NaN,0,0,3,1
48,161,1,65,NaN,NaN,1,NaN,2.963867e-01,NaN,1,0,2,1
48,162,1,44,NaN,NaN,1,NaN,2.860774e-01,NaN,0,0,1,1
48,163,1,92,NaN,NaN,1,NaN,2.761227e-01,NaN,1,0,2,1
48,164,1,137,NaN,NaN,1,NaN,7.843651e-01,NaN,2,1,3,1
48,165,1,10,NaN,NaN,1,NaN,3.845929e-01,NaN,0,0,1,1
48,166,1,27,NaN,NaN,1,NaN,3.542726e-01,NaN,0,0,1,1
48,167,1,12,NaN,NaN,1,NaN,3.736875e-01,NaN,0,0,1,1
48,168,1,20,NaN,NaN,1,NaN,3.043947e-01,NaN,0,1,1,1
48,169,1,134,NaN,NaN,1,NaN,5.341467e-01,NaN,2,0,3,1
48,170,1,96,NaN,NaN,1,NaN,2.730007e-01,NaN,2,0,2,1
48,171,1,81,NaN,NaN,1,NaN,1.297945e-04,NaN,1,1,2,1
48,172,1,107,NaN,NaN,1,NaN,3.058577e-01,NaN,1,1,3,1
48,173,1,132,NaN,NaN,1,NaN,1.358372e+00,NaN,0,0,3,1
48,174,1,94,NaN,NaN,1,NaN,2.603630e-01,NaN,2,0,2,1
48,175,1,97,NaN,NaN,1,NaN,2.831648e-01,NaN,0,1,3,1
48,176,1,31,NaN,NaN,1,NaN,3.446742e-01,NaN,1,0,1,1
48,177,1,102,NaN,NaN,1,NaN,8.440217e-01,NaN,2,0,3,1
48,178,1,54,NaN,NaN,1,NaN,2.732051e-01,NaN,1,0,2,1
48,179,1,55,NaN,NaN,1,NaN,3.438821e-01,NaN,1,0,2,1
48,180,1,98,NaN,NaN,1,NaN,3.397770e-01,NaN,2,0,3,1
48,181,1,49,NaN,NaN,1,NaN,2.479700e-01,NaN,0,0,2,1
48,182,1,70,NaN,NaN,1,NaN,4.556421e-01,NaN,2,0,2,1
48,183,1,137,NaN,NaN,1,NaN,3.428655e-01,NaN,0,1,3,1
48,184,1,126,NaN,NaN,1,NaN,1.650135e+00,NaN,1,0,3,1
48,185,1,138,NaN,NaN,1,NaN,9.374819e-01,NaN,0,0,3,1
48,186,1,13,NaN,NaN,1,NaN,2.693478e-01,NaN,0,0,1,1
48,187,1,29,NaN,NaN,1,NaN,3.166914e-01,NaN,2,1,1,1
48,188,1,115,NaN,NaN,2,NaN,4.888725e-01,NaN,0,0,3,1
48,189,1,124,NaN,NaN,1,NaN,6.193873e-01,NaN,0,0,3,1
48,190,1,132,NaN,NaN,1,NaN,8.124545e-01,NaN,1,0,3,1
48,191,1,89,NaN,NaN,1,NaN,3.573385e-01,NaN,1,0,2,1
48,192,1,69,NaN,NaN,1,NaN,3.038538e-01,NaN,2,0,2,1
48,193,1,112,NaN,NaN,1,NaN,3.173307e-01,NaN,0,0,3,1
48,194,1,105,NaN,NaN,2,NaN,4.179429e-01,NaN,2,0,3,1
48,195,1,108,NaN,NaN,2,NaN,3.746589e+00,NaN,2,0,3,1
48,196,1,105,NaN,NaN,1,NaN,9.257343e-01,NaN,0,0,3,1
48,197,1,136,NaN,NaN,1,NaN,3.067265e-01,NaN,2,0,3,1
48,198,1,24,NaN,NaN,1,NaN,6.155746e-01,NaN,0,0,1,1
48,199,1,9,NaN,NaN,1,NaN,7.763882e-01,NaN,0,0,1,1
48,200,1,82,NaN,NaN,1,NaN,2.907243e-01,NaN,2,1,2,1
48,201,1,8,NaN,NaN,1,NaN,3.207518e-01,NaN,1,0,1,1
48,202,1,125,NaN,NaN,1,NaN,2.694631e-01,NaN,0,0,3,1
48,203,1,14,NaN,NaN,1,NaN,3.160566e-01,NaN,0,0,1,1
48,204,1,112,NaN,NaN,1,NaN,2.731350e-01,NaN,2,0,3,1
48,205,1,26,NaN,NaN,1,NaN,2.955282e-01,NaN,0,0,1,1
48,206,1,76,NaN,NaN,1,NaN,3.250209e-01,NaN,0,1,2,1
48,207,1,37,NaN,NaN,1,NaN,4.417043e-01,NaN,1,1,1,1
48,208,1,46,NaN,NaN,2,NaN,3.295652e-01,NaN,2,1,1,1
48,209,1,123,NaN,NaN,1,NaN,3.255503e-01,NaN,0,0,3,1
48,210,1,32,NaN,NaN,1,NaN,2.652260e-01,NaN,0,0,1,1
48,211,1,31,NaN,NaN,1,NaN,2.645481e-01,NaN,0,0,1,1
48,212,1,86,NaN,NaN,1,NaN,2.714785e-01,NaN,2,0,2,1
48,213,1,11,NaN,NaN,1,NaN,2.732980e-01,NaN,1,0,1,1
48,214,1,115,NaN,NaN,2,NaN,1.263629e+00,NaN,2,0,3,1
48,215,1,2,NaN,NaN,1,NaN,3.345100e-01,NaN,1,1,1,1
48,216,1,45,NaN,NaN,2,NaN,4.643384e-01,NaN,1,0,1,1
48,217,1,5,NaN,NaN,1,NaN,2.950163e-01,NaN,0,0,1,1
48,218,1,35,NaN,NaN,2,NaN,1.496979e+00,NaN,0,1,1,1
48,219,1,81,NaN,NaN,1,NaN,3.021683e-01,NaN,0,1,2,1
48,220,1,106,NaN,NaN,1,NaN,2.826719e-01,NaN,0,0,3,1
48,221,1,14,NaN,NaN,1,NaN,3.774210e-01,NaN,2,0,1,1
48,222,1,88,NaN,NaN,1,NaN,3.396019e-01,NaN,0,0,2,1
48,223,1,124,NaN,NaN,1,NaN,3.114274e-01,NaN,1,0,3,1
48,224,1,100,NaN,NaN,1,NaN,5.082258e-01,NaN,2,0,3,1
48,225,1,138,NaN,NaN,1,NaN,5.293174e-01,NaN,1,0,3,1
48,226,1,61,NaN,NaN,1,NaN,3.498490e-01,NaN,2,1,2,1
48,227,1,135,NaN,NaN,1,NaN,4.816119e-01,NaN,1,0,3,1
48,228,1,22,NaN,NaN,1,NaN,2.702213e-01,NaN,2,1,1,1
48,229,1,49,NaN,NaN,1,NaN,2.848522e-01,NaN,2,0,2,1
48,230,1,51,NaN,NaN,1,NaN,2.987646e-01,NaN,0,0,2,1
48,231,1,15,NaN,NaN,1,NaN,4.326480e-01,NaN,0,1,1,1
48,232,1,61,NaN,NaN,1,NaN,2.964262e-01,NaN,0,1,2,1
48,233,1,93,NaN,NaN,1,NaN,2.621979e-01,NaN,0,0,2,1
48,234,1,114,NaN,NaN,1,NaN,5.011792e-01,NaN,0,0,3,1
48,235,1,3,NaN,NaN,1,NaN,6.748270e-01,NaN,0,0,1,1
48,236,1,11,NaN,NaN,1,NaN,2.650015e-01,NaN,0,0,1,1
48,237,1,60,NaN,NaN,1,NaN,3.708344e-01,NaN,0,0,2,1
48,238,1,117,NaN,NaN,1,NaN,3.644117e-01,NaN,1,0,3,1
48,239,1,119,NaN,NaN,1,NaN,2.473114e-01,NaN,1,0,3,1
48,240,1,17,NaN,NaN,1,NaN,2.629748e-01,NaN,2,1,1,1
48,241,1,30,NaN,NaN,1,NaN,2.855926e-01,NaN,0,0,1,1
48,242,1,10,NaN,NaN,1,NaN,3.484952e-01,NaN,2,0,1,1
48,243,1,66,NaN,NaN,1,NaN,4.399171e-01,NaN,0,0,2,1
48,244,1,62,NaN,NaN,1,NaN,2.446264e-01,NaN,0,0,2,1
48,245,1,88,NaN,NaN,1,NaN,2.676532e-01,NaN,2,0,2,1
48,246,1,128,NaN,NaN,1,NaN,3.062981e-01,NaN,0,1,3,1
48,247,1,72,NaN,NaN,1,NaN,2.713656e-01,NaN,0,0,2,1
48,248,1,73,NaN,NaN,1,NaN,2.858425e-01,NaN,0,1,2,1
48,249,1,108,NaN,NaN,1,NaN,9.243512e-01,NaN,0,0,3,1
48,250,1,41,NaN,NaN,1,NaN,2.888948e-01,NaN,1,0,1,1
48,251,1,40,NaN,NaN,1,NaN,3.106804e-01,NaN,0,1,1,1
48,252,1,55,NaN,NaN,1,NaN,3.959213e-01,NaN,0,0,2,1
48,253,1,42,NaN,NaN,1,NaN,3.005984e-01,NaN,2,0,1,1
48,254,1,52,NaN,NaN,1,NaN,3.060464e-01,NaN,1,1,2,1
48,255,1,78,NaN,NaN,1,NaN,2.476440e-01,NaN,0,0,2,1
48,256,1,95,NaN,NaN,1,NaN,2.949647e-01,NaN,0,0,2,1
48,257,1,80,NaN,NaN,1,NaN,2.285751e-01,NaN,1,0,2,1
48,258,1,15,NaN,NaN,1,NaN,2.829991e-01,NaN,1,1,1,1
48,259,1,60,NaN,NaN,1,NaN,2.407003e-01,NaN,1,0,2,1
48,260,1,111,NaN,NaN,1,NaN,1.248749e+00,NaN,0,0,3,1
48,261,1,66,NaN,NaN,1,NaN,2.322492e-01,NaN,2,0,2,1
48,262,1,142,NaN,NaN,1,NaN,5.682461e-01,NaN,0,0,3,1
48,263,1,5,NaN,NaN,1,NaN,2.269886e-01,NaN,2,0,1,1
48,264,1,75,NaN,NaN,1,NaN,2.761481e-01,NaN,0,0,2,1
48,265,1,100,NaN,NaN,1,NaN,4.181955e-01,NaN,0,0,3,1
48,266,1,12,NaN,NaN,1,NaN,4.030892e-01,NaN,2,0,1,1
48,267,1,54,NaN,NaN,1,NaN,2.205459e-01,NaN,0,0,2,1
48,268,1,131,NaN,NaN,1,NaN,3.653715e-01,NaN,0,0,3,1
48,269,1,127,NaN,NaN,1,NaN,2.955644e-01,NaN,0,0,3,1
48,270,1,89,NaN,NaN,1,NaN,2.925795e-01,NaN,0,0,2,1
48,271,1,50,NaN,NaN,1,NaN,2.746666e-01,NaN,2,1,2,1
48,272,1,47,NaN,NaN,1,NaN,3.690900e-01,NaN,2,0,1,1
48,273,1,17,NaN,NaN,1,NaN,2.759292e-01,NaN,0,1,1,1
48,274,1,69,NaN,NaN,1,NaN,1.889594e+00,NaN,0,0,2,1
48,275,1,77,NaN,NaN,1,NaN,3.847091e-01,NaN,0,0,2,1
48,276,1,75,NaN,NaN,1,NaN,2.673076e-01,NaN,2,0,2,1
48,277,1,130,NaN,NaN,2,NaN,1.017495e+00,NaN,0,1,3,1
48,278,1,47,NaN,NaN,1,NaN,2.831543e-01,NaN,0,0,1,1
48,279,1,129,NaN,NaN,1,NaN,2.305670e+00,NaN,0,0,3,1
48,280,1,83,NaN,NaN,1,NaN,2.695295e-01,NaN,1,0,2,1
48,281,1,46,NaN,NaN,1,NaN,3.800474e-01,NaN,0,1,1,1
48,282,1,122,NaN,NaN,2,NaN,1.102428e+00,NaN,0,0,3,1
48,283,1,114,NaN,NaN,1,NaN,2.842192e-01,NaN,1,0,3,1
48,284,1,91,NaN,NaN,1,NaN,5.947206e-01,NaN,0,1,2,1
48,285,1,98,NaN,NaN,1,NaN,2.592096e-01,NaN,0,0,3,1
48,286,1,57,NaN,NaN,1,NaN,2.659363e-01,NaN,2,1,2,1
48,287,1,1,NaN,NaN,1,NaN,2.726059e-01,NaN,2,0,1,1
48,288,1,28,NaN,NaN,1,NaN,2.713381e-01,NaN,1,0,1,1
48,333,2,64,45,2,2,1,3.438764e+00,NaN,1,0,2,1
48,334,2,124,53,2,2,1,1.834912e+00,NaN,1,0,3,1
48,335,2,52,34,2,2,1,1.223434e+00,NaN,1,1,2,1
48,336,2,128,19,2,1,0,2.907595e+00,NaN,1,1,3,1
48,337,2,123,35,1,1,1,1.997144e+00,NaN,1,0,3,1
48,338,2,73,22,2,2,1,2.521427e+00,NaN,1,1,2,1
48,339,2,41,46,2,2,1,2.129785e+00,NaN,1,0,1,1
48,340,2,118,39,1,1,1,2.633501e+00,NaN,1,0,3,1
48,341,2,65,64,2,2,1,1.429688e+00,NaN,1,0,2,1
48,342,2,54,69,1,1,1,1.553323e+00,NaN,1,0,2,1
48,343,2,81,4,2,2,1,2.160844e+00,NaN,1,1,2,1
48,344,2,45,42,1,2,0,1.967318e+00,NaN,1,0,1,1
48,345,2,132,43,1,1,1,2.941961e+00,NaN,1,0,3,1
48,346,2,7,12,1,1,1,2.021625e+00,NaN,1,1,1,1
48,347,2,144,30,1,1,1,1.441568e+00,NaN,1,0,3,1
48,348,2,121,3,1,1,1,1.493481e+00,NaN,1,0,3,1
48,349,2,33,62,2,2,1,1.862989e+00,NaN,1,0,1,1
48,350,2,76,2,1,1,1,1.137713e+00,NaN,1,1,2,1
48,351,2,119,1,1,1,1,1.561161e+00,NaN,1,0,3,1
48,352,2,107,23,1,1,1,2.784276e+00,NaN,1,1,3,1
48,353,2,142,9,1,1,1,3.110056e+00,NaN,1,0,3,1
48,354,2,135,25,2,2,1,1.374726e+00,NaN,1,0,3,1
48,355,2,125,66,1,1,1,2.525074e+00,NaN,1,0,3,1
48,356,2,37,17,1,1,1,1.805466e+00,NaN,1,1,1,1
48,357,3,37,17,2,2,1,1.669133e+00,NaN,1,1,1,1
48,358,3,144,30,2,2,1,2.208016e+00,NaN,1,0,3,1
48,359,3,54,69,1,1,1,1.461010e+00,NaN,1,0,2,1
48,360,3,132,43,1,1,1,1.344162e+00,NaN,1,0,3,1
48,361,3,118,39,2,0,0,3.499752e+00,NaN,1,0,3,1
48,362,3,135,25,1,1,1,1.032853e+00,NaN,1,0,3,1
48,363,3,41,46,1,1,1,1.884997e+00,NaN,1,0,1,1
48,364,3,107,23,1,1,1,1.886847e+00,NaN,1,1,3,1
48,365,3,81,4,1,1,1,1.200143e+00,NaN,1,1,2,1
48,366,3,52,34,2,1,0,1.237494e+00,NaN,1,1,2,1
48,367,3,65,64,1,1,1,1.625294e+00,NaN,1,0,2,1
48,368,3,45,42,1,2,0,2.221396e+00,NaN,1,0,1,1
48,369,3,73,22,2,2,1,2.561862e+00,NaN,1,1,2,1
48,370,3,33,62,2,2,1,1.424246e+00,NaN,1,0,1,1
48,371,3,128,19,2,2,1,1.676618e+00,NaN,1,1,3,1
48,372,3,123,35,1,1,1,2.494831e+00,NaN,1,0,3,1
48,373,3,124,53,1,1,1,1.824243e+00,NaN,1,0,3,1
48,374,3,7,12,1,1,1,1.644919e+00,NaN,1,1,1,1
48,375,3,119,1,2,2,1,1.168372e+00,NaN,1,0,3,1
48,376,3,64,45,2,2,1,1.127084e+00,NaN,1,0,2,1
48,377,3,142,9,1,1,1,1.703501e+00,NaN,1,0,3,1
48,378,3,121,3,1,1,1,1.584335e+00,NaN,1,0,3,1
48,379,3,76,2,2,2,1,1.094282e+00,NaN,1,1,2,1
48,380,3,125,66,2,2,1,1.711785e+00,NaN,1,0,3,1
48,405,2,129,18,2,2,1,1.301714e+00,NaN,1,0,3,2
48,406,2,31,11,1,1,1,1.927185e+00,NaN,1,0,1,2
48,407,2,67,51,1,1,1,9.998144e-01,NaN,1,0,2,2
48,408,2,20,29,2,2,1,8.529712e-01,NaN,1,1,1,2
48,409,2,111,14,2,2,1,1.064728e+00,NaN,1,0,3,2
48,410,2,11,32,1,1,1,1.139249e+00,NaN,1,0,1,2
48,411,2,133,63,2,2,1,8.590136e-01,NaN,1,0,3,2
48,412,2,55,15,1,1,1,1.269954e+00,NaN,1,0,2,2
48,413,2,63,8,2,2,1,2.088134e+00,NaN,1,0,2,2
48,414,2,80,71,2,2,1,7.140410e-01,NaN,1,0,2,2
48,415,2,92,50,1,1,1,1.026522e+00,NaN,1,0,2,2
48,416,2,2,72,2,2,1,1.294943e+00,NaN,1,1,1,2
48,417,2,95,67,1,1,1,1.016188e+00,NaN,1,0,2,2
48,418,2,127,61,2,2,1,8.212035e-01,NaN,1,0,3,2
48,419,2,16,16,2,2,1,8.652796e-01,NaN,1,1,1,2
48,420,2,13,31,2,2,1,8.041356e-01,NaN,1,0,1,2
48,421,2,79,7,2,2,1,5.853096e-01,NaN,1,0,2,2
48,422,2,28,70,2,2,1,9.832218e-01,NaN,1,0,1,2
48,423,2,99,47,2,2,1,1.253729e+00,NaN,1,0,3,2
48,424,2,139,52,2,2,1,1.824518e+00,NaN,1,1,3,2
48,425,2,35,59,1,1,1,7.167162e-01,NaN,1,1,1,2
48,426,2,40,58,1,1,1,1.414454e+00,NaN,1,1,1,2
48,427,2,43,38,1,1,1,7.781585e-01,NaN,1,1,1,2
48,428,2,24,56,1,1,1,1.496371e+00,NaN,1,0,1,2
48,429,3,133,63,2,2,1,9.465935e-01,NaN,1,0,3,2
48,430,3,127,61,1,1,1,1.249516e+00,NaN,1,0,3,2
48,431,3,16,16,2,2,1,5.569597e-01,NaN,1,1,1,2
48,432,3,35,59,2,2,1,1.012079e+00,NaN,1,1,1,2
48,433,3,28,70,1,1,1,8.729943e-01,NaN,1,0,1,2
48,434,3,80,71,2,2,1,9.472328e-01,NaN,1,0,2,2
48,435,3,2,72,2,2,1,7.387825e-01,NaN,1,1,1,2
48,436,3,43,38,2,2,1,8.348335e-01,NaN,1,1,1,2
48,437,3,99,47,1,1,1,9.507508e-01,NaN,1,0,3,2
48,438,3,11,32,1,1,1,7.818254e-01,NaN,1,0,1,2
48,439,3,55,15,2,2,1,1.315831e+00,NaN,1,0,2,2
48,440,3,31,11,1,1,1,7.648495e-01,NaN,1,0,1,2
48,441,3,24,56,2,2,1,8.915962e-01,NaN,1,0,1,2
48,442,3,139,52,2,2,1,1.701092e+00,NaN,1,1,3,2
48,443,3,129,18,1,1,1,1.190739e+00,NaN,1,0,3,2
48,444,3,111,14,2,2,1,8.125954e-01,NaN,1,0,3,2
48,445,3,20,29,2,2,1,7.132951e-01,NaN,1,1,1,2
48,446,3,67,51,1,1,1,7.856462e-01,NaN,1,0,2,2
48,447,3,40,58,1,1,1,8.882071e-01,NaN,1,1,1,2
48,448,3,79,7,2,2,1,9.614064e-01,NaN,1,0,2,2
48,449,3,13,31,1,1,1,8.164860e-01,NaN,1,0,1,2
48,450,3,95,67,2,2,1,1.301383e+00,NaN,1,0,2,2
48,451,3,92,50,2,2,1,7.106346e-01,NaN,1,0,2,2
48,452,3,63,8,2,2,1,2.535256e+00,NaN,1,0,2,2
48,477,2,101,5,2,2,1,8.899174e-01,NaN,1,0,3,3
48,478,2,36,54,2,2,1,1.251524e+00,NaN,1,0,1,3
48,479,2,72,37,2,2,1,8.228939e-01,NaN,1,0,2,3
48,480,2,8,60,1,1,1,7.633846e-01,NaN,1,0,1,3
48,481,2,25,36,1,1,1,7.782911e-01,NaN,1,0,1,3
48,482,2,58,21,1,1,1,9.124986e-01,NaN,1,0,2,3
48,483,2,38,27,2,2,1,9.293519e-01,NaN,1,0,1,3
48,484,2,122,44,1,1,1,7.614015e-01,NaN,1,0,3,3
48,485,2,138,68,2,2,1,8.003133e-01,NaN,1,0,3,3
48,486,2,71,26,2,2,1,1.669511e+00,NaN,1,1,2,3
48,487,2,6,49,2,2,1,8.961831e-01,NaN,1,0,1,3
48,488,2,93,28,1,1,1,1.065935e+00,NaN,1,0,2,3
48,489,2,114,6,1,1,1,1.188495e+00,NaN,1,0,3,3
48,490,2,15,13,2,2,1,1.337917e+00,NaN,1,1,1,3
48,491,2,126,10,2,2,1,8.499449e-01,NaN,1,0,3,3
48,492,2,9,20,1,1,1,9.092646e-01,NaN,1,0,1,3
48,493,2,117,40,2,2,1,7.903918e-01,NaN,1,0,3,3
48,494,2,91,65,1,1,1,6.680780e-01,NaN,1,1,2,3
48,495,2,26,57,2,2,1,9.666501e-01,NaN,1,0,1,3
48,496,2,83,55,1,1,1,8.054818e-01,NaN,1,0,2,3
48,497,2,60,41,1,1,1,2.562746e+00,NaN,1,0,2,3
48,498,2,89,24,2,2,1,1.457160e+00,NaN,1,0,2,3
48,499,2,90,48,1,1,1,1.276189e+00,NaN,1,0,2,3
48,500,2,77,33,2,2,1,6.785216e-01,NaN,1,0,2,3
48,501,3,114,6,2,2,1,9.624447e-01,NaN,1,0,3,3
48,502,3,91,65,2,2,1,7.287669e-01,NaN,1,1,2,3
48,503,3,83,55,2,2,1,5.852063e-01,NaN,1,0,2,3
48,504,3,126,10,1,1,1,1.007396e+00,NaN,1,0,3,3
48,505,3,71,26,2,2,1,6.524948e-01,NaN,1,1,2,3
48,506,3,60,41,2,2,1,6.073876e-01,NaN,1,0,2,3
48,507,3,9,20,2,2,1,9.406323e-01,NaN,1,0,1,3
48,508,3,93,28,1,1,1,7.243744e-01,NaN,1,0,2,3
48,509,3,77,33,2,2,1,7.247240e-01,NaN,1,0,2,3
48,510,3,6,49,2,2,1,7.975885e-01,NaN,1,0,1,3
48,511,3,117,40,2,2,1,8.666084e-01,NaN,1,0,3,3
48,512,3,58,21,1,1,1,1.061354e+00,NaN,1,0,2,3
48,513,3,89,24,2,2,1,9.125215e-01,NaN,1,0,2,3
48,514,3,90,48,2,2,1,7.772693e-01,NaN,1,0,2,3
48,515,3,15,13,1,1,1,9.677053e-01,NaN,1,1,1,3
48,516,3,26,57,2,2,1,1.014716e+00,NaN,1,0,1,3
48,517,3,25,36,2,2,1,1.155450e+00,NaN,1,0,1,3
48,518,3,36,54,2,2,1,8.581515e-01,NaN,1,0,1,3
48,519,3,101,5,1,1,1,1.189072e+00,NaN,1,0,3,3
48,520,3,72,37,1,1,1,7.150205e-01,NaN,1,0,2,3
48,521,3,138,68,2,2,1,6.839519e-01,NaN,1,0,3,3
48,522,3,38,27,2,2,1,8.777752e-01,NaN,1,0,1,3
48,523,3,122,44,2,2,1,9.683697e-01,NaN,1,0,3,3
48,524,3,8,60,1,1,1,9.669972e-01,NaN,1,0,1,3
48,549,4,104,24,2,2,1,1.055190e+00,NaN,2,0,3,1
48,550,4,23,21,1,1,1,9.466240e-01,NaN,2,0,1,1
48,551,4,115,70,1,1,1,1.297686e+00,NaN,2,0,3,1
48,552,4,85,18,1,1,1,5.392899e-01,NaN,2,0,2,1
48,553,4,5,44,1,1,1,7.389026e-01,NaN,2,0,1,1
48,554,4,68,56,1,1,1,4.906891e-01,NaN,2,0,2,1
48,555,4,96,66,1,1,1,4.523873e-01,NaN,2,0,2,1
48,556,4,18,14,1,1,1,1.441061e+00,NaN,2,0,1,1
48,557,4,116,42,1,1,1,1.795554e+00,NaN,2,0,3,1
48,558,4,21,47,2,2,1,9.927638e-01,NaN,2,0,1,1
48,559,4,94,1,1,1,1,1.510562e+00,NaN,2,0,2,1
48,560,4,143,36,1,1,1,6.717530e-01,NaN,2,0,3,1
48,561,4,130,13,1,1,1,1.370147e+00,NaN,2,1,3,1
48,562,4,131,49,2,2,1,1.272292e+00,NaN,2,0,3,1
48,563,4,4,61,2,2,1,1.914809e+00,NaN,2,0,1,1
48,564,4,75,30,2,2,1,6.754368e-01,NaN,2,0,2,1
48,565,4,42,28,2,2,1,1.198237e+00,NaN,2,0,1,1
48,566,4,1,25,2,2,1,8.351821e-01,NaN,2,0,1,1
48,567,4,84,63,2,2,1,6.314518e-01,NaN,2,0,2,1
48,568,4,78,68,1,1,1,9.315527e-01,NaN,2,0,2,1
48,569,4,82,52,2,2,1,2.123224e+00,NaN,2,1,2,1
48,570,4,108,71,2,2,1,1.147797e+00,NaN,2,0,3,1
48,571,4,29,26,2,2,1,2.331207e+00,NaN,2,1,1,1
48,572,4,27,51,1,1,1,9.474577e-01,NaN,2,0,1,1
48,597,4,61,17,1,1,1,8.606798e-01,NaN,2,1,2,2
48,598,4,106,7,1,1,1,1.439817e+00,NaN,2,0,3,2
48,599,4,100,55,1,1,1,1.443654e+00,NaN,2,0,3,2
48,600,4,87,53,2,2,1,7.675094e-01,NaN,2,0,2,2
48,601,4,140,38,1,1,1,8.862267e-01,NaN,2,1,3,2
48,602,4,102,45,2,2,1,1.247966e+00,NaN,2,0,3,2
48,603,4,136,54,1,1,1,1.003469e+00,NaN,2,0,3,2
48,604,4,53,29,2,2,1,8.483037e-01,NaN,2,1,2,2
48,605,4,44,48,2,2,1,7.799271e-01,NaN,2,0,1,2
48,606,4,49,27,2,2,1,8.577561e-01,NaN,2,0,2,2
48,607,4,22,19,2,2,1,7.413832e-01,NaN,2,1,1,2
48,608,4,34,15,1,1,1,2.092651e+00,NaN,2,0,1,2
48,609,4,88,5,1,1,1,1.206518e+00,NaN,2,0,2,2
48,610,4,74,43,1,1,1,6.757618e-01,NaN,2,0,2,2
48,611,4,134,57,2,2,1,1.781746e+00,NaN,2,0,3,2
48,612,4,105,64,2,2,1,1.523639e+00,NaN,2,0,3,2
48,613,4,109,33,2,2,1,1.108299e+00,NaN,2,0,3,2
48,614,4,97,4,1,1,1,1.285414e+00,NaN,2,1,3,2
48,615,4,62,31,1,1,1,1.375127e+00,NaN,2,0,2,2
48,616,4,59,59,2,2,1,1.357390e+00,NaN,2,1,2,2
48,617,4,110,2,2,2,1,1.620324e+00,NaN,2,1,3,2
48,618,4,98,8,2,2,1,1.625142e+00,NaN,2,0,3,2
48,619,4,137,72,1,1,1,1.445361e+00,NaN,2,1,3,2
48,620,4,39,69,1,1,1,8.006785e-01,NaN,2,0,1,2
48,645,4,70,35,2,2,1,9.335594e-01,NaN,2,0,2,3
48,646,4,10,9,1,1,1,9.659652e-01,NaN,2,0,1,3
48,647,4,113,62,1,1,1,1.444559e+00,NaN,2,0,3,3
48,648,4,57,16,1,1,1,6.085642e-01,NaN,2,1,2,3
48,649,4,30,41,1,1,1,6.612958e-01,NaN,2,0,1,3
48,650,4,50,58,1,1,1,7.200984e-01,NaN,2,1,2,3
48,651,4,14,40,2,2,1,9.689178e-01,NaN,2,0,1,3
48,652,4,66,32,1,1,1,7.832534e-01,NaN,2,0,2,3
48,653,4,103,65,2,2,1,9.495211e-01,NaN,2,1,3,3
48,654,4,48,34,1,1,1,1.988869e+00,NaN,2,1,1,3
48,655,4,3,3,1,1,1,9.223853e-01,NaN,2,0,1,3
48,656,4,51,11,2,2,1,9.789434e-01,NaN,2,0,2,3
48,657,4,17,23,1,1,1,1.481059e+00,NaN,2,1,1,3
48,658,4,112,67,1,1,1,1.050897e+00,NaN,2,0,3,3
48,659,4,19,39,2,2,1,1.582154e+00,NaN,2,0,1,3
48,660,4,32,50,2,1,0,1.284485e+00,NaN,2,0,1,3
48,661,4,86,10,2,2,1,9.664092e-01,NaN,2,0,2,3
48,662,4,120,12,2,2,1,1.685326e+00,NaN,2,1,3,3
48,663,4,141,60,1,1,1,9.511921e-01,NaN,2,0,3,3
48,664,4,69,46,1,1,1,6.467205e-01,NaN,2,0,2,3
48,665,4,47,37,1,1,1,1.418129e+00,NaN,2,0,1,3
48,666,4,46,22,2,2,1,8.389996e-01,NaN,2,1,1,3
48,667,4,56,20,2,2,1,8.187278e-01,NaN,2,0,2,3
48,668,4,12,6,2,2,1,1.159239e+00,NaN,2,0,1,3
48,669,5,1.268600e+02,10,3,0,0,2.500392e+00,1,1,0,3.200000e+00,1
48,670,5,3.736000e+01,54,1,1,1,8.296486e-01,1,1,0,1.300000e+00,1
48,671,5,6.030000e+01,41,2,2,1,7.352068e-01,1,1,0,2.100000e+00,1
48,672,5,9.410000e+00,60,1,3,0,1.608907e+00,1,1,0,1.300000e+00,1
48,673,5,9.560000e+00,20,1,1,1,4.189930e-01,1,1,0,1.200000e+00,1
48,674,5,1.171400e+02,40,3,3,1,4.449009e-01,1,1,0,3.100000e+00,1
48,675,5,1.210300e+02,3,3,3,1,3.659457e-01,1,1,0,3.100000e+00,1
48,676,5,5.439000e+01,69,2,0,0,2.500580e+00,1,1,0,2.100000e+00,1
48,677,5,5.534000e+01,15,2,3,0,4.977300e-01,1,1,0,2.100000e+00,1
48,678,5,1.018800e+02,5,3,1,0,1.571130e+00,1,1,0,3.200000e+00,1
48,679,5,9.044000e+01,48,2,2,1,3.331620e-01,1,1,0,2.100000e+00,1
48,680,5,6.030000e+01,41,2,2,1,3.347742e-01,2,1,0,2.100000e+00,1
48,681,5,9.232000e+01,50,2,2,1,3.449854e-01,1,1,0,2.100000e+00,1
48,682,5,1.270400e+02,61,3,3,1,2.904034e-01,1,1,0,3.100000e+00,1
48,683,5,8.006000e+01,7,2,2,1,3.158549e-01,1,1,0,2.300000e+00,1
48,684,5,5.823000e+01,21,2,2,1,3.093338e-01,1,1,0,2.100000e+00,1
48,685,5,6.398000e+01,8,2,2,1,3.028679e-01,1,1,0,2.300000e+00,1
48,686,5,1.338400e+02,63,3,3,1,3.441984e-01,1,1,0,3.200000e+00,1
48,687,5,5.823000e+01,21,2,3,0,8.179605e-01,2,1,0,2.100000e+00,1
48,688,5,2.468000e+01,56,1,3,0,6.121163e-01,1,1,0,1.200000e+00,1
48,689,5,4.169000e+01,46,1,1,1,3.576630e-01,1,1,0,1.200000e+00,1
48,690,5,1.298500e+02,18,3,2,0,3.907292e-01,1,1,0,3.200000e+00,1
48,691,5,1.111800e+02,14,3,3,1,3.685349e-01,1,1,0,3.100000e+00,1
48,692,5,6.502000e+01,45,2,2,1,3.298842e-01,1,1,0,2.300000e+00,1
48,693,5,7.310000e+00,49,1,1,1,3.317198e-01,1,1,0,1.300000e+00,1
48,694,5,1.171400e+02,40,3,3,1,3.168009e-01,2,1,0,3.100000e+00,1
48,695,5,1.199400e+02,1,3,3,1,3.431362e-01,1,1,0,3.200000e+00,1
48,696,5,1.248700e+02,53,3,3,1,3.044656e-01,1,1,0,3.200000e+00,1
48,697,5,1.362000e+01,31,1,1,1,4.101709e-01,1,1,0,1.200000e+00,1
48,698,5,9.921000e+01,47,3,3,1,3.078952e-01,1,1,0,3.100000e+00,1
48,699,5,6.502000e+01,45,2,2,1,3.654473e-01,2,1,0,2.300000e+00,1
48,700,5,1.362000e+01,31,1,1,1,4.308788e-01,2,1,0,1.200000e+00,1
48,701,5,3.151000e+01,11,1,1,1,3.125298e-01,1,1,0,1.200000e+00,1
48,702,5,1.237000e+02,35,3,2,0,3.777111e-01,1,1,0,3.200000e+00,1
48,703,5,1.350100e+02,25,3,3,1,3.152860e-01,1,1,0,3.100000e+00,1
48,704,5,1.171400e+02,40,3,3,1,1.732621e+00,3,1,0,3.100000e+00,1
48,705,5,1.181900e+02,39,3,2,0,1.679048e+00,1,1,0,3.100000e+00,1
48,706,5,9.612000e+01,67,2,3,0,4.329978e-01,1,1,0,2.300000e+00,1
48,707,5,1.237000e+02,35,3,3,1,2.985259e-01,2,1,0,3.200000e+00,1
48,708,5,1.421000e+02,9,3,1,0,2.838171e-01,1,1,0,3.100000e+00,1
48,709,5,9.004000e+01,24,2,3,0,3.016805e-01,1,1,0,2.300000e+00,1
48,710,5,3.736000e+01,54,1,1,1,2.790863e-01,2,1,0,1.300000e+00,1
48,711,5,1.338400e+02,63,3,3,1,3.370468e-01,2,1,0,3.200000e+00,1
48,712,5,1.210300e+02,3,3,3,1,3.385922e-01,2,1,0,3.100000e+00,1
48,713,5,3.849000e+01,27,1,1,1,3.478931e-01,1,1,0,1.200000e+00,1
48,714,5,3.413000e+01,62,1,1,1,3.174810e-01,1,1,0,1.300000e+00,1
48,715,5,6.727000e+01,51,2,2,1,4.149045e-01,1,1,0,2.100000e+00,1
48,716,5,5.823000e+01,21,2,2,1,4.964803e-01,3,1,0,2.100000e+00,1
48,717,5,1.447500e+02,30,3,3,1,3.859711e-01,1,1,0,3.200000e+00,1
48,718,5,2.643000e+01,36,1,1,1,4.031701e-01,1,1,0,1.300000e+00,1
48,719,5,3.736000e+01,54,1,3,0,5.487534e-01,3,1,0,1.300000e+00,1
48,720,5,1.171400e+02,40,3,3,1,3.424396e-01,4,1,0,3.100000e+00,1
48,721,5,7.247000e+01,37,2,2,1,6.716495e-01,1,1,0,2.100000e+00,1
48,722,5,9.410000e+00,60,1,1,1,3.772559e-01,2,1,0,1.300000e+00,1
48,723,5,6.727000e+01,51,2,2,1,3.308749e-01,2,1,0,2.100000e+00,1
48,724,5,1.421000e+02,9,3,1,0,3.485701e-01,2,1,0,3.100000e+00,1
48,725,5,2.643000e+01,36,1,1,1,3.180886e-01,2,1,0,1.300000e+00,1
48,726,5,4.616000e+01,42,1,1,1,2.960045e-01,1,1,0,1.300000e+00,1
48,727,5,7.310000e+00,49,1,1,1,3.453560e-01,2,1,0,1.300000e+00,1
48,728,5,8.006000e+01,7,2,2,1,2.825956e-01,2,1,0,2.300000e+00,1
48,729,5,8.108000e+01,71,2,2,1,2.843242e-01,1,1,0,2.300000e+00,1
48,730,5,1.298500e+02,18,3,2,0,2.936993e-01,2,1,0,3.200000e+00,1
48,731,5,6.030000e+01,41,2,2,1,2.876267e-01,3,1,0,2.100000e+00,1
48,732,5,8.108000e+01,71,2,2,1,3.369834e-01,2,1,0,2.300000e+00,1
48,733,5,6.030000e+01,41,2,2,1,3.543423e-01,4,1,0,2.100000e+00,1
48,734,5,9.232000e+01,50,2,2,1,3.000336e-01,2,1,0,2.100000e+00,1
48,735,5,7.809000e+01,33,2,2,1,3.336163e-01,1,1,0,2.300000e+00,1
48,736,5,1.338400e+02,63,3,3,1,2.792770e-01,3,1,0,3.200000e+00,1
48,737,5,1.327400e+02,43,3,3,1,3.529493e-01,1,1,0,3.200000e+00,1
48,738,5,1.210300e+02,3,3,3,1,3.139705e-01,3,1,0,3.100000e+00,1
48,739,5,4.616000e+01,42,1,1,1,6.037159e-01,2,1,0,1.300000e+00,1
48,740,5,1.327400e+02,43,3,3,1,3.491584e-01,2,1,0,3.200000e+00,1
48,741,5,2.915000e+01,70,1,1,1,5.743178e-01,1,1,0,1.300000e+00,1
48,742,5,1.018800e+02,5,3,3,1,3.120399e-01,2,1,0,3.200000e+00,1
48,743,5,3.413000e+01,62,1,1,1,4.256345e-01,2,1,0,1.300000e+00,1
48,744,5,1.018800e+02,5,3,3,1,3.154013e-01,3,1,0,3.200000e+00,1
48,745,5,7.247000e+01,37,2,1,0,6.285031e-01,2,1,0,2.100000e+00,1
48,746,5,1.268600e+02,10,3,3,1,3.581577e-01,2,1,0,3.200000e+00,1
48,747,5,6.727000e+01,51,2,2,1,5.598406e-01,3,1,0,2.100000e+00,1
48,748,5,5.439000e+01,69,2,2,1,4.336902e-01,2,1,0,2.100000e+00,1
48,749,5,6.727000e+01,51,2,2,1,3.155576e-01,4,1,0,2.100000e+00,1
48,750,5,1.421000e+02,9,3,3,1,1.188960e+00,3,1,0,3.100000e+00,1
48,751,5,8.108000e+01,71,2,2,1,3.265274e-01,3,1,0,2.300000e+00,1
48,752,5,9.342000e+01,28,2,2,1,3.362354e-01,1,1,0,2.100000e+00,1
48,753,5,4.169000e+01,46,1,1,1,3.379553e-01,2,1,0,1.200000e+00,1
48,754,5,1.220500e+02,44,3,3,1,3.395753e-01,1,1,0,3.100000e+00,1
48,755,5,1.270400e+02,61,3,3,1,3.486616e-01,2,1,0,3.100000e+00,1
48,756,5,1.327400e+02,43,3,3,1,2.782788e-01,3,1,0,3.200000e+00,1
48,757,5,1.166000e+01,32,1,1,1,3.836406e-01,1,1,0,1.200000e+00,1
48,758,5,3.151000e+01,11,1,1,1,3.216009e-01,2,1,0,1.200000e+00,1
48,759,5,2.734000e+01,57,1,1,1,3.391322e-01,1,1,0,1.300000e+00,1
48,760,5,9.232000e+01,50,2,2,1,4.202007e-01,3,1,0,2.100000e+00,1
48,761,5,2.734000e+01,57,1,1,1,5.015686e-01,2,1,0,1.300000e+00,1
48,762,5,1.237000e+02,35,3,3,1,3.678286e-01,3,1,0,3.200000e+00,1
48,763,5,9.612000e+01,67,2,3,0,4.728779e-01,2,1,0,2.300000e+00,1
48,764,5,5.439000e+01,69,2,2,1,3.234736e-01,3,1,0,2.100000e+00,1
48,765,5,1.248700e+02,53,3,3,1,3.078723e-01,2,1,0,3.200000e+00,1
48,766,5,1.270400e+02,61,3,3,1,3.015911e-01,3,1,0,3.100000e+00,1
48,767,5,1.141200e+02,6,3,1,0,4.072991e-01,1,1,0,3.100000e+00,1
48,768,5,6.605000e+01,64,2,2,1,7.530035e-01,1,1,0,2.300000e+00,1
48,769,5,8.006000e+01,7,2,2,1,3.704070e-01,3,1,0,2.300000e+00,1
48,770,5,5.534000e+01,15,2,3,0,3.155398e-01,2,1,0,2.100000e+00,1
48,771,5,1.259600e+02,66,3,3,1,4.848963e-01,1,1,0,3.200000e+00,1
48,772,5,4.616000e+01,42,1,1,1,2.948817e-01,3,1,0,1.300000e+00,1
48,773,5,1.362000e+01,31,1,1,1,4.164701e-01,3,1,0,1.200000e+00,1
48,774,5,1.298500e+02,18,3,2,0,3.457188e-01,3,1,0,3.200000e+00,1
48,775,5,2.468000e+01,56,1,3,0,6.032511e-01,2,1,0,1.200000e+00,1
48,776,5,6.605000e+01,64,2,2,1,3.968597e-01,2,1,0,2.300000e+00,1
48,777,5,1.220500e+02,44,3,3,1,3.342058e-01,2,1,0,3.100000e+00,1
48,778,5,1.447500e+02,30,3,3,1,4.479106e-01,2,1,0,3.200000e+00,1
48,779,5,6.502000e+01,45,2,2,1,3.217250e-01,3,1,0,2.300000e+00,1
48,780,5,6.502000e+01,45,2,2,1,3.548099e-01,4,1,0,2.300000e+00,1
48,781,5,9.342000e+01,28,2,2,1,3.722398e-01,2,1,0,2.100000e+00,1
48,782,5,7.310000e+00,49,1,1,1,3.817782e-01,3,1,0,1.300000e+00,1
48,783,5,7.809000e+01,33,2,2,1,3.596606e-01,2,1,0,2.300000e+00,1
48,784,5,9.044000e+01,48,2,2,1,3.531362e-01,2,1,0,2.100000e+00,1
48,785,5,1.199400e+02,1,3,3,1,4.904358e-01,2,1,0,3.200000e+00,1
48,786,5,3.413000e+01,62,1,1,1,3.078261e-01,3,1,0,1.300000e+00,1
48,787,5,9.410000e+00,60,1,3,0,3.653060e-01,3,1,0,1.300000e+00,1
48,788,5,9.921000e+01,47,3,1,0,8.231831e-01,2,1,0,3.100000e+00,1
48,789,5,6.398000e+01,8,2,2,1,3.284028e-01,2,1,0,2.300000e+00,1
48,790,5,9.232000e+01,50,2,2,1,5.140826e-01,4,1,0,2.100000e+00,1
48,791,5,7.310000e+00,49,1,1,1,2.831365e-01,4,1,0,1.300000e+00,1
48,792,5,3.413000e+01,62,1,1,1,4.849974e-01,4,1,0,1.300000e+00,1
48,793,5,7.247000e+01,37,2,2,1,3.109430e-01,3,1,0,2.100000e+00,1
48,794,5,1.350100e+02,25,3,3,1,5.926710e-01,2,1,0,3.100000e+00,1
48,795,5,4.169000e+01,46,1,1,1,3.303729e-01,3,1,0,1.200000e+00,1
48,796,5,9.342000e+01,28,2,2,1,3.241784e-01,3,1,0,2.100000e+00,1
48,797,5,7.809000e+01,33,2,2,1,2.773491e-01,3,1,0,2.300000e+00,1
48,798,5,9.044000e+01,48,2,2,1,4.634536e-01,3,1,0,2.100000e+00,1
48,799,5,84,55,2,3,0,2.889377e-01,1,1,0,2.300000e+00,1
48,800,5,1.111800e+02,14,3,3,1,6.823008e-01,2,1,0,3.100000e+00,1
48,801,5,1.259600e+02,66,3,3,1,2.914400e-01,2,1,0,3.200000e+00,1
48,802,5,3.849000e+01,27,1,1,1,2.847314e-01,2,1,0,1.200000e+00,1
48,803,5,5.534000e+01,15,2,3,0,4.870273e-01,3,1,0,2.100000e+00,1
48,804,5,3.151000e+01,11,1,1,1,3.521944e-01,3,1,0,1.200000e+00,1
48,805,5,9.560000e+00,20,1,1,1,2.582500e-01,2,1,0,1.200000e+00,1
48,806,5,6.398000e+01,8,2,3,0,3.400369e-01,3,1,0,2.300000e+00,1
48,807,5,1.018800e+02,5,3,3,1,3.333923e-01,4,1,0,3.200000e+00,1
48,808,5,1.111800e+02,14,3,2,0,3.103833e-01,3,1,0,3.100000e+00,1
48,809,5,1.181900e+02,39,3,2,0,9.600876e-01,2,1,0,3.100000e+00,1
48,810,5,9.004000e+01,24,2,3,0,3.539167e-01,2,1,0,2.300000e+00,1
48,811,5,1.387800e+02,68,3,3,1,2.912707e-01,1,1,0,3.200000e+00,1
48,812,5,84,55,2,2,1,3.726802e-01,2,1,0,2.300000e+00,1
48,813,5,1.362000e+01,31,1,1,1,2.782323e-01,4,1,0,1.200000e+00,1
48,814,5,1.248700e+02,53,3,3,1,3.040753e-01,3,1,0,3.200000e+00,1
48,815,5,9.342000e+01,28,2,2,1,3.224636e-01,4,1,0,2.100000e+00,1
48,816,5,9.921000e+01,47,3,3,1,4.026159e-01,3,1,0,3.100000e+00,1
48,817,5,1.447500e+02,30,3,3,1,2.601577e-01,3,1,0,3.200000e+00,1
48,818,5,1.298500e+02,18,3,3,1,2.938859e-01,4,1,0,3.200000e+00,1
48,819,5,1.387800e+02,68,3,3,1,3.439660e-01,2,1,0,3.200000e+00,1
48,820,5,6.605000e+01,64,2,3,0,3.459160e-01,3,1,0,2.300000e+00,1
48,821,5,2.643000e+01,36,1,1,1,2.990109e-01,3,1,0,1.300000e+00,1
48,822,5,2.915000e+01,70,1,1,1,3.487096e-01,2,1,0,1.300000e+00,1
48,823,5,1.166000e+01,32,1,1,1,4.063060e-01,2,1,0,1.200000e+00,1
48,824,5,1.327400e+02,43,3,3,1,2.953806e-01,4,1,0,3.200000e+00,1
48,825,5,8.006000e+01,7,2,2,1,3.371071e-01,4,1,0,2.300000e+00,1
48,826,5,1.268600e+02,10,3,3,1,2.983719e-01,3,1,0,3.200000e+00,1
48,827,5,1.141200e+02,6,3,0,0,2.500073e+00,2,1,0,3.100000e+00,1
48,828,5,2.468000e+01,56,1,1,1,4.056616e-01,3,1,0,1.200000e+00,1
48,829,5,2.643000e+01,36,1,1,1,2.792994e-01,4,1,0,1.300000e+00,1
48,830,5,1.166000e+01,32,1,1,1,8.089518e-04,3,1,0,1.200000e+00,1
48,831,5,2.468000e+01,56,1,2,0,2.825150e-01,4,1,0,1.200000e+00,1
48,832,5,1.259600e+02,66,3,3,1,3.401594e-01,3,1,0,3.200000e+00,1
48,833,5,9.044000e+01,48,2,2,1,2.938460e-01,4,1,0,2.100000e+00,1
48,834,5,3.849000e+01,27,1,1,1,3.272298e-01,3,1,0,1.200000e+00,1
48,835,5,84,55,2,2,1,3.372641e-01,3,1,0,2.300000e+00,1
48,836,5,1.270400e+02,61,3,3,1,4.268715e-01,4,1,0,3.100000e+00,1
48,837,5,1.350100e+02,25,3,3,1,6.043703e-01,3,1,0,3.100000e+00,1
48,838,5,1.220500e+02,44,3,3,1,3.176627e-01,3,1,0,3.100000e+00,1
48,839,5,1.338400e+02,63,3,3,1,2.638910e-01,4,1,0,3.200000e+00,1
48,840,5,4.169000e+01,46,1,1,1,2.653118e-01,4,1,0,1.200000e+00,1
48,841,5,1.387800e+02,68,3,3,1,2.666586e-01,3,1,0,3.200000e+00,1
48,842,5,1.220500e+02,44,3,3,1,2.919299e-01,4,1,0,3.100000e+00,1
48,843,5,9.560000e+00,20,1,1,1,2.939088e-01,3,1,0,1.200000e+00,1
48,844,5,2.915000e+01,70,1,1,1,2.958388e-01,3,1,0,1.300000e+00,1
48,845,5,1.181900e+02,39,3,1,0,3.530377e-01,3,1,0,3.100000e+00,1
48,846,5,1.248700e+02,53,3,3,1,3.466703e-01,4,1,0,3.200000e+00,1
48,847,5,5.534000e+01,15,2,1,0,2.761046e-01,4,1,0,2.100000e+00,1
48,848,5,2.734000e+01,57,1,2,0,3.416092e-01,3,1,0,1.300000e+00,1
48,849,5,7.247000e+01,37,2,2,1,4.559729e-01,4,1,0,2.100000e+00,1
48,850,5,2.915000e+01,70,1,1,1,4.174608e-01,4,1,0,1.300000e+00,1
48,851,5,3.849000e+01,27,1,1,1,3.708465e-01,4,1,0,1.200000e+00,1
48,852,5,1.447500e+02,30,3,3,1,5.325496e-01,4,1,0,3.200000e+00,1
48,853,5,84,55,2,2,1,3.660290e-01,4,1,0,2.300000e+00,1
48,854,5,9.612000e+01,67,2,3,0,1.287352e+00,3,1,0,2.300000e+00,1
48,855,5,1.141200e+02,6,3,3,1,9.605754e-01,3,1,0,3.100000e+00,1
48,856,5,8.108000e+01,71,2,2,1,3.384322e-01,4,1,0,2.300000e+00,1
48,857,5,1.210300e+02,3,3,3,1,3.080821e-01,4,1,0,3.100000e+00,1
48,858,5,7.809000e+01,33,2,2,1,3.177195e-01,4,1,0,2.300000e+00,1
48,859,5,1.141200e+02,6,3,3,1,2.872842e-01,4,1,0,3.100000e+00,1
48,860,5,2.734000e+01,57,1,1,1,3.207965e-01,4,1,0,1.300000e+00,1
48,861,5,1.350100e+02,25,3,3,1,3.219631e-01,4,1,0,3.100000e+00,1
48,862,5,4.616000e+01,42,1,1,1,3.958859e-01,4,1,0,1.300000e+00,1
48,863,5,9.004000e+01,24,2,2,1,3.889673e-01,3,1,0,2.300000e+00,1
48,864,5,9.410000e+00,60,1,1,1,3.185580e-01,4,1,0,1.300000e+00,1
48,865,5,1.199400e+02,1,3,2,0,3.286282e-01,3,1,0,3.200000e+00,1
48,866,5,1.237000e+02,35,3,3,1,3.461251e-01,4,1,0,3.200000e+00,1
48,867,5,1.259600e+02,66,3,3,1,4.112500e-01,4,1,0,3.200000e+00,1
48,868,5,5.439000e+01,69,2,2,1,2.849910e-01,4,1,0,2.100000e+00,1
48,869,5,1.268600e+02,10,3,3,1,2.864284e-01,4,1,0,3.200000e+00,1
48,870,5,1.421000e+02,9,3,1,0,6.638902e-01,4,1,0,3.100000e+00,1
48,871,5,6.605000e+01,64,2,2,1,3.055779e-01,4,1,0,2.300000e+00,1
48,872,5,9.004000e+01,24,2,2,1,3.387504e-01,4,1,0,2.300000e+00,1
48,873,5,1.111800e+02,14,3,1,0,3.164478e-01,4,1,0,3.100000e+00,1
48,874,5,1.387800e+02,68,3,3,1,2.620642e-01,4,1,0,3.200000e+00,1
48,875,5,3.736000e+01,54,1,1,1,2.873925e-01,4,1,0,1.300000e+00,1
48,876,5,3.151000e+01,11,1,1,1,4.804133e-01,4,1,0,1.200000e+00,1
48,877,5,9.921000e+01,47,3,0,0,2.500481e+00,4,1,0,3.100000e+00,1
48,878,5,1.199400e+02,1,3,2,0,9.161808e-01,4,1,0,3.200000e+00,1
48,879,5,5.823000e+01,21,2,2,1,2.697839e-01,4,1,0,2.100000e+00,1
48,880,5,6.398000e+01,8,2,2,1,3.674338e-01,4,1,0,2.300000e+00,1
48,881,5,1.181900e+02,39,3,3,1,3.209305e-01,4,1,0,3.100000e+00,1
48,882,5,9.612000e+01,67,2,2,1,2.662487e-01,4,1,0,2.300000e+00,1
48,883,5,9.560000e+00,20,1,1,1,9.321039e-01,4,1,0,1.200000e+00,1
48,884,5,1.166000e+01,32,1,1,1,2.697399e-01,4,1,0,1.200000e+00,1
48,885,6,59,59,2,1,0,9.544633e-01,NaN,2,1,2,1
48,886,6,134,57,1,1,1,1.531493e+00,NaN,2,0,3,1
48,887,6,56,20,2,2,1,9.091508e-01,NaN,2,0,2,1
48,888,6,96,66,2,2,1,7.346040e-01,NaN,2,0,2,1
48,889,6,87,53,1,1,1,1.176110e+00,NaN,2,0,2,1
48,890,6,4,61,1,1,1,9.593876e-01,NaN,2,0,1,1
48,891,6,39,69,1,1,1,9.834760e-01,NaN,2,0,1,1
48,892,6,84,63,2,2,1,6.702806e-01,NaN,2,0,2,1
48,893,6,30,41,2,2,1,8.101212e-01,NaN,2,0,1,1
48,894,6,68,56,1,1,1,6.637211e-01,NaN,2,0,2,1
48,895,6,53,29,1,1,1,8.680216e-01,NaN,2,1,2,1
48,896,6,44,48,2,2,1,8.957551e-01,NaN,2,0,1,1
48,897,6,104,24,2,2,1,9.945616e-01,NaN,2,0,3,1
48,898,6,18,14,2,2,1,8.091969e-01,NaN,2,0,1,1
48,899,6,115,70,2,2,1,1.671399e+00,NaN,2,0,3,1
48,900,6,141,60,2,2,1,1.050587e+00,NaN,2,0,3,1
48,901,6,17,23,2,2,1,9.754474e-01,NaN,2,1,1,1
48,902,6,110,2,1,1,1,1.087135e+00,NaN,2,1,3,1
48,903,6,120,12,2,2,1,9.460559e-01,NaN,2,1,3,1
48,904,6,108,71,1,1,1,1.266569e+00,NaN,2,0,3,1
48,905,6,10,9,1,1,1,1.046239e+00,NaN,2,0,1,1
48,906,6,62,31,2,1,0,6.428016e-01,NaN,2,0,2,1
48,907,6,50,58,2,2,1,9.354982e-01,NaN,2,1,2,1
48,908,6,47,37,1,1,1,8.008614e-01,NaN,2,0,1,1
48,909,6,116,42,2,2,1,8.961043e-01,NaN,2,0,3,1
48,910,6,82,52,2,2,1,8.898902e-01,NaN,2,1,2,1
48,911,6,78,68,2,2,1,7.005269e-01,NaN,2,0,2,1
48,912,6,29,26,1,1,1,7.911893e-01,NaN,2,1,1,1
48,913,6,102,45,2,2,1,1.037861e+00,NaN,2,0,3,1
48,914,6,51,11,2,2,1,6.907211e-01,NaN,2,0,2,1
48,915,6,5,44,1,1,1,6.694997e-01,NaN,2,0,1,1
48,916,6,1,25,2,2,1,8.888053e-01,NaN,2,0,1,1
48,917,6,19,39,1,2,0,7.641181e-01,NaN,2,0,1,1
48,918,6,100,55,2,1,0,1.603628e+00,NaN,2,0,3,1
48,919,6,57,16,2,2,1,8.502214e-01,NaN,2,1,2,1
48,920,6,70,35,2,2,1,9.505993e-01,NaN,2,0,2,1
48,921,6,3,3,2,2,1,9.910439e-01,NaN,2,0,1,1
48,922,6,97,4,2,2,1,1.349935e+00,NaN,2,1,3,1
48,923,6,48,34,2,2,1,1.149858e+00,NaN,2,1,1,1
48,924,6,113,62,2,2,1,1.318667e+00,NaN,2,0,3,1
48,925,6,74,43,1,1,1,7.439710e-01,NaN,2,0,2,1
48,926,6,103,65,2,2,1,1.096734e+00,NaN,2,1,3,1
48,927,6,32,50,1,1,1,9.956214e-01,NaN,2,0,1,1
48,928,6,106,7,2,2,1,1.186573e+00,NaN,2,0,3,1
48,929,6,112,67,1,1,1,1.161218e+00,NaN,2,0,3,1
48,930,6,94,1,1,1,1,8.893604e-01,NaN,2,0,2,1
48,931,6,27,51,1,1,1,7.640767e-01,NaN,2,0,1,1
48,932,6,75,30,2,2,1,8.122320e-01,NaN,2,0,2,1
48,933,6,69,46,2,2,1,9.859550e-01,NaN,2,0,2,1
48,934,6,136,54,1,1,1,8.006875e-01,NaN,2,0,3,1
48,935,6,61,17,1,1,1,6.711692e-01,NaN,2,1,2,1
48,936,6,46,22,1,1,1,1.394561e+00,NaN,2,1,1,1
48,937,6,86,10,2,2,1,8.103956e-01,NaN,2,0,2,1
48,938,6,42,28,1,1,1,7.911872e-01,NaN,2,0,1,1
48,939,6,66,32,1,1,1,6.541025e-01,NaN,2,0,2,1
48,940,6,14,40,1,1,1,7.221558e-01,NaN,2,0,1,1
48,941,6,105,64,1,2,0,1.291729e+00,NaN,2,0,3,1
48,942,6,88,5,1,1,1,8.627637e-01,NaN,2,0,2,1
48,943,6,130,13,1,1,1,1.794064e+00,NaN,2,1,3,1
48,944,6,98,8,2,2,1,2.249098e+00,NaN,2,0,3,1
48,945,6,21,47,2,2,1,9.892355e-01,NaN,2,0,1,1
48,946,6,109,33,2,2,1,8.602493e-01,NaN,2,0,3,1
48,947,6,143,36,2,2,1,1.208367e+00,NaN,2,0,3,1
48,948,6,12,6,2,2,1,1.366297e+00,NaN,2,0,1,1
48,949,6,23,21,2,2,1,1.173767e+00,NaN,2,0,1,1
48,950,6,140,38,2,2,1,1.493734e+00,NaN,2,1,3,1
48,951,6,34,15,2,2,1,1.248167e+00,NaN,2,0,1,1
48,952,6,131,49,2,2,1,8.203834e-01,NaN,2,0,3,1
48,953,6,137,72,2,2,1,8.342714e-01,NaN,2,1,3,1
48,954,6,22,19,2,2,1,1.687030e+00,NaN,2,1,1,1
48,955,6,49,27,1,1,1,7.456803e-01,NaN,2,0,2,1
48,956,6,85,18,1,1,1,6.103246e-01,NaN,2,0,2,1
48,957,6,119,1,1,1,1,1.273268e+00,NaN,1,0,3,1
48,958,6,11,32,1,1,1,9.477363e-01,NaN,1,0,1,1
48,959,6,133,63,1,1,1,1.364347e+00,NaN,1,0,3,1
48,960,6,73,22,2,1,0,1.483718e+00,NaN,1,1,2,1
48,961,6,37,17,1,1,1,1.350935e+00,NaN,1,1,1,1
48,962,6,7,12,2,2,1,1.399144e+00,NaN,1,1,1,1
48,963,6,139,52,1,1,1,1.109293e+00,NaN,1,1,3,1
48,964,6,45,42,2,1,0,1.159601e+00,NaN,1,0,1,1
48,965,6,128,19,2,2,1,1.512074e+00,NaN,1,1,3,1
48,966,6,24,56,2,2,1,9.698140e-01,NaN,1,0,1,1
48,967,6,132,43,2,2,1,1.497751e+00,NaN,1,0,3,1
48,968,6,52,34,1,1,1,1.451555e+00,NaN,1,1,2,1
48,969,6,83,55,2,2,1,7.361830e-01,NaN,1,0,2,1
48,970,6,124,53,1,2,0,1.120944e+00,NaN,1,0,3,1
48,971,6,25,36,2,2,1,1.002451e+00,NaN,1,0,1,1
48,972,6,9,20,1,1,1,1.025140e+00,NaN,1,0,1,1
48,973,6,117,40,2,2,1,1.182809e+00,NaN,1,0,3,1
48,974,6,127,61,2,2,1,1.717902e+00,NaN,1,0,3,1
48,975,6,129,18,2,2,1,1.127282e+00,NaN,1,0,3,1
48,976,6,126,10,1,1,1,1.624970e+00,NaN,1,0,3,1
48,977,6,13,31,1,1,1,9.425158e-01,NaN,1,0,1,1
48,978,6,79,7,1,1,1,9.190272e-01,NaN,1,0,2,1
48,979,6,77,33,1,1,1,8.010700e-01,NaN,1,0,2,1
48,980,6,95,67,1,1,1,9.597652e-01,NaN,1,0,2,1
48,981,6,138,68,1,1,1,1.151698e+00,NaN,1,0,3,1
48,982,6,121,3,1,1,1,7.363735e-01,NaN,1,0,3,1
48,983,6,38,27,1,1,1,6.976183e-01,NaN,1,0,1,1
48,984,6,81,4,2,2,1,7.880528e-01,NaN,1,1,2,1
48,985,6,92,50,1,1,1,9.469995e-01,NaN,1,0,2,1
48,986,6,16,16,2,2,1,9.955079e-01,NaN,1,1,1,1
48,987,6,36,54,1,1,1,1.313616e+00,NaN,1,0,1,1
48,988,6,91,65,1,1,1,7.392818e-01,NaN,1,1,2,1
48,989,6,144,30,1,1,1,1.316233e+00,NaN,1,0,3,1
48,990,6,35,59,2,2,1,1.118208e+00,NaN,1,1,1,1
48,991,6,107,23,1,2,0,1.239994e+00,NaN,1,1,3,1
48,992,6,58,21,1,1,1,1.036553e+00,NaN,1,0,2,1
48,993,6,8,60,1,1,1,7.295046e-01,NaN,1,0,1,1
48,994,6,80,71,2,2,1,8.588690e-01,NaN,1,0,2,1
48,995,6,67,51,2,2,1,7.510656e-01,NaN,1,0,2,1
48,996,6,89,24,1,1,1,7.351413e-01,NaN,1,0,2,1
48,997,6,135,25,2,2,1,8.083889e-01,NaN,1,0,3,1
48,998,6,28,70,1,1,1,9.982589e-01,NaN,1,0,1,1
48,999,6,71,26,1,1,1,9.246425e-01,NaN,1,1,2,1
48,1000,6,26,57,1,1,1,1.214235e+00,NaN,1,0,1,1
48,1001,6,122,44,2,2,1,1.148243e+00,NaN,1,0,3,1
48,1002,6,90,48,1,1,1,1.004581e+00,NaN,1,0,2,1
48,1003,6,65,64,1,1,1,9.465437e-01,NaN,1,0,2,1
48,1004,6,2,72,2,2,1,9.150332e-01,NaN,1,1,1,1
48,1005,6,99,47,2,2,1,1.940346e+00,NaN,1,0,3,1
48,1006,6,6,49,2,2,1,1.341283e+00,NaN,1,0,1,1
48,1007,6,118,39,1,1,1,1.366448e+00,NaN,1,0,3,1
48,1008,6,55,15,2,2,1,7.977469e-01,NaN,1,0,2,1
48,1009,6,33,62,2,2,1,1.028086e+00,NaN,1,0,1,1
48,1010,6,54,69,1,1,1,1.113614e+00,NaN,1,0,2,1
48,1011,6,20,29,2,2,1,9.872955e-01,NaN,1,1,1,1
48,1012,6,60,41,2,2,1,7.699815e-01,NaN,1,0,2,1
48,1013,6,125,66,1,1,1,1.233892e+00,NaN,1,0,3,1
48,1014,6,76,2,2,2,1,8.228531e-01,NaN,1,1,2,1
48,1015,6,40,58,2,2,1,1.676523e+00,NaN,1,1,1,1
48,1016,6,41,46,1,1,1,1.295438e+00,NaN,1,0,1,1
48,1017,6,93,28,1,1,1,7.618228e-01,NaN,1,0,2,1
48,1018,6,63,8,2,2,1,9.538632e-01,NaN,1,0,2,1
48,1019,6,111,14,1,1,1,1.034072e+00,NaN,1,0,3,1
48,1020,6,43,38,1,1,1,8.474299e-01,NaN,1,1,1,1
48,1021,6,101,5,1,1,1,1.019837e+00,NaN,1,0,3,1
48,1022,6,31,11,1,1,1,1.185378e+00,NaN,1,0,1,1
48,1023,6,64,45,1,1,1,8.890731e-01,NaN,1,0,2,1
48,1024,6,142,9,1,1,1,1.611163e+00,NaN,1,0,3,1
48,1025,6,114,6,2,2,1,1.657329e+00,NaN,1,0,3,1
48,1026,6,15,13,1,1,1,1.013888e+00,NaN,1,1,1,1
48,1027,6,123,35,2,2,1,2.115545e+00,NaN,1,0,3,1
48,1028,6,72,37,2,2,1,8.613131e-01,NaN,1,0,2,1
